timestamp,L1,L2,L3,L4,L5,L6,L7,L8,R1,R2,R3,R4,R5,R6,R7,R8,acc_x_left,acc_y_left,acc_z_left,gyro_x_left,gyro_y_left,gyro_z_left,acc_x_right,acc_y_right,acc_z_right,gyro_x_right,gyro_y_right,gyro_z_right,mood
0.00,2603,3486,3341,2844,3046,0,3011,3233,0,0,0,0,0,0,0,292,1.549,3.807,8.978,0.044,0.045,-0.018,0.881,-2.698,9.141,0.648,-0.374,1.151,sad
0.01,2589,3469,3343,2842,3008,5,2997,3229,0,0,0,0,0,0,10,309,1.537,3.826,9.062,0.039,0.048,-0.015,1.156,-2.598,9.194,0.740,-0.347,1.140,sad
0.02,2559,3463,3333,2857,2954,310,2992,3233,0,0,0,0,4,0,0,295,1.494,3.826,9.069,0.041,0.062,-0.014,1.010,-2.576,8.741,0.763,-0.507,1.100,sad
0.03,2559,3442,3326,2838,2891,426,2977,3219,0,0,0,0,0,0,0,267,1.470,3.804,9.052,0.038,0.064,-0.015,1.089,-2.705,8.547,0.754,-0.555,1.088,sad
0.04,2559,3439,3335,2858,2803,405,2963,3223,0,0,0,0,0,0,0,217,1.520,3.764,9.079,0.043,0.068,-0.017,1.144,-3.419,8.449,0.716,-0.625,1.065,sad
0.05,2559,3425,3323,2867,2635,498,2953,3237,0,0,0,0,0,0,0,205,1.494,3.821,9.074,0.045,0.063,-0.021,1.140,-4.341,7.415,0.674,-0.735,1.071,sad
0.06,2544,3396,3312,2849,2431,673,2926,3202,0,0,0,0,0,0,0,201,1.477,3.836,9.043,0.042,0.074,-0.007,1.192,-4.681,6.555,0.557,-0.762,1.095,sad
0.07,2517,3367,3301,2839,2405,816,2901,3200,0,0,0,0,0,0,0,155,1.417,3.836,9.151,0.044,0.067,-0.008,1.223,-5.318,5.883,0.234,-0.836,1.130,sad
0.08,2480,3357,3306,2866,2438,795,2885,3214,1515,2684,0,2453,2541,1769,1611,3095,1.401,3.828,9.060,0.042,0.067,-0.010,1.480,-6.309,6.551,-0.056,-0.719,1.051,sad
0.09,2451,3294,3297,2846,2448,751,2870,3184,1527,2585,158,2455,2541,1709,1607,3093,1.441,3.816,9.084,0.047,0.060,-0.021,1.611,-6.709,6.773,-0.140,-0.730,0.973,sad
0.10,2438,3216,3286,2851,2387,790,2854,3168,1529,2585,0,2455,2543,1707,1606,3093,1.448,3.857,9.081,0.052,0.062,-0.025,2.655,-6.689,6.589,-0.375,-0.619,0.747,sad
0.11,2432,3125,3248,2857,2384,778,2815,3141,0,0,0,0,0,0,0,907,1.609,3.790,9.112,0.070,0.066,-0.038,1.353,13.139,19.613,-0.066,0.101,-0.592,sad
0.12,2423,3140,3232,2833,2384,0,2672,3031,39,0,0,0,0,0,0,1839,1.489,3.776,9.124,0.107,0.063,-0.047,-5.076,4.001,-3.033,-1.847,-1.768,-0.659,sad
0.13,2374,3168,3212,2810,2391,0,2442,2833,13,0,7,0,0,0,445,2557,1.401,3.843,9.081,0.122,0.062,-0.045,2.061,-11.463,16.015,-1.573,-0.462,-0.278,sad
0.14,2319,3214,3196,2778,2342,0,2128,2426,1595,2569,0,2483,2575,1671,1572,3101,1.401,3.812,9.072,0.167,0.038,-0.068,9.697,-8.648,19.613,-1.665,1.081,1.014,sad
0.15,2226,3229,3181,2704,2171,0,1661,1458,1579,2567,0,2492,2595,1702,1587,3109,1.539,3.582,9.232,0.176,0.000,-0.077,0.000,-0.670,8.511,-0.368,0.822,0.442,sad
0.16,2124,3260,3185,2559,1875,0,991,146,1374,2533,17,2405,2661,2109,2255,3188,1.496,3.943,9.110,0.245,0.037,-0.086,1.499,-3.931,10.274,-0.251,0.124,0.102,sad
0.17,1823,3254,3141,2227,1285,0,375,0,1617,2566,28,2485,2633,1663,1619,3100,1.566,3.321,8.224,0.399,0.050,-0.099,1.456,-3.452,9.268,-0.092,-0.009,-0.026,sad
0.18,1523,3153,3092,1989,983,0,71,0,1598,2543,28,2483,2573,1671,1571,3103,1.829,2.854,9.201,0.406,0.030,-0.126,0.943,-3.254,9.608,-0.104,-0.061,-0.023,sad
0.19,1533,3088,3015,1823,863,0,0,0,1593,2553,20,2475,2570,1676,1577,3100,2.516,3.903,8.914,0.533,0.164,-0.067,1.662,-3.440,9.730,0.033,0.130,-0.008,sad
0.20,1491,2862,2629,1560,574,0,0,0,20,445,15,555,879,23,3025,4039,1.398,4.209,9.009,0.645,0.255,-0.102,1.250,-3.239,9.323,0.000,0.016,-0.021,sad
0.21,1431,2559,2544,1312,371,0,0,0,16,435,0,639,957,0,2909,3625,0.783,4.429,9.428,0.561,0.064,-0.517,1.391,-3.211,9.297,0.014,-0.025,-0.014,sad
0.22,1419,2058,1965,916,0,0,0,0,23,471,28,635,1084,1,2955,3711,2.521,5.107,8.629,0.455,0.094,-0.905,1.250,-3.311,9.416,-0.000,-0.057,0.040,sad
0.23,1274,1005,997,622,0,0,0,0,52,424,12,750,1371,0,3163,3885,2.670,5.610,8.152,0.269,0.131,-1.359,1.451,-2.990,9.081,-0.019,0.110,0.098,sad
0.24,1033,506,0,281,0,0,0,0,31,439,10,863,1567,1,3359,4095,3.615,6.244,9.261,0.140,0.321,-1.961,1.468,-3.036,9.112,-0.077,0.150,0.145,sad
0.25,368,0,0,0,0,0,0,0,55,423,304,1133,1547,17,3385,4095,3.689,6.709,8.930,-0.176,1.016,-2.722,1.499,-3.354,9.225,-0.208,0.162,0.209,sad
0.26,1,0,0,0,0,0,0,0,42,453,1494,1316,1461,15,3397,4095,6.823,9.943,10.441,-0.698,1.831,-3.237,1.384,-3.610,9.158,-0.192,0.128,0.194,sad
0.27,0,0,0,0,0,0,0,0,33,604,1753,1389,1371,10,3387,4095,11.468,9.960,4.453,-0.460,2.777,-2.054,1.259,-3.601,9.493,-0.117,0.145,0.148,sad
0.28,0,0,0,0,0,0,0,0,59,697,1855,1560,1275,18,3412,4095,7.307,9.572,3.994,-0.274,2.191,-0.448,1.226,-3.512,9.462,-0.088,0.109,0.109,sad
0.29,0,0,0,0,0,0,0,0,90,741,1881,1646,1205,23,3420,4095,4.834,8.667,6.093,0.048,1.072,0.703,1.164,-3.484,9.426,-0.053,0.101,0.084,sad
0.30,0,0,0,0,0,0,0,0,95,723,1827,1711,1171,25,3417,4095,4.341,7.671,5.770,0.348,0.756,1.210,1.180,-3.488,9.448,-0.031,0.105,0.078,sad
0.31,0,0,0,0,0,0,0,0,80,619,1911,1811,1146,0,3417,4095,1.745,6.965,6.826,0.690,0.933,1.385,1.097,-3.409,9.361,-0.013,0.122,0.084,sad
0.32,0,0,0,0,0,0,0,0,93,599,1896,1813,1117,24,3417,4095,-0.476,6.323,8.442,0.855,0.896,1.413,1.219,-3.412,9.364,-0.012,0.127,0.080,sad
0.33,0,0,0,0,0,0,0,0,105,502,1893,1897,1076,22,3429,4095,-0.682,5.306,9.084,1.020,0.671,1.351,1.211,-3.409,9.349,-0.004,0.123,0.076,sad
0.34,0,0,0,0,0,0,0,0,108,462,1893,1974,974,27,3414,4095,0.488,4.444,8.873,1.159,0.504,1.390,1.116,-3.326,9.369,-0.015,0.120,0.080,sad
0.35,0,0,0,0,0,0,0,0,127,467,1893,1959,901,31,3406,4095,0.637,4.894,9.814,1.217,0.449,1.578,1.051,-3.498,9.536,0.006,0.151,0.083,sad
0.36,0,0,0,0,0,0,0,0,93,409,1891,1991,828,25,3407,4095,0.352,3.709,11.226,1.082,0.485,1.661,1.063,-3.433,9.352,0.006,0.142,0.083,sad
0.37,0,0,0,0,0,0,0,0,119,353,1896,2093,792,36,3400,4095,2.746,2.679,9.199,1.185,0.714,1.865,1.061,-3.472,9.323,0.007,0.127,0.081,sad
0.38,0,0,0,0,0,0,0,0,117,358,1904,2125,791,30,3390,4095,2.193,3.393,10.341,1.041,0.852,2.245,1.085,-3.393,9.357,0.002,0.110,0.070,sad
0.39,0,0,0,0,0,0,0,0,155,312,1911,2195,754,10,3356,4095,2.547,0.939,10.357,0.948,0.838,2.571,1.106,-3.318,9.261,-0.017,0.101,0.077,sad
0.40,0,0,0,0,0,0,0,0,133,365,1957,2249,845,33,3374,4095,2.509,3.366,10.827,0.689,1.041,3.047,1.037,-3.412,9.433,-0.053,0.103,0.083,sad
0.41,0,0,0,0,0,0,0,0,181,391,1950,2317,810,41,3357,4095,1.707,0.804,10.206,0.600,1.159,3.337,1.080,-3.570,9.383,-0.041,0.122,0.096,sad
0.42,0,0,0,0,0,0,0,0,183,411,2044,2427,776,41,3339,4095,0.189,3.275,11.262,0.302,1.187,3.626,1.037,-3.498,9.371,-0.062,0.119,0.091,sad
0.43,0,0,0,0,0,0,0,0,199,523,1993,2445,756,44,3311,4095,0.532,1.889,10.980,-0.088,1.128,3.653,1.022,-3.440,9.287,-0.079,0.114,0.090,sad
0.44,0,0,0,0,0,0,0,0,381,621,2083,2487,759,51,3263,4095,-0.685,2.018,10.714,-0.410,1.094,3.689,0.950,-3.565,9.361,-0.056,0.110,0.081,sad
0.45,0,0,0,0,0,0,0,0,442,619,2106,2536,669,50,3129,4095,-1.741,1.566,10.120,-0.664,0.894,3.580,1.109,-3.539,9.309,-0.044,0.118,0.081,sad
0.46,0,0,0,0,0,0,0,0,495,687,2014,2555,726,51,3153,4095,-1.832,1.733,10.096,-0.881,0.855,3.292,0.991,-3.572,9.371,-0.053,0.113,0.077,sad
0.47,0,0,0,0,0,0,0,0,581,727,2152,2651,583,43,3113,4095,-1.592,2.243,10.606,-1.103,0.833,2.940,0.936,-3.589,9.373,-0.030,0.115,0.070,sad
0.48,0,0,0,0,0,0,0,0,611,761,2152,2749,530,50,2989,4095,-1.302,2.739,10.834,-1.348,0.863,2.583,1.094,-3.601,9.342,-0.035,0.104,0.068,sad
0.49,0,0,0,0,0,0,0,0,693,827,2259,2777,569,59,2926,4095,-0.036,3.014,10.465,-1.541,0.802,2.322,1.022,-3.553,9.335,-0.040,0.108,0.066,sad
0.50,0,0,0,0,0,0,0,0,795,809,2124,2828,530,51,2856,4095,1.422,3.711,10.063,-1.629,0.783,2.284,0.907,-3.510,9.292,-0.035,0.094,0.067,sad
0.51,0,0,0,0,0,0,0,0,979,856,2034,2887,555,52,2775,4095,1.772,4.602,10.209,-1.659,0.698,2.390,0.838,-3.395,9.086,-0.033,0.075,0.063,sad
0.52,0,0,0,0,0,0,0,0,1011,876,2121,2835,551,50,2709,4095,1.678,5.353,10.082,-1.676,0.551,2.576,0.876,-3.546,9.290,-0.027,0.063,0.056,sad
0.53,0,0,0,0,0,0,0,0,1069,828,2175,2979,663,47,2671,4055,1.535,5.792,9.225,-1.630,0.480,2.682,0.891,-3.539,9.328,-0.023,0.042,0.043,sad
0.54,0,0,0,0,0,0,0,0,1245,915,2152,3045,687,51,2635,4091,1.082,6.337,9.074,-1.476,0.475,2.765,0.888,-3.613,9.419,-0.024,0.044,0.047,sad
0.55,0,0,0,0,0,0,0,0,1395,892,2152,3063,668,50,2541,4086,1.614,7.506,9.333,-1.314,0.514,2.873,0.840,-3.412,9.136,-0.026,0.038,0.038,sad
0.56,0,0,0,0,0,0,0,0,1551,979,2167,3087,599,48,2507,4041,1.245,8.471,9.632,-1.223,0.723,2.977,0.936,-3.591,9.340,-0.026,0.039,0.039,sad
0.57,0,0,0,0,0,0,0,0,1811,1031,2162,3129,647,72,2439,4067,-0.855,8.485,9.598,-1.155,0.763,2.934,0.895,-3.529,9.306,-0.033,0.024,0.025,sad
0.58,0,0,0,0,0,0,0,0,1785,1099,2198,3213,619,47,2295,4029,-1.348,8.423,9.524,-1.114,0.713,2.404,0.828,-3.603,9.357,-0.040,0.023,0.031,sad
0.59,0,0,0,0,0,0,0,0,1863,1119,2224,3237,615,55,2237,4019,-0.994,7.558,8.253,-1.030,0.692,1.715,0.778,-3.692,9.613,-0.004,0.032,0.034,sad
0.60,0,0,0,0,0,0,0,0,2085,1134,2203,3291,617,51,2159,3991,-0.352,6.670,7.154,-0.766,0.422,1.090,0.809,-3.476,9.120,-0.024,-0.007,0.025,sad
0.61,0,0,0,0,0,0,0,0,2236,1143,2206,3356,645,47,2108,3964,0.986,6.883,6.905,-0.416,0.053,0.858,0.984,-3.579,9.232,-0.020,0.036,0.035,sad
0.62,0,0,0,0,0,0,0,0,2346,1251,2208,3347,637,59,2029,3943,2.334,7.731,7.817,-0.257,-0.040,0.860,0.792,-3.551,9.160,-0.005,0.013,0.026,sad
0.63,0,0,0,0,0,0,0,0,2374,1207,2213,3365,671,46,1909,3865,3.338,8.466,7.784,-0.366,0.158,1.095,0.848,-3.536,9.459,-0.019,0.005,0.023,sad
0.64,0,0,0,0,0,0,0,0,2429,1304,2218,3337,688,47,1799,3885,2.428,7.436,6.096,-0.327,0.421,1.121,0.924,-3.630,9.345,-0.016,0.019,0.022,sad
0.65,0,0,0,0,0,0,0,0,2462,1351,2208,3327,654,47,1737,3819,1.566,6.919,4.858,-0.140,0.358,1.048,0.893,-3.737,9.380,-0.004,0.031,0.027,sad
0.66,0,0,0,0,0,0,0,0,2530,1247,2198,3355,616,63,1598,3800,1.731,6.867,4.937,0.181,0.353,0.942,0.929,-3.699,9.378,0.006,0.035,0.025,sad
0.67,0,0,0,0,0,0,0,0,2591,1206,2218,3403,711,82,1586,3823,1.338,7.530,4.997,0.457,0.163,0.852,0.860,-3.649,9.407,0.009,0.037,0.024,sad
0.68,0,0,0,0,0,0,0,0,2639,1269,2234,3401,750,45,1470,3804,1.401,7.439,4.630,0.722,-0.239,0.595,0.862,-3.484,9.210,0.006,0.034,0.028,sad
0.69,0,0,0,0,0,0,0,0,2681,1215,2231,3451,765,48,1289,3773,4.264,4.700,5.248,0.767,-0.562,0.252,0.848,-3.610,9.431,0.013,0.039,0.025,sad
0.70,0,0,0,0,0,0,0,0,2725,1339,2331,3391,776,47,1413,3739,8.045,4.056,11.954,0.536,0.141,0.207,0.833,-3.632,9.313,0.005,0.040,0.026,sad
0.71,0,0,0,0,0,0,0,0,2770,1285,2239,3432,725,47,1371,3641,4.355,0.213,9.716,0.510,0.107,0.461,0.845,-3.644,9.328,0.012,0.051,0.027,sad
0.72,0,0,0,0,0,0,0,765,2795,1335,2249,3379,725,46,1199,3645,1.439,0.436,7.159,0.844,0.141,0.307,0.883,-3.608,9.371,0.005,0.062,0.032,sad
0.73,0,0,0,0,0,0,125,1422,2781,1327,2234,3402,663,46,1234,3605,-3.182,2.289,11.114,0.981,0.059,-0.019,0.931,-3.567,9.376,-0.014,0.067,0.029,sad
0.74,0,0,0,0,70,0,285,2130,2839,1271,2229,3437,620,59,885,3478,0.227,4.108,11.550,0.877,-0.428,-0.279,0.919,-3.668,9.438,-0.054,0.071,0.027,sad
0.75,0,0,0,0,208,0,591,2586,2901,1195,2239,3431,373,46,800,3187,1.724,3.994,10.075,0.633,-0.405,0.071,0.795,-3.689,9.340,-0.094,0.088,0.009,sad
0.76,0,0,0,0,553,0,931,2766,2887,1221,2239,3443,223,43,349,3003,0.845,6.357,14.071,0.121,-0.064,-0.239,0.864,-3.637,9.364,-0.105,0.084,0.000,sad
0.77,0,258,0,0,738,0,1581,2927,2949,1131,2231,3445,85,17,57,2665,4.061,2.413,8.325,0.037,-0.008,-0.019,0.634,-3.340,9.266,-0.154,-0.041,-0.033,sad
0.78,0,509,0,0,766,0,1999,2869,2909,1247,2239,3386,6,0,1,2134,2.923,2.921,8.765,0.042,0.109,-0.084,1.010,-3.677,9.584,-0.216,0.046,-0.076,sad
0.79,0,805,0,0,1202,0,2222,3203,2891,1207,2242,3351,3,0,0,1778,1.891,3.160,9.579,0.016,0.151,-0.095,1.247,-3.304,9.522,-0.337,0.123,-0.090,sad
0.80,0,1184,0,0,1520,0,2394,3302,2696,925,2316,3363,0,0,0,1979,2.219,2.952,9.273,0.026,0.229,-0.136,-0.340,-3.622,9.258,-0.199,0.411,-0.107,sad
0.81,0,1392,0,0,1592,0,2482,3362,2663,517,2224,3453,0,0,0,1991,1.915,2.950,9.275,0.058,0.282,-0.103,0.572,-3.776,9.060,-0.509,0.198,-0.124,sad
0.82,0,1487,0,0,1755,0,2552,3399,2749,249,2231,3451,0,0,0,1965,1.820,3.074,9.536,0.061,0.204,-0.017,0.852,-3.828,8.847,-0.540,0.175,-0.132,sad
0.83,0,1600,0,0,1990,0,2610,3423,2795,0,2224,3417,0,0,0,1883,1.937,2.887,9.266,0.086,0.246,-0.051,0.445,-4.209,9.191,-0.423,0.041,-0.109,sad
0.84,0,1791,0,0,1993,0,2698,3431,2501,2733,2034,2391,2,0,55,3635,2.231,2.512,8.662,0.159,0.356,-0.172,1.106,-4.276,9.488,-0.548,0.319,-0.130,sad
0.85,0,2017,0,0,2075,0,2730,3435,1583,2571,1510,2463,2535,1696,1595,3096,2.004,2.653,8.619,0.304,0.655,-0.317,1.386,-4.513,9.210,-0.618,0.491,-0.075,sad
0.86,0,2363,89,0,2240,0,2774,3443,1551,2648,1359,2451,2536,1709,1613,3096,1.020,4.326,10.546,0.251,0.391,-0.187,0.836,-4.298,8.636,-0.782,0.325,0.190,sad
0.87,0,2539,613,0,2327,0,2816,3461,1551,2567,1041,2461,2544,1695,1595,3096,1.192,3.294,9.826,0.173,0.123,-0.048,0.077,-4.628,8.801,-0.921,-0.324,0.785,sad
0.88,16,2638,1143,0,2405,0,2869,3483,1547,2570,798,2476,2549,1688,1591,3109,1.480,3.237,9.316,0.172,0.092,-0.058,0.836,-5.023,8.741,-0.953,-0.603,1.131,sad
0.89,84,2698,1535,104,2475,0,2922,3497,1503,2599,0,2445,2537,1715,1618,3094,1.453,3.417,9.469,0.189,0.037,-0.086,1.788,-5.229,9.658,-1.012,-0.562,1.586,sad
0.90,162,2750,1767,360,2559,0,2975,3517,1481,2616,0,2445,2519,1739,1637,3095,1.456,3.364,9.431,0.155,-0.011,-0.064,1.494,-5.696,8.490,-0.930,-0.522,2.000,sad
0.91,289,2826,1939,511,2669,0,3018,3502,1497,2617,0,2439,2526,1735,1635,3089,1.415,3.163,9.309,0.159,0.082,-0.076,1.015,-5.995,8.571,-0.905,-0.598,2.246,sad
0.92,500,2889,2097,641,2681,0,3031,3530,1493,2607,0,2439,2504,1725,1633,3089,1.525,3.273,9.215,0.210,0.070,-0.134,0.891,-6.057,8.145,-0.834,-0.780,2.535,sad
0.93,605,2957,2256,926,2674,0,3024,3540,1511,2597,0,2440,2532,1718,1499,3092,1.281,3.598,9.471,0.221,0.058,-0.140,0.084,-6.007,8.554,-0.722,-0.759,2.661,sad
0.94,770,3005,2384,1126,2638,0,3023,3537,1513,2660,0,2445,2533,1715,1615,3093,1.511,3.378,9.268,0.199,0.084,-0.110,-0.237,-6.163,8.631,-0.633,-0.731,2.717,sad
0.95,941,3038,2526,1421,2559,0,2973,3547,1515,2590,0,2445,2535,1715,1613,3115,1.362,3.457,9.263,0.180,0.141,-0.111,-0.982,-5.794,8.847,-0.442,-0.800,2.649,sad
0.96,1116,3066,2608,1691,2531,0,2998,3566,1563,2567,0,2472,2556,1686,1578,3115,1.367,3.496,9.177,0.137,0.148,-0.109,-0.843,-3.807,9.426,0.139,-0.819,2.766,sad
0.97,1258,3098,2680,1931,2480,0,2991,3568,1567,2568,0,2473,2557,1683,1581,3097,1.334,3.879,9.390,0.075,0.141,-0.057,-0.043,-2.959,9.720,0.453,-0.812,2.754,sad
0.98,1351,3114,2736,2127,2402,0,2977,3572,1589,2555,0,2483,2575,1675,1573,3102,1.269,3.615,9.383,0.046,0.109,-0.028,0.584,-1.544,11.408,0.958,-1.045,2.218,sad
0.99,1421,3119,2766,2259,2352,0,2959,3583,1567,2553,33,2483,2573,1655,1573,3095,1.307,3.577,9.199,0.039,0.105,-0.017,-0.091,-0.069,9.689,1.358,-1.639,1.181,sad
1.00,1514,3120,2806,2320,2355,0,2955,3583,1591,2555,0,2479,2572,1672,1573,3103,1.293,3.577,9.222,0.043,0.091,-0.011,-0.960,0.067,9.546,1.404,-1.644,1.102,sad
1.01,1529,3127,2832,2338,2353,0,2940,3553,1579,2539,0,2483,2575,1673,1563,3103,1.264,3.543,9.251,0.029,0.075,0.000,-1.429,-0.826,10.949,1.681,-1.583,1.188,sad
1.02,1582,3128,2852,2455,2345,0,2938,3602,1630,2553,48,2489,2577,1644,1573,3103,1.317,3.567,9.256,0.035,0.074,-0.002,-1.592,-1.171,10.848,1.952,-1.569,1.341,sad
1.03,1626,3112,2879,2496,2365,0,2930,3583,1592,2551,0,2484,2575,1663,1572,3101,1.214,3.579,9.246,0.019,0.073,-0.005,-1.575,-1.405,10.683,1.983,-1.605,1.400,sad
1.04,1648,3111,2889,2521,2368,0,2931,3600,1591,2550,53,2483,2477,1670,1573,3103,1.255,3.529,9.237,0.015,0.066,-0.005,-1.681,-1.870,10.518,1.917,-1.566,1.554,sad
1.05,1682,2930,2915,2445,2308,0,2939,3365,1592,2552,0,2485,2578,1672,1573,3102,1.195,3.491,9.244,0.018,0.040,0.002,-1.709,-2.665,10.247,1.891,-1.241,1.869,sad
1.06,1706,3110,2923,2559,2402,0,2940,3610,1587,2519,0,2480,2571,1673,1575,3101,1.192,3.551,9.239,0.023,0.032,-0.001,-1.980,-2.737,10.592,1.723,-1.106,2.006,sad
1.07,1717,3103,2929,2559,2399,0,2942,3611,1583,2550,0,2479,2571,1675,1576,3101,1.195,3.455,9.304,0.027,0.052,0.001,-2.670,-3.426,10.113,1.259,-1.313,2.160,sad
1.08,1745,2927,2958,2508,2323,0,2960,3393,1575,2565,0,2476,2569,1682,1579,3100,1.247,3.510,9.285,0.038,0.041,-0.007,-3.637,-3.960,8.442,0.717,-1.435,2.340,sad
1.09,1744,3120,2951,2607,2407,0,2942,3616,1580,2663,0,2479,2583,1681,1578,3107,1.128,3.508,9.270,0.044,0.037,-0.001,-3.773,-4.539,8.102,0.384,-1.586,2.448,sad
1.10,1755,3131,2961,2628,2416,0,2938,3621,1582,2556,0,2476,2571,1685,1577,3099,1.192,3.534,9.258,0.053,0.020,0.004,-2.155,-6.333,9.141,0.043,-1.488,2.407,sad
1.11,1785,2947,2992,2554,2333,0,2954,3389,1581,2555,0,2471,2570,1675,1575,3098,1.188,3.522,9.301,0.047,0.014,0.006,-0.634,-7.700,9.898,0.324,-1.205,1.836,sad
1.12,1809,3168,2990,2659,2386,0,2945,3618,1581,2555,0,2469,2555,1677,1579,3103,1.168,3.440,9.280,0.059,0.009,0.002,-0.242,-7.295,7.982,0.420,-0.853,1.430,sad
1.13,1855,3187,3019,2686,2384,0,2947,3611,1581,2555,0,2478,2543,1677,1577,3103,1.214,3.481,9.280,0.083,0.006,0.003,0.618,-7.159,5.693,0.132,-0.150,0.517,sad
1.14,1929,3227,3058,2602,2381,336,2951,3613,1580,2555,0,2478,2623,1677,1576,3103,1.209,3.524,9.258,0.082,0.017,0.005,1.180,-3.730,6.625,-0.462,0.605,-0.371,sad
1.15,1964,3228,3071,2730,2369,383,2922,3583,1581,2555,0,2477,2571,1674,1577,3098,1.231,3.484,9.270,0.093,0.017,0.002,4.204,-4.068,12.998,-0.399,0.213,-0.657,sad
1.16,1949,3209,3055,2749,2301,384,2805,3561,1581,2613,0,2477,2572,1673,1579,3101,1.334,3.508,9.222,0.099,0.008,-0.012,1.525,-0.048,7.501,-0.463,0.191,-0.517,sad
1.17,2096,3071,3145,2701,2396,98,2832,3309,1577,2554,0,2477,2569,1675,1575,3116,1.257,3.472,9.258,0.126,-0.004,-0.008,-1.056,-2.708,10.752,-0.571,0.413,0.044,sad
1.18,2149,3254,3149,2827,2406,0,2702,3440,1583,2555,0,2475,2573,1673,1577,3104,1.295,3.596,9.225,0.143,0.010,-0.017,-1.106,-2.878,10.135,-0.573,0.188,0.059,sad
1.19,2256,3255,3159,2840,2399,0,2493,3293,0,0,0,0,0,0,764,2253,1.322,3.572,9.232,0.169,0.017,-0.015,2.715,-6.235,13.915,-0.383,0.512,0.289,sad
1.20,2352,3113,3185,2763,2313,0,2228,2888,1589,2553,0,2483,2571,1677,1517,3099,1.149,3.596,9.311,0.188,0.003,-0.016,-0.840,-2.873,13.080,-0.572,0.248,0.246,sad
1.21,2447,3302,3177,2878,2295,0,1943,2871,1584,2553,0,2477,2569,1673,1574,3101,1.214,3.613,9.199,0.205,-0.005,-0.018,1.001,-2.334,8.461,-0.406,0.357,0.205,sad
1.22,2514,3306,3171,2883,2143,0,1535,2559,1587,2553,0,2477,2543,1695,1577,3099,1.245,3.694,9.258,0.220,-0.002,-0.032,-0.208,-2.682,10.331,-0.409,0.073,0.163,sad
1.23,2599,3120,3198,2818,1811,0,1004,1878,37,1,0,435,136,0,1598,3299,1.255,3.682,9.069,0.225,0.004,-0.034,1.065,-3.409,9.641,-0.293,-0.022,0.114,sad
1.24,2578,3264,3127,2827,1600,0,587,1315,45,53,5,502,159,0,1751,3376,1.204,3.802,9.122,0.207,0.001,-0.043,1.199,-3.505,9.606,-0.203,0.026,0.118,sad
1.25,2653,3299,3152,2789,1387,0,259,128,56,171,0,698,217,1,1815,3303,1.645,3.170,9.220,0.176,0.033,-0.035,1.137,-3.326,9.440,-0.133,0.038,0.084,sad
1.26,2690,3106,3159,2559,1154,0,89,0,1597,2551,51,2483,2572,1669,1575,3102,1.283,3.591,8.827,0.215,0.017,-0.014,1.207,-3.395,9.407,-0.128,0.058,0.030,sad
1.27,2655,3269,3135,2559,785,0,0,0,1597,2555,17,2491,2588,1703,1587,3112,1.326,3.874,9.072,0.304,0.002,0.017,1.144,-3.438,9.459,-0.115,0.045,0.026,sad
1.28,2629,3254,3119,2491,735,0,0,0,1608,2551,28,2601,2638,2084,2219,3548,0.874,4.008,9.290,0.247,0.060,-0.032,1.235,-3.515,9.467,-0.036,0.018,0.030,sad
1.29,2622,3089,3106,2285,416,0,0,0,1327,2697,179,2696,2701,2163,2311,3167,1.460,3.953,9.021,0.369,0.038,0.034,1.180,-3.428,9.402,-0.001,0.014,0.002,sad
1.30,2587,3160,3039,2223,503,0,0,0,24,501,458,1226,675,20,2503,3757,1.377,4.085,9.134,0.389,0.079,0.068,1.166,-3.373,9.369,0.003,-0.003,-0.008,sad
1.31,2558,3038,2965,2031,239,0,0,0,1607,2547,744,2479,2557,1671,1547,3089,1.583,3.979,8.770,0.354,0.184,0.068,1.257,-3.309,9.148,0.021,0.049,-0.013,sad
1.32,2512,2681,2861,1776,0,0,0,0,1604,2549,870,2483,2566,1700,1576,3101,1.618,4.144,9.187,0.409,0.283,0.068,1.269,-3.304,9.318,0.029,0.062,-0.005,sad
1.33,2371,2496,2623,1569,0,0,0,0,1603,2557,913,2479,2571,1677,1573,3100,1.860,4.092,9.124,0.560,0.327,0.073,1.202,-3.335,9.366,0.023,0.052,-0.011,sad
1.34,2093,1590,2134,1214,0,0,0,0,1607,2547,1090,2479,2569,1671,1573,3099,2.023,4.391,9.383,0.728,0.535,-0.030,1.202,-3.326,9.412,0.016,0.039,0.003,sad
1.35,1728,894,861,663,0,0,0,0,1595,2540,1113,2479,2571,1643,1575,3095,2.155,4.096,9.574,0.890,0.717,-0.213,1.231,-3.357,9.349,0.039,0.052,0.011,sad
1.36,1339,227,0,189,0,0,0,0,1618,2556,1225,2479,2571,1610,1573,3099,1.858,4.616,9.596,0.952,1.118,-0.705,1.264,-3.369,9.397,0.046,0.063,0.013,sad
1.37,687,69,0,0,0,0,0,0,1611,2552,1251,2483,2595,1672,1575,3101,1.963,4.973,11.985,0.727,1.278,-0.988,1.197,-3.359,9.388,0.031,0.065,0.013,sad
1.38,0,0,0,0,0,0,0,0,1611,2549,1287,2485,2571,1671,1576,3100,5.499,3.218,10.427,0.500,1.866,-0.719,1.195,-3.357,9.371,0.025,0.064,0.012,sad
1.39,0,0,0,0,0,0,0,0,1621,2580,1261,2479,2571,1676,1575,3099,7.705,3.366,9.871,0.359,0.848,1.143,1.267,-3.357,9.464,0.023,0.065,0.013,sad
1.40,0,0,0,0,0,0,0,0,1619,2549,1292,2471,2569,1692,1575,3099,4.494,1.800,8.382,0.210,0.983,2.000,1.300,-3.259,9.325,0.010,0.085,0.037,sad
1.41,0,0,0,0,0,0,0,0,1611,2541,1330,2583,2571,1669,1575,3096,2.535,1.793,9.287,0.037,0.770,2.164,1.252,-3.314,9.414,-0.007,0.084,0.037,sad
1.42,0,0,0,0,0,0,0,0,1611,2547,1297,2479,2571,1700,1575,3099,1.992,1.772,9.313,-0.163,0.747,2.297,1.231,-3.361,9.354,-0.007,0.093,0.033,sad
1.43,0,0,0,0,0,0,0,0,1611,2549,1300,2488,2571,1671,1574,3099,1.207,1.800,9.213,-0.304,0.758,2.198,1.207,-3.381,9.450,-0.000,0.112,0.044,sad
1.44,0,0,0,0,0,0,0,0,1611,2547,1282,2479,2569,1671,1577,3089,1.082,2.559,10.266,-0.602,0.596,1.910,1.168,-3.385,9.337,0.013,0.115,0.033,sad
1.45,0,0,0,0,0,0,0,0,1611,2547,1289,2479,2568,1669,1575,3101,1.645,2.837,10.343,-0.915,0.526,1.671,1.188,-3.345,9.424,0.023,0.111,0.029,sad
1.46,0,0,0,0,0,0,0,0,1612,2557,1292,2479,2567,1671,1576,3099,2.710,3.340,10.422,-1.135,0.425,1.621,1.123,-3.273,9.448,-0.010,0.118,0.044,sad
1.47,0,0,0,0,0,0,0,0,1611,2550,1292,2479,2571,1671,1575,3101,3.965,3.893,10.046,-1.276,0.422,1.839,1.022,-3.251,9.464,-0.029,0.117,0.062,sad
1.48,0,0,0,0,0,0,0,0,1683,2569,1289,2479,2570,1671,1577,3100,5.140,4.429,9.122,-1.239,0.451,2.277,1.137,-3.342,9.436,-0.035,0.121,0.070,sad
1.49,0,0,0,0,0,0,0,0,1608,2541,1133,2479,2571,1671,1573,3101,5.033,4.891,8.334,-0.980,0.436,2.815,1.128,-3.359,9.333,-0.032,0.150,0.070,sad
1.50,0,0,0,0,0,0,0,0,1688,2548,1277,2479,2569,1672,1543,3098,4.621,5.715,7.932,-0.645,0.319,3.345,1.089,-3.361,9.392,-0.007,0.131,0.061,sad
1.51,0,0,0,0,0,0,0,0,1592,2547,1364,2479,2571,1651,1581,3098,3.718,6.196,7.286,-0.201,0.442,3.692,1.111,-3.345,9.412,-0.005,0.127,0.051,sad
1.52,0,0,0,0,0,0,0,0,1611,2573,1266,2479,2570,1671,1577,3098,2.550,7.068,8.574,0.222,0.556,3.736,1.255,-3.292,9.402,-0.018,0.095,0.039,sad
1.53,0,0,0,0,0,0,0,0,1577,2539,1251,2483,2571,1671,1577,3101,2.004,7.954,9.208,0.175,0.624,3.580,1.235,-3.352,9.364,-0.005,0.074,0.034,sad
1.54,0,0,0,0,0,0,0,0,1613,2551,1266,2485,2573,1674,1572,3101,0.840,8.248,9.663,0.157,0.589,3.172,1.080,-3.397,9.412,0.011,0.065,0.030,sad
1.55,0,0,0,0,0,0,0,0,1619,2555,1282,2456,2581,1653,1581,3103,1.199,8.413,10.223,-0.260,0.507,2.672,1.329,-3.383,9.249,0.009,0.028,0.021,sad
1.56,0,0,0,0,0,0,0,0,1615,2541,1279,2486,2579,1672,1579,3103,0.651,7.451,8.909,-0.671,0.635,2.030,1.360,-3.433,9.404,0.011,-0.016,0.020,sad
1.57,0,0,0,0,0,0,0,0,1627,2547,1238,2483,2575,1669,1593,3101,1.729,6.450,7.001,-0.691,0.521,1.479,1.166,-3.393,9.407,0.003,-0.014,0.017,sad
1.58,0,0,0,0,0,0,0,0,1621,2542,1330,2491,2587,1691,1583,3109,3.680,6.534,5.787,-0.415,0.407,1.507,1.113,-3.349,9.402,0.013,0.016,0.024,sad
1.59,0,0,0,0,0,0,0,0,1613,2543,1292,2483,2571,1671,1573,3101,4.937,7.489,3.958,0.085,0.292,1.880,1.211,-3.388,9.507,0.017,0.048,0.024,sad
1.60,0,0,0,0,0,0,0,0,1615,2550,1302,2486,2577,1682,1578,3107,5.167,9.409,3.002,0.800,0.086,2.470,1.046,-3.349,9.419,0.019,0.058,0.019,sad
1.61,0,0,0,0,0,0,0,0,1617,950,1297,1333,2072,187,3609,4095,3.776,10.546,2.150,1.509,0.025,2.894,1.341,-3.302,9.364,0.012,0.002,0.045,sad
1.62,0,0,0,0,0,0,0,16,94,939,1860,1236,2152,26,3627,4095,4.063,8.751,5.662,1.585,0.365,2.811,1.276,-3.227,9.172,-0.015,0.002,0.044,sad
1.63,0,0,0,0,50,0,0,432,87,1006,1891,1245,2143,23,3619,4095,0.620,5.835,11.985,1.285,0.663,2.703,1.154,-3.297,9.471,-0.001,-0.001,0.036,sad
1.64,0,0,0,0,0,0,225,1232,100,1007,1773,1223,2101,30,3589,4095,-9.395,1.860,13.091,1.131,0.444,1.430,1.214,-3.359,9.364,-0.003,0.009,0.037,sad
1.65,0,0,0,0,215,0,395,1949,103,1011,1776,1228,1927,27,3539,4095,-8.662,3.917,13.589,0.686,0.085,-0.335,1.240,-3.397,9.445,0.004,0.013,0.042,sad
1.66,0,48,0,0,483,0,670,2288,85,969,1632,1129,1435,24,3405,4095,7.539,6.515,12.325,0.218,0.542,-0.617,1.199,-3.335,9.491,0.003,0.013,0.046,sad
1.67,0,382,0,0,642,0,1057,2287,111,1135,1568,1075,1324,29,3205,4095,-0.563,2.574,10.918,0.140,0.394,-0.284,1.288,-3.359,9.309,-0.009,0.007,0.055,sad
1.68,0,951,0,0,871,0,1358,2639,123,1075,1581,1173,1256,31,3052,4095,3.735,3.318,8.145,0.100,0.496,-0.258,1.209,-3.333,9.388,-0.021,0.011,0.054,sad
1.69,0,1391,0,0,1200,0,1757,2736,181,991,1469,1299,1101,40,2486,4095,2.040,2.610,8.626,0.127,0.495,-0.231,1.305,-3.369,9.412,-0.014,0.028,0.053,sad
1.70,0,1680,0,0,1232,0,1970,2624,202,995,145,1253,813,17,2163,4094,1.322,3.486,10.262,0.296,0.715,-0.282,1.255,-3.440,9.361,-0.017,0.029,0.038,sad
1.71,0,2192,14,0,1674,0,2193,2939,163,941,53,1273,749,11,1943,4044,1.611,3.634,9.531,0.139,0.187,-0.070,1.221,-3.421,9.522,-0.016,0.033,0.037,sad
1.72,0,2413,228,0,1786,0,2328,3049,133,813,2,1129,696,3,1605,3995,1.551,3.455,9.488,0.090,0.015,-0.050,1.180,-3.390,9.328,-0.023,0.030,0.031,sad
1.73,0,2342,400,0,1838,0,2255,3011,152,631,5,1049,495,3,1459,3935,1.487,3.218,9.357,0.064,-0.022,-0.047,1.164,-3.412,9.347,-0.021,0.024,0.024,sad
1.74,0,2643,597,0,2131,0,2590,3238,158,623,0,915,457,4,1263,3912,1.549,3.412,9.354,0.072,-0.043,-0.027,1.144,-3.457,9.412,-0.020,0.013,0.011,sad
1.75,0,2692,736,0,2183,0,2682,3314,153,390,5,925,192,5,887,3747,1.539,3.666,9.495,0.015,0.023,-0.001,1.178,-3.407,9.404,-0.041,0.001,0.003,sad
1.76,0,2545,859,0,2277,0,2783,3163,117,91,2,741,156,2,925,3511,1.650,3.249,9.254,0.031,0.021,0.005,1.324,-3.455,9.261,-0.049,0.012,0.011,sad
1.77,0,2789,965,0,2446,0,2832,3427,78,0,0,616,35,0,749,3172,1.535,3.369,9.347,0.015,0.004,-0.006,1.283,-3.371,9.330,-0.037,0.019,0.008,sad
1.78,0,2831,1072,0,2494,0,2917,3472,158,0,5,483,43,0,735,3103,1.494,3.268,9.357,0.007,0.002,0.003,1.180,-3.579,9.457,-0.038,0.041,0.018,sad
1.79,0,2673,1147,0,2459,0,2955,3302,199,0,0,233,0,0,231,2733,1.700,3.184,9.215,0.012,0.035,-0.002,0.539,-2.907,10.003,0.074,-0.003,0.091,sad
1.80,0,2884,1231,0,2559,0,3003,3536,207,0,0,99,24,0,10,2671,1.640,3.057,9.124,0.062,0.068,-0.065,-2.998,-1.695,9.886,0.198,-0.067,0.668,sad
1.81,0,2931,1417,68,2497,0,3024,3568,1589,2553,0,2483,2577,1674,1575,3117,1.772,3.000,9.029,0.145,0.107,-0.135,-4.678,-3.280,10.903,0.794,-0.927,3.546,sad
1.82,112,2805,1759,338,2434,0,3025,3392,1560,2462,0,2471,2552,1757,1589,3096,1.202,3.165,9.088,0.157,0.176,-0.119,0.342,-5.143,9.622,1.199,-0.329,4.366,sad
1.83,166,3007,2015,497,2327,0,2997,3623,1587,2553,0,2483,2572,1671,1577,3103,1.513,3.366,9.237,0.132,0.127,-0.057,5.090,-6.096,9.479,1.081,0.427,4.366,sad
1.84,272,3022,2176,711,2368,0,2994,3609,1636,2551,17,2484,2577,1670,1571,3080,1.343,3.431,9.412,0.115,0.140,-0.042,3.378,-4.788,7.628,0.518,0.209,2.821,sad
1.85,358,2851,2333,903,2294,0,3003,3429,0,0,0,0,0,0,0,1658,1.298,3.426,9.301,0.099,0.119,-0.059,0.699,-2.507,9.210,0.437,-0.943,2.217,sad
1.86,405,3044,2400,1203,2364,0,2992,3650,3,12,0,0,0,0,0,703,1.379,3.354,9.249,0.099,0.088,-0.054,1.489,-1.982,8.236,0.145,-0.948,1.866,sad
1.87,435,3071,2491,1432,2384,0,2981,3655,1496,2585,0,2449,2533,1709,1607,3094,1.322,3.400,9.227,0.087,0.088,-0.026,-1.518,-2.729,11.933,0.233,-0.453,1.376,sad
1.88,534,2911,2608,1520,2374,0,2992,3422,1613,2551,0,2483,2573,1672,1519,3101,1.305,3.309,9.242,0.094,0.099,-0.040,-4.161,-1.733,10.204,0.444,-0.296,1.455,sad
1.89,593,3105,2669,1818,2445,0,2966,3650,1589,2555,0,2480,2573,1647,1571,3102,1.398,3.385,9.273,0.122,0.079,-0.065,-4.317,-2.047,10.149,0.498,-0.348,1.706,sad
1.90,662,3127,2736,1984,2434,0,2973,3655,1589,2553,0,2483,2573,1671,1573,3102,1.267,3.584,9.337,0.114,0.078,-0.064,-3.735,-2.466,9.735,0.578,-0.267,2.107,sad
1.91,676,2953,2819,2042,2351,0,2989,3440,1590,2552,0,2484,2588,1675,1574,3103,1.221,3.496,9.316,0.097,0.069,-0.050,-3.364,-2.753,9.493,0.491,-0.058,2.413,sad
1.92,715,3161,2865,2165,2429,0,2965,3609,1543,2551,0,2483,2575,1723,1573,3100,1.355,3.500,9.237,0.087,0.079,-0.040,-2.933,-3.112,9.534,0.456,-0.013,2.560,sad
1.93,752,3165,2903,2286,2480,0,2962,3655,1590,2553,0,2483,2573,1673,1573,3101,1.262,3.500,9.256,0.098,0.054,-0.038,-2.073,-3.929,9.311,0.418,-0.078,2.827,sad
1.94,889,2961,2962,2276,2306,0,2928,3375,1591,2551,0,2483,2572,1672,1525,3103,1.324,3.486,9.258,0.114,0.033,-0.034,-1.827,-4.355,8.270,0.252,-0.556,3.145,sad
1.95,1103,3198,2978,2445,2474,0,2932,3632,1567,2583,0,2484,2575,1673,1580,3102,1.231,3.546,9.287,0.112,0.055,-0.031,-1.123,-5.109,8.839,0.219,-0.696,3.331,sad
1.96,1281,3184,2957,2439,2446,0,2905,3582,1591,2568,0,2485,2573,1672,1572,3103,1.257,3.543,9.239,0.108,0.050,-0.021,-1.353,-5.883,9.388,0.501,-0.660,3.707,sad
1.97,1522,3048,3039,2481,2435,0,2891,3406,1591,2552,0,2485,2575,1669,1575,3109,1.183,3.582,9.263,0.101,0.047,-0.015,-0.883,-6.340,7.628,0.452,-0.757,4.102,sad
1.98,1709,3217,3063,2674,2384,0,2862,3600,1589,2551,0,2478,2575,1669,1548,3103,1.202,3.587,9.201,0.106,0.052,-0.009,-0.165,-6.943,7.570,0.387,-0.808,4.203,sad
1.99,1882,3216,3089,2738,2302,0,2839,3583,1591,2551,0,2459,2612,1662,1573,3103,1.207,3.553,9.251,0.097,0.058,-0.014,1.427,-7.029,6.883,0.197,-0.994,4.023,sad
2.00,2038,3050,3135,2665,2161,93,2832,3373,1591,2551,0,2488,2575,1672,1573,3102,1.161,3.589,9.199,0.099,0.065,-0.019,1.271,-5.432,7.942,0.034,-0.878,3.535,sad
2.01,2173,3211,3149,2826,2128,176,2759,3559,1599,2552,0,2475,2635,1672,1571,3097,1.144,3.582,9.203,0.104,0.075,-0.014,2.152,-3.840,9.802,0.102,-0.859,3.260,sad
2.02,2284,3184,3175,2870,2109,272,2682,3547,1590,2552,0,2484,2589,1672,1573,3102,1.259,3.630,9.292,0.127,0.085,-0.023,5.574,2.480,13.396,0.177,-0.507,2.604,sad
2.03,2385,3011,3216,2800,2110,0,2555,3302,1589,2553,0,2485,2575,1674,1574,3103,1.159,3.644,9.232,0.130,0.099,-0.027,13.985,-1.755,5.502,-0.320,-0.392,0.908,sad
2.04,2449,3159,3221,2955,2033,0,2352,3462,1591,2551,0,2487,2579,1671,1582,3103,1.135,3.704,9.249,0.132,0.106,-0.022,11.021,-2.526,7.728,-0.482,-0.010,-0.016,sad
2.05,2530,3142,3232,2995,1947,0,2160,3403,1591,2551,0,2483,2571,1669,1572,3101,1.094,3.757,9.203,0.121,0.108,-0.029,-1.044,-1.094,8.815,-0.670,0.382,-0.321,sad
2.06,2619,3081,3258,2817,1873,0,1968,3223,1565,2569,0,2471,2555,1685,1587,3097,1.116,3.651,9.136,0.119,0.107,-0.037,-0.634,-2.519,10.235,-0.729,0.450,-0.022,sad
2.07,2665,3071,3263,3053,1781,0,1664,3284,0,39,0,0,0,0,24,2397,1.099,3.747,9.256,0.124,0.102,-0.048,-19.613,10.250,19.613,-1.316,-0.955,0.295,sad
2.08,2681,3043,3179,3071,1600,0,1278,3211,0,0,0,9,0,0,187,2596,1.058,3.802,9.194,0.132,0.124,-0.043,1.925,-3.735,9.931,-0.958,-0.869,-0.055,sad
2.09,2800,2869,3270,2986,1377,0,1015,2918,1595,2551,0,2430,2579,1671,1573,3103,0.946,3.845,9.237,0.127,0.139,-0.046,1.322,-3.405,9.986,-0.838,-0.437,0.069,sad
2.10,2797,2991,3239,3114,1211,0,789,2983,1592,2543,0,2484,2573,1672,1573,3101,1.027,3.809,9.199,0.122,0.149,-0.042,0.922,-3.598,9.668,-0.728,-0.213,0.121,sad
2.11,2840,2919,3216,3098,880,0,461,2832,1593,2557,17,2483,2573,1671,1573,3101,1.051,3.776,9.175,0.125,0.163,-0.055,1.152,-3.608,9.603,-0.582,-0.037,0.147,sad
2.12,2882,2736,3184,3018,656,0,285,2423,25,2,10,933,45,0,757,3223,0.970,3.826,9.179,0.137,0.172,-0.053,0.924,-3.821,9.577,-0.369,-0.107,0.068,sad
2.13,2833,2863,3149,3136,510,0,151,2425,99,0,0,1060,1,0,821,3271,0.917,3.821,9.189,0.122,0.161,-0.060,0.833,-3.721,9.517,-0.247,-0.075,0.066,sad
2.14,2832,2815,3112,3115,201,0,0,2081,1607,2553,2,2487,2577,1675,1559,3103,0.910,3.768,9.134,0.139,0.140,-0.057,0.785,-3.646,9.452,-0.132,-0.007,0.013,sad
2.15,2809,2544,3088,2998,0,0,0,1511,1595,2551,2,2483,2587,1671,1573,2991,0.821,3.898,9.112,0.155,0.141,-0.050,0.757,-3.582,9.383,-0.056,-0.028,-0.033,sad
2.16,2754,2635,3035,3062,0,0,0,1187,1595,2551,7,2483,2575,1671,1573,3101,0.996,3.979,9.227,0.133,0.160,-0.062,0.860,-3.587,9.400,-0.060,-0.032,-0.046,sad
2.17,2675,2483,2978,3007,0,0,0,747,123,7,17,1387,89,0,1268,3413,0.862,4.015,9.158,0.138,0.196,-0.059,0.931,-3.606,9.373,-0.057,-0.068,-0.022,sad
2.18,2640,2119,2926,2796,0,0,0,247,165,1,2,1487,93,0,1520,3500,0.579,4.108,9.105,0.097,0.190,-0.058,0.912,-3.644,9.385,-0.013,-0.049,-0.014,sad
2.19,2559,2026,2825,2735,0,0,0,0,157,0,15,1523,88,0,1727,3547,0.546,3.864,8.969,0.106,0.203,-0.051,0.867,-3.620,9.342,0.004,-0.052,-0.019,sad
2.20,2513,1753,2765,2539,0,0,0,0,139,156,7,1657,177,24,1973,3735,0.907,3.946,9.139,0.113,0.205,-0.030,0.931,-3.548,9.349,0.019,-0.043,-0.025,sad
2.21,2453,1313,2687,2382,0,0,0,0,151,265,10,1773,234,3,2143,3829,0.606,4.017,9.093,0.127,0.245,0.002,0.903,-3.608,9.400,0.023,-0.054,-0.029,sad
2.22,2381,1301,2559,2374,0,0,0,0,120,284,130,1829,269,12,2193,3833,0.699,3.950,9.239,0.161,0.338,0.053,0.934,-3.531,9.416,0.028,-0.020,-0.014,sad
2.23,2352,1129,2322,2275,0,0,0,0,125,277,120,1840,419,12,2341,3815,1.154,4.068,9.395,0.196,0.416,-0.020,1.001,-3.498,9.316,0.020,-0.018,-0.003,sad
2.24,2326,741,1879,2112,0,0,0,0,632,2469,151,2037,2589,2059,2229,3015,0.761,4.290,9.122,0.229,0.587,-0.052,0.907,-3.594,9.378,0.018,-0.028,0.005,sad
2.25,2217,299,1328,1992,0,0,0,0,127,438,478,1815,547,31,2566,3683,1.080,4.324,9.495,0.225,0.843,-0.105,1.018,-3.563,9.364,0.009,-0.011,0.009,sad
2.26,2089,143,624,1911,0,0,0,0,91,415,238,1750,540,73,2514,3409,0.594,4.357,9.301,0.240,0.919,-0.136,1.070,-3.524,9.333,0.008,0.013,0.009,sad
2.27,1862,0,178,1471,0,0,0,0,179,439,1138,1973,713,43,2793,3743,0.381,4.106,9.120,0.276,1.035,-0.250,1.020,-3.505,9.294,-0.005,0.056,0.016,sad
2.28,1520,0,0,1135,0,0,0,0,1605,2568,970,2483,2572,1675,1571,3103,1.001,4.178,9.476,0.322,1.357,-0.404,0.843,-3.548,9.232,0.016,0.153,0.012,sad
2.29,1170,0,0,662,0,0,0,0,141,438,1658,2167,677,38,2963,4021,1.477,4.211,10.008,0.341,1.961,-0.630,0.934,-3.515,9.409,-0.006,0.175,0.047,sad
2.30,599,0,0,182,0,0,0,0,253,455,1870,2286,596,45,2989,4093,0.927,4.520,9.443,0.180,2.812,-0.628,0.931,-3.563,9.354,-0.010,0.132,0.046,sad
2.31,59,0,0,0,0,0,0,0,239,426,1963,2347,553,45,3020,4095,-0.891,4.405,10.070,-0.182,3.238,-0.222,1.041,-3.431,9.218,-0.020,0.078,0.034,sad
2.32,0,0,0,0,0,0,0,0,249,361,1753,2345,612,69,2848,3707,11.006,8.107,8.830,-0.005,2.112,2.823,0.934,-3.634,9.376,-0.008,0.061,0.030,sad
2.33,0,0,0,0,0,0,0,0,1805,2597,1440,2521,2643,1821,1629,3123,6.390,6.960,10.503,-0.383,2.045,4.056,0.996,-3.579,9.373,0.002,0.083,0.013,sad
2.34,0,0,0,0,0,0,0,0,381,619,1957,2591,729,53,2981,3852,1.166,6.280,7.920,-0.591,1.812,4.986,0.982,-3.591,9.325,0.016,0.000,0.017,sad
2.35,0,0,0,0,0,0,0,0,454,666,2060,2699,791,53,3087,4029,-1.262,4.911,7.714,-0.596,1.597,4.917,0.953,-3.639,9.371,0.012,-0.034,0.005,sad
2.36,0,0,0,0,0,0,0,0,411,767,2078,2745,867,83,3149,4076,-3.017,4.530,7.966,-0.640,1.293,4.547,0.915,-3.656,9.421,0.039,-0.054,-0.003,sad
2.37,0,0,0,0,0,0,0,0,517,829,2096,2779,988,47,3174,4086,-3.247,3.745,8.837,-0.492,0.989,4.104,1.053,-3.627,9.512,0.037,-0.072,-0.016,sad
2.38,0,0,0,0,0,0,0,0,569,853,2088,2778,1115,50,3193,4073,-3.206,2.928,10.302,-0.541,0.803,3.603,0.958,-3.553,9.333,0.036,-0.138,-0.024,sad
2.39,0,0,0,0,0,0,0,0,651,1032,2096,2786,1311,55,3219,4044,-2.401,2.696,9.500,-0.801,0.608,2.663,0.654,-3.543,9.512,0.049,-0.128,-0.028,sad
2.40,0,0,0,0,0,0,0,0,659,1165,2096,2787,1545,50,3253,3987,-1.697,2.531,9.361,-0.868,0.316,1.652,0.950,-3.613,9.337,0.032,-0.002,0.011,sad
2.41,0,0,0,0,0,0,0,0,687,1176,2103,2840,1681,51,3288,4037,0.019,2.801,10.127,-1.048,0.098,0.930,0.912,-3.558,9.309,0.034,0.006,0.018,sad
2.42,0,0,0,0,0,0,0,0,669,1191,2116,2807,1789,31,3351,4028,1.199,2.856,10.096,-1.114,-0.025,0.806,0.941,-3.496,9.330,0.030,-0.004,0.013,sad
2.43,0,0,0,0,0,0,0,0,681,1161,2108,2827,1897,51,3317,4024,2.866,3.354,9.677,-1.206,-0.267,0.926,1.013,-3.546,9.369,0.029,-0.019,0.012,sad
2.44,0,0,0,0,0,0,0,0,671,1187,2152,2829,2031,44,3341,3983,3.050,3.292,9.021,-1.132,-0.350,1.285,0.862,-3.620,9.534,0.005,-0.072,0.003,sad
2.45,0,0,0,0,0,0,0,0,763,1270,2162,2848,2207,49,3353,3977,2.308,3.577,9.706,-1.044,-0.514,1.604,1.063,-3.443,9.251,-0.018,-0.078,0.007,sad
2.46,0,0,0,0,0,0,0,0,839,1327,2178,2827,2285,51,3369,3959,1.602,3.603,10.173,-1.025,-0.458,1.787,1.087,-3.527,9.357,-0.006,-0.059,0.009,sad
2.47,0,0,0,0,0,0,0,0,872,1401,2195,2823,2392,45,3384,3913,1.250,2.921,8.657,-0.840,-0.218,1.891,1.101,-3.531,9.369,0.002,-0.065,0.010,sad
2.48,0,0,0,0,0,0,0,0,917,1673,2178,2791,2484,49,3397,3860,0.792,3.366,8.617,-0.491,-0.225,1.804,1.085,-3.546,9.373,0.004,-0.094,0.005,sad
2.49,0,0,0,0,0,0,0,0,948,1672,2060,2786,2530,7,3391,3819,0.907,4.721,10.293,-0.270,-0.192,1.863,1.130,-3.527,9.318,-0.005,-0.052,0.009,sad
2.50,0,0,0,0,0,0,0,0,955,1755,2190,2792,2616,50,3406,3775,0.613,5.954,11.349,-0.298,-0.373,1.907,1.159,-3.591,9.313,0.021,-0.005,0.019,sad
2.51,0,0,0,0,0,0,0,0,968,1823,2193,2774,2668,49,3501,3733,-0.069,6.012,10.336,-0.317,-0.706,1.926,1.159,-3.560,9.273,0.023,-0.011,0.022,sad
2.52,0,0,0,0,0,0,0,0,995,1806,2193,2751,2692,47,3415,3723,0.589,7.417,11.241,-0.396,-0.616,1.785,1.159,-3.551,9.378,0.021,-0.008,0.011,sad
2.53,0,0,0,0,0,0,0,0,955,1843,2239,2727,2720,43,3383,3718,-0.316,8.475,11.791,-0.951,-0.186,1.600,1.022,-3.524,9.359,0.024,-0.020,0.023,sad
2.54,0,0,0,0,0,0,0,0,1007,1962,2126,2649,2781,47,3307,3704,-1.583,7.997,9.725,-1.290,-0.177,1.411,1.101,-3.555,9.287,0.031,-0.008,0.024,sad
2.55,0,0,0,0,0,0,0,0,955,1813,2096,2519,2585,47,3051,3429,-1.719,7.298,6.950,-1.302,-0.262,1.110,1.008,-3.433,9.311,0.037,0.001,0.022,sad
2.56,0,0,0,0,0,0,0,0,851,1873,2027,2453,2579,53,3045,3432,-1.994,6.955,5.183,-0.974,-0.415,0.762,1.104,-3.529,9.349,0.021,-0.010,0.024,sad
2.57,0,0,0,0,0,0,0,0,917,2060,2183,2587,2837,54,3353,3785,-1.580,7.470,5.136,-0.555,-0.460,0.475,1.314,-3.618,9.292,0.019,0.025,0.032,sad
2.58,0,0,0,0,0,0,0,0,891,2030,2203,2526,2856,48,3352,3811,-1.123,7.724,5.255,-0.244,-0.220,0.286,1.223,-3.445,9.285,0.013,0.003,0.028,sad
2.59,0,0,0,0,0,0,0,0,995,2084,2208,2541,2895,47,3319,3805,-0.994,7.420,4.930,0.110,-0.093,0.214,1.211,-3.503,9.318,0.011,0.013,0.028,sad
2.60,0,0,0,0,0,0,0,0,1021,2095,2221,2535,2939,47,3298,3805,5.351,8.971,4.652,0.645,0.373,0.804,1.247,-3.476,9.304,0.009,0.022,0.030,sad
2.61,0,0,0,0,0,0,0,0,1275,2073,2229,2503,2905,51,3259,3801,-0.148,2.844,11.595,0.446,1.086,0.364,1.247,-3.366,9.206,0.008,0.021,0.033,sad
2.62,0,0,0,0,0,0,0,0,1447,2196,2229,2547,2907,53,3123,3797,1.073,-0.139,12.675,0.309,0.458,0.503,1.274,-3.457,9.345,-0.002,0.038,0.029,sad
2.63,0,0,0,0,0,0,0,454,1465,2189,2198,2612,2791,47,3053,3759,-3.840,-0.397,7.721,0.706,-0.001,0.236,1.267,-3.522,9.304,0.001,0.054,0.027,sad
2.64,0,0,0,0,0,0,0,1375,1828,2281,2249,2726,2597,47,2703,3721,-1.743,1.659,10.731,0.956,-0.383,-0.169,1.173,-3.424,9.220,-0.008,0.050,0.028,sad
2.65,0,0,0,0,0,0,178,1824,2063,2365,2265,2845,2293,47,2453,3647,2.473,3.948,10.894,0.892,-0.872,-0.053,1.240,-3.512,9.340,-0.038,0.072,0.043,sad
2.66,0,0,0,0,0,0,476,2432,2141,2365,2270,2933,2221,47,2155,3611,3.675,2.337,9.311,0.754,-0.706,-0.149,1.149,-3.613,9.323,-0.046,0.079,0.039,sad
2.67,0,0,0,0,0,0,838,2677,2333,2388,2262,3056,1980,48,1610,3449,3.843,2.854,9.318,0.679,-0.517,-0.136,1.197,-3.486,9.383,-0.071,0.098,0.028,sad
2.68,0,0,0,0,59,0,1040,2657,2480,2379,2265,3155,1707,47,1255,3124,2.998,2.617,8.950,0.685,-0.296,-0.061,1.161,-3.555,9.392,-0.113,0.138,0.029,sad
2.69,0,0,0,0,461,0,1378,2955,2531,2275,2270,3208,1485,47,969,2939,3.462,6.170,12.361,0.505,0.425,-0.483,1.207,-3.718,9.282,-0.122,0.152,0.031,sad
2.70,0,144,0,0,753,0,1787,3013,2589,2015,2265,3333,1116,47,623,2589,2.495,2.193,8.902,0.416,0.362,-0.269,1.015,-3.610,9.261,-0.160,0.141,0.023,sad
2.71,0,534,0,0,812,0,2060,2942,2708,1980,2265,3383,647,26,85,2175,1.609,3.589,9.900,0.279,0.254,-0.165,1.092,-4.549,9.261,-0.177,0.139,0.034,sad
2.72,0,966,0,0,983,0,2097,3215,2760,1927,2270,3432,569,3,3,2023,2.310,3.395,9.601,0.154,0.193,-0.113,0.668,-3.622,9.541,-0.223,0.128,0.052,sad
2.73,0,1283,0,0,1246,0,2255,3266,2837,1752,2249,3433,207,5,0,2023,1.829,3.345,9.620,0.099,0.140,-0.068,0.910,-3.587,9.383,-0.409,0.234,-0.112,sad
2.74,0,1299,0,0,1303,0,2367,3071,2895,1655,2234,3429,21,2,0,1752,2.006,3.103,9.414,0.076,0.132,-0.067,0.962,-3.785,9.297,-0.469,0.171,-0.158,sad
2.75,0,1493,0,0,1583,0,2413,3321,2923,1512,2252,3515,25,1,2,1807,2.224,3.050,9.390,0.083,0.155,-0.053,1.073,-3.804,9.244,-0.530,0.169,-0.183,sad
2.76,0,1511,0,0,1643,0,2487,3330,3021,1373,2362,3551,0,26,0,1341,1.932,3.072,9.337,0.058,0.116,-0.016,1.034,-3.893,9.301,-0.662,0.186,-0.211,sad
2.77,0,1424,0,0,1726,0,2559,3148,3061,1191,2311,3533,0,0,0,1293,1.841,3.024,9.268,0.066,0.160,-0.044,0.876,-4.319,9.203,-0.688,0.232,-0.186,sad
2.78,0,1667,0,0,1907,0,2627,3377,3023,1115,2267,3526,0,2,0,1177,1.994,2.849,8.861,0.086,0.293,-0.087,1.305,-4.108,8.796,-0.768,0.229,-0.181,sad
2.79,0,1778,0,0,2003,0,2670,3405,3001,850,2288,3465,0,0,1,1125,2.085,2.840,8.756,0.132,0.460,-0.169,1.003,-4.788,9.093,-0.709,0.285,-0.153,sad
2.80,0,1825,0,0,2032,0,2677,3197,1573,2587,1584,2447,2533,1711,1613,3089,1.693,3.007,9.191,0.131,0.523,-0.187,0.948,-4.820,8.847,-0.756,0.399,-0.141,sad
2.81,10,2254,43,0,2144,0,2675,3456,1582,2591,1594,2451,2532,1714,1619,3093,1.671,3.287,9.120,0.128,0.404,-0.134,0.977,-4.843,8.832,-0.775,0.437,-0.110,sad
2.82,131,2465,480,0,2295,0,2709,3476,1555,2603,1589,2441,2527,1724,1626,3083,1.518,3.057,9.431,0.053,0.156,-0.068,0.876,-5.025,8.653,-0.873,0.468,-0.044,sad
2.83,259,2399,1093,11,2270,0,2763,3276,1529,2603,1522,2429,2516,1735,1629,3087,1.389,3.103,9.431,0.137,0.091,-0.071,0.663,-5.176,8.595,-0.947,0.478,0.072,sad
2.84,390,2701,1578,242,2407,0,2809,3504,1531,2596,1412,2431,2523,1725,1627,3081,1.405,3.421,9.682,0.134,0.021,-0.044,0.587,-5.277,8.547,-1.047,0.415,0.164,sad
2.85,511,2751,1832,421,2496,0,2858,3506,1519,2591,1305,2393,2525,1719,1623,3087,1.448,3.443,9.476,0.099,-0.051,-0.002,0.187,-5.492,8.351,-1.292,0.029,0.514,sad
2.86,511,2607,1961,368,2475,0,2928,3312,1522,2587,0,2441,2531,1711,1612,3087,1.128,3.527,10.269,0.145,-0.191,0.000,0.697,-5.868,8.461,-1.472,-0.440,0.966,sad
2.87,510,2877,1993,284,2672,0,2982,3519,1523,2589,17,2449,2535,1707,1611,3089,1.664,3.251,9.203,0.122,-0.153,0.009,0.816,-6.395,8.976,-1.514,-0.586,1.153,sad
2.88,505,2911,2032,183,2751,0,3051,3531,1524,2585,0,2462,2537,1707,1609,3091,1.690,3.211,9.069,0.080,-0.078,0.023,1.350,-7.336,9.546,-1.606,-0.479,1.582,sad
2.89,464,2768,2063,232,2763,0,3088,3317,1559,2581,97,2451,2536,1707,1512,3091,1.738,3.318,9.239,0.055,-0.025,-0.002,0.986,-7.379,8.602,-1.744,-0.607,1.993,sad
2.90,489,2992,2126,267,2909,0,3117,3514,1525,2586,0,2457,2536,1708,1608,3091,1.800,3.330,9.088,0.060,0.025,-0.014,0.591,-7.434,7.982,-1.739,-0.747,2.151,sad
2.91,540,2994,2259,471,2896,0,3136,3503,1527,2583,0,2453,2540,1703,1605,3093,1.769,3.306,9.187,0.042,0.040,-0.013,0.321,-7.717,8.028,-1.239,-0.478,2.411,sad
2.92,496,2895,2384,612,2883,0,3159,3314,1579,2519,0,2479,2556,1678,1577,3101,1.504,3.395,9.376,0.063,0.049,-0.004,1.358,-4.781,9.110,0.030,-0.284,2.671,sad
2.93,445,3127,2480,782,3055,0,3169,3493,1591,2551,0,2483,2577,1672,1571,3103,1.695,3.340,9.232,0.083,0.047,-0.009,1.207,-3.014,9.543,0.610,-0.158,2.581,sad
2.94,594,3165,2558,960,3098,0,3184,3482,1589,2522,0,2483,2577,1673,1575,3101,1.611,3.259,9.323,0.074,0.065,-0.015,3.297,-2.076,9.773,1.226,-0.587,1.383,sad
2.95,528,3165,2426,1075,3027,0,2971,3473,1589,2555,0,2485,2579,1672,1573,3103,1.642,3.299,9.227,0.071,0.078,-0.027,2.207,-2.490,8.475,1.553,-0.620,0.699,sad
2.96,625,3253,2702,1237,3146,0,3175,3455,1589,2551,0,2484,2573,1693,1573,3103,1.650,3.383,9.220,0.087,0.073,-0.031,2.016,-2.478,8.696,1.673,-0.619,0.448,sad
2.97,626,3249,2752,1409,3163,0,3185,3456,1592,2601,0,2485,2575,1671,1567,3103,1.501,3.342,9.390,0.082,0.055,-0.027,1.262,-2.387,8.868,1.813,-0.615,0.041,sad
2.98,656,3104,2804,1455,3092,0,3201,3248,1591,2552,0,2487,2577,1673,1519,3103,1.571,3.369,9.280,0.075,0.050,-0.026,1.037,-2.602,9.620,1.913,-0.683,-0.357,sad
2.99,691,3284,2825,1440,3184,0,3182,3358,1589,2553,0,2486,2570,1673,1573,3103,1.590,3.340,9.309,0.086,0.040,-0.031,0.747,-2.799,9.998,1.953,-0.714,-0.564,sad
3.00,731,3344,2877,1631,3210,0,3184,3450,1592,2551,0,2485,2578,1670,1573,3103,1.568,3.428,9.268,0.088,0.038,-0.037,-0.053,-2.705,10.197,2.043,-0.750,-0.823,sad
3.01,736,3308,2917,1527,3248,0,3199,3270,1593,2553,0,2486,2579,1671,1573,3101,1.650,3.402,9.208,0.079,0.040,-0.034,-0.508,-2.854,10.930,2.041,-0.863,-0.892,sad
3.02,730,3380,2911,1717,3202,0,3142,3422,1592,2553,0,2468,2621,1671,1573,3103,1.463,3.424,9.416,0.057,0.033,-0.026,-0.690,-2.945,11.140,2.016,-0.924,-0.884,sad
3.03,744,3411,2961,1777,3228,0,3178,3468,1593,2551,0,2467,2579,1669,1571,3173,1.551,3.407,9.261,0.054,0.030,-0.010,-0.591,-2.928,10.594,1.902,-0.925,-0.788,sad
3.04,752,3280,3007,1703,3248,0,3201,3277,1592,2552,0,2485,2577,1629,1573,3107,1.602,3.326,9.306,0.070,0.027,-0.021,-0.340,-2.828,10.048,1.498,-0.743,-0.800,sad
3.05,727,3447,3008,1813,3243,0,3182,3466,1590,2552,0,2460,2575,1673,1572,3103,1.595,3.419,9.251,0.084,0.018,-0.021,-0.321,-3.220,10.262,1.205,-0.803,-0.843,sad
3.06,752,3466,3031,1838,3254,0,3171,3458,1583,2551,0,2482,2573,1643,1573,3100,1.544,3.417,9.256,0.101,0.022,-0.023,0.998,-5.866,13.214,1.072,-0.668,-1.041,sad
3.07,820,3284,3056,1776,3209,0,3185,3225,1589,2552,0,2485,2577,1673,1573,3103,1.616,3.462,9.215,0.130,0.007,-0.048,-0.486,-6.639,12.711,1.262,-0.767,-1.180,sad
3.08,887,3489,3088,1839,3283,0,3139,3406,1591,2551,0,2503,2577,1671,1573,3094,1.633,3.275,9.158,0.180,-0.028,-0.057,-0.407,-6.812,11.760,1.265,-0.820,-1.146,sad
3.09,966,3454,3071,1880,3253,0,3049,3326,1591,2552,0,2483,2636,1673,1573,3098,1.638,3.433,9.215,0.217,-0.032,-0.078,-0.709,-7.187,9.412,1.222,-0.716,-0.997,sad
3.10,1120,3339,3185,1983,3231,0,3134,3093,1591,2553,0,2458,2540,1671,1573,3103,1.604,3.519,9.227,0.233,-0.047,-0.100,-1.798,-8.408,8.789,1.115,-0.609,-0.674,sad
3.11,1264,3562,3207,2140,3330,0,3071,3184,1597,2587,0,2485,2577,1675,1573,3103,1.642,3.613,9.189,0.271,-0.056,-0.113,-2.411,-9.002,8.430,1.185,-0.540,-0.418,sad
3.12,1424,3529,3254,2266,3260,0,3031,2950,1623,2551,2,2483,2578,1683,1573,3103,1.647,3.962,9.390,0.226,-0.048,-0.082,-3.014,-8.456,4.424,0.988,-0.503,0.152,sad
3.13,1632,3408,3311,2310,3251,0,3000,2601,1592,2551,0,2484,2573,1672,1572,3112,1.642,3.740,9.175,0.229,-0.059,-0.082,-0.740,-6.979,2.650,0.098,-0.122,0.351,sad
3.14,1818,3635,3331,2486,3347,0,2892,2588,1589,2557,0,2485,2579,1671,1557,3103,1.489,3.666,9.079,0.218,-0.062,-0.049,1.604,-7.271,-0.045,-0.843,1.041,0.142,sad
3.15,1999,3664,3373,2550,3355,0,2756,2320,1583,2557,0,2483,2577,1671,1573,3103,1.724,3.776,9.136,0.234,-0.085,-0.042,4.872,-1.432,15.074,-0.300,0.739,-0.505,sad
3.16,2218,3474,3421,2535,3281,0,2589,1745,1588,2553,0,2484,2575,1672,1567,3102,1.788,3.903,9.170,0.265,-0.095,-0.051,0.917,1.528,5.543,-0.898,0.731,-0.335,sad
3.17,2363,3709,3395,2624,3269,0,2333,1423,1589,2551,43,2519,2571,1673,1573,3101,1.815,3.740,8.918,0.281,-0.067,-0.042,-1.365,-1.314,10.882,-0.975,0.745,-0.156,sad
3.18,2559,3726,3466,2683,3269,0,2074,898,1593,2659,0,2485,2575,1671,1573,3103,1.774,4.003,8.969,0.283,-0.053,-0.048,-3.484,-1.274,10.839,-0.944,-0.042,0.159,sad
3.19,2717,3538,3502,2615,3091,0,1565,175,0,12,0,0,0,0,53,1975,1.978,4.003,9.196,0.228,-0.028,-0.052,2.373,-2.878,10.590,-0.993,-0.601,0.118,sad
3.20,2788,3757,3515,2709,3071,0,1078,0,1,61,0,20,0,18,121,1577,1.731,4.022,8.950,0.288,0.035,-0.029,2.219,-2.856,10.187,-0.877,-0.491,0.149,sad
3.21,2856,3774,3533,2746,2833,0,496,0,1507,2552,0,2483,2577,1671,1575,3107,1.645,4.154,8.868,0.279,0.062,-0.037,3.879,-3.074,9.965,-0.706,0.025,0.198,sad
3.22,2912,3681,3568,2559,2521,0,213,0,1591,2552,0,2479,2573,1672,1561,3101,1.475,3.943,8.966,0.275,0.111,-0.113,3.055,-2.931,10.293,-0.401,0.344,0.316,sad
3.23,2910,3792,3566,2758,1805,0,105,0,1591,2555,0,2483,2568,1675,1611,3103,1.446,4.252,9.062,0.415,0.136,-0.036,2.528,-3.124,9.766,-0.392,0.425,0.217,sad
3.24,2909,3786,3571,2766,1489,0,0,0,1592,2554,0,2484,2573,1673,1575,3103,1.614,4.317,9.012,0.501,0.185,0.031,-0.199,-3.081,10.762,-0.359,0.337,0.177,sad
3.25,2876,3559,3583,2683,1167,0,0,0,1593,2551,0,2483,2572,1671,1574,3115,1.575,4.367,8.887,0.552,0.208,0.024,1.034,-2.837,9.835,-0.294,0.295,0.146,sad
3.26,2786,3728,3558,2709,882,0,0,0,1592,2556,0,2460,2571,1677,1575,3101,1.738,4.422,8.830,0.621,0.236,0.043,0.893,-3.091,10.511,-0.333,0.111,0.120,sad
3.27,2656,3643,3497,2608,747,0,0,0,1592,2543,0,2479,2571,1675,1577,3101,1.583,4.465,8.739,0.642,0.258,0.092,1.389,-3.105,9.740,-0.248,-0.005,-0.009,sad
3.28,2624,3501,3508,2288,676,0,0,0,1533,2552,69,2482,2569,1715,1469,3093,1.693,4.714,8.614,0.653,0.300,0.123,1.295,-2.959,9.553,-0.165,-0.013,-0.046,sad
3.29,2513,3399,3245,2208,573,0,0,0,1594,2523,2,2479,2571,1676,1573,3102,1.465,4.571,8.715,0.709,0.288,0.110,1.274,-2.962,9.555,-0.118,0.018,-0.019,sad
3.30,2513,3191,3339,2114,303,0,0,0,1595,2551,12,2485,2572,1693,1575,3103,1.597,4.958,8.667,0.816,0.205,0.070,1.444,-3.043,9.555,-0.078,0.062,0.006,sad
3.31,2503,2967,3162,1961,29,0,0,0,1494,2553,5,2475,2572,1676,1577,3102,1.532,4.944,8.626,0.951,0.192,0.082,1.307,-2.789,9.522,-0.068,0.092,-0.001,sad
3.32,2487,2608,2992,1745,16,0,0,0,1599,2584,7,2479,2572,1674,1575,3099,1.602,5.315,9.014,1.092,0.252,0.002,1.367,-3.045,9.553,-0.047,0.086,0.009,sad
3.33,2471,2384,2701,1437,0,0,0,0,1605,2547,12,2548,2571,1709,1574,3099,1.415,5.404,8.617,1.331,0.159,-0.078,1.298,-2.890,9.560,-0.051,0.082,0.019,sad
3.34,2320,2142,2269,1243,0,0,0,0,1612,2549,0,2479,2571,1673,1575,3100,1.075,5.605,8.933,1.655,-0.103,-0.240,1.401,-2.966,9.548,-0.065,0.068,0.038,sad
3.35,2006,1586,1535,897,0,0,0,0,1603,2549,35,2479,2571,1752,1573,3219,1.623,5.751,9.922,2.175,-0.539,-0.536,1.420,-2.964,9.586,-0.057,0.074,0.042,sad
3.36,1677,1181,272,434,0,0,0,0,1610,2555,627,2480,2558,1669,1575,3101,1.446,6.694,8.794,2.445,-0.708,-0.837,1.393,-3.024,9.455,-0.068,0.085,0.058,sad
3.37,1347,656,0,0,0,0,0,0,205,486,1031,756,2237,1967,3223,4029,1.568,8.933,8.787,2.268,-0.234,-0.980,1.444,-2.983,9.373,-0.076,0.056,0.076,sad
3.38,949,321,0,0,0,0,0,0,63,407,1208,764,1663,17,3107,3643,2.365,7.515,7.740,1.779,0.088,-1.212,1.465,-2.976,9.452,-0.081,0.070,0.096,sad
3.39,303,192,0,0,0,0,0,0,1613,2551,1097,2479,2571,1659,1575,3099,2.641,4.662,10.855,0.542,0.280,-1.242,1.369,-3.153,9.536,-0.085,0.141,0.089,sad
3.40,0,0,0,0,0,0,0,0,109,465,1292,1145,1973,25,3385,3964,2.717,2.119,8.914,-0.241,0.287,-1.272,1.413,-3.168,9.536,-0.035,0.063,0.060,sad
3.41,0,0,0,0,0,0,0,0,90,423,1277,1135,1941,25,3259,3731,3.373,2.610,9.637,-0.613,0.321,-1.246,1.374,-3.170,9.450,-0.018,0.055,0.060,sad
3.42,0,0,0,0,0,0,0,0,87,413,1300,1171,1951,41,3275,3752,3.598,3.436,10.048,-1.034,0.220,-0.927,1.341,-3.132,9.579,-0.008,0.051,0.045,sad
3.43,0,0,0,0,0,0,0,0,89,399,1195,997,2623,160,2311,3736,3.244,2.931,8.782,-1.345,0.186,-0.800,1.298,-3.065,9.450,-0.010,0.037,0.040,sad
3.44,0,0,0,0,0,0,0,0,93,427,1097,1048,1820,59,3033,3416,2.832,2.978,8.468,-1.543,0.111,-0.658,1.346,-3.110,9.474,-0.009,0.031,0.039,sad
3.45,0,0,0,0,0,0,0,0,1612,2551,888,2484,2573,1719,1484,3103,2.873,3.232,8.212,-1.697,-0.003,-0.512,1.444,-3.077,9.440,-0.017,0.087,0.029,sad
3.46,0,0,0,0,0,0,0,0,1611,2577,885,2479,2571,1671,1576,3100,2.971,3.354,8.047,-1.867,-0.236,-0.215,1.367,-3.127,9.364,-0.013,0.089,0.028,sad
3.47,0,0,0,0,0,0,0,0,1595,2549,882,2479,2571,1671,1575,3100,2.737,3.845,8.839,-1.975,-0.505,0.157,1.331,-3.067,9.471,-0.008,0.083,0.025,sad
3.48,0,0,0,0,0,0,0,0,151,619,954,1245,2536,105,2317,4011,2.696,4.527,9.280,-2.088,-0.533,0.554,1.367,-2.854,9.199,-0.038,-0.005,0.043,sad
3.49,0,0,0,0,0,0,0,0,93,627,1164,1231,1916,82,3087,3534,2.318,4.731,9.747,-2.082,-0.386,0.878,1.379,-3.079,9.383,-0.026,0.017,0.049,sad
3.50,0,0,0,0,0,0,0,0,101,652,1410,1269,2045,33,3189,3565,2.296,4.879,9.876,-2.063,-0.326,1.058,1.317,-3.182,9.448,-0.024,0.019,0.042,sad
3.51,0,0,0,0,0,0,0,0,111,679,1584,1320,2152,23,3289,3605,2.061,4.834,9.735,-2.013,-0.306,1.222,1.319,-3.172,9.483,-0.021,0.020,0.044,sad
3.52,0,0,0,0,0,0,0,0,119,751,1635,1407,2237,29,3384,3865,1.956,4.889,9.874,-1.931,-0.301,1.390,1.324,-3.108,9.431,-0.035,0.009,0.048,sad
3.53,0,0,0,0,0,0,0,0,133,696,1832,1500,2403,35,3622,4085,1.767,5.107,10.247,-1.819,-0.311,1.543,1.348,-3.108,9.357,-0.049,-0.003,0.054,sad
3.54,0,0,0,0,0,0,0,0,139,799,1922,1532,2405,35,3535,3947,1.192,5.262,10.183,-1.693,-0.225,1.664,1.324,-3.110,9.371,-0.059,0.011,0.065,sad
3.55,0,0,0,0,0,0,0,0,157,943,1986,1640,2507,37,3608,4021,0.271,4.707,9.098,-1.484,-0.011,1.478,1.420,-3.158,9.457,-0.072,-0.001,0.064,sad
3.56,0,0,0,0,0,0,0,0,175,1017,2024,1654,2547,39,3567,3959,-0.500,4.650,9.160,-1.085,0.092,1.096,1.262,-3.227,9.412,-0.072,-0.010,0.065,sad
3.57,0,0,0,0,0,0,0,0,213,1145,1957,1707,2569,43,3485,3807,-0.431,5.770,10.877,-0.829,-0.080,0.721,1.346,-3.086,9.337,-0.091,-0.006,0.072,sad
3.58,0,0,0,0,0,0,0,0,247,1327,2016,1765,2781,41,3708,4072,-0.115,6.098,10.489,-0.750,-0.319,0.456,1.362,-3.230,9.378,-0.098,-0.009,0.080,sad
3.59,0,0,0,0,0,0,0,0,237,1293,2070,1823,2800,41,3688,4061,0.115,6.472,10.025,-0.699,-0.567,0.243,1.405,-3.254,9.364,-0.093,0.001,0.086,sad
3.60,0,0,0,0,0,0,0,0,287,1451,2055,1955,2846,47,3622,3963,0.522,7.063,9.618,-0.690,-0.826,0.133,1.410,-3.417,9.464,-0.072,0.008,0.073,sad
3.61,0,0,0,0,0,0,0,0,329,1513,2029,1949,2871,48,3641,3903,1.571,8.246,10.386,-0.953,-0.616,0.002,1.324,-3.364,9.438,-0.045,0.006,0.053,sad
3.62,0,0,0,0,0,0,0,0,309,1560,2027,1996,2807,45,3433,3709,0.462,6.941,8.138,-1.274,-0.134,-0.064,1.310,-3.311,9.366,-0.036,0.017,0.058,sad
3.63,0,0,0,0,0,0,0,0,339,1631,1991,2043,2785,53,3372,3669,0.022,5.705,6.773,-1.011,-0.171,-0.124,1.341,-3.409,9.464,-0.025,0.018,0.044,sad
3.64,0,0,0,0,0,0,0,0,1623,1763,1410,2095,2583,1679,2333,3955,1.398,5.966,7.113,-0.920,-0.016,-0.156,1.092,-3.366,9.596,-0.013,0.016,0.036,sad
3.65,0,0,0,0,0,0,0,0,221,1813,1829,2116,2677,221,2468,3949,1.310,4.942,5.880,-0.744,-0.089,-0.029,1.226,-3.436,9.491,-0.015,0.014,0.039,sad
3.66,0,0,0,0,0,0,0,0,407,1894,2067,2206,3021,41,3567,3881,1.566,5.239,6.285,-0.343,-0.123,0.131,1.307,-3.206,9.134,-0.037,0.005,0.028,sad
3.67,0,0,0,0,0,0,0,0,286,1877,2060,2105,2813,47,3317,3571,1.437,5.267,6.148,-0.072,-0.022,0.326,1.283,-3.326,9.323,-0.007,0.026,0.032,sad
3.68,0,0,0,0,0,0,0,0,181,1960,1873,2160,2746,2085,2535,3735,0.668,5.265,5.794,0.326,0.086,0.386,1.331,-3.237,9.280,-0.029,0.013,0.027,sad
3.69,0,0,0,0,0,0,0,0,407,2063,2160,2351,3052,51,3557,3884,1.724,1.705,11.988,0.515,0.729,0.539,1.286,-3.256,9.357,-0.022,0.038,0.042,sad
3.70,0,0,0,0,0,0,0,0,487,2155,2126,2423,3080,45,3560,3893,2.404,-0.898,12.677,0.436,0.406,0.783,1.259,-3.333,9.345,-0.030,0.033,0.043,sad
3.71,0,0,0,0,0,0,0,0,667,2252,2129,2471,2990,47,3223,3683,-0.381,0.283,9.266,0.688,0.268,0.650,1.346,-3.359,9.366,-0.028,0.039,0.058,sad
3.72,0,0,0,0,0,0,0,31,749,2292,2157,2520,3003,60,3281,3711,-1.013,1.877,10.216,0.665,0.166,0.442,1.369,-3.366,9.522,-0.029,0.044,0.062,sad
3.73,0,0,0,0,0,0,16,1023,920,2299,2234,2643,3032,47,3219,3675,-2.301,0.658,10.331,0.819,-0.299,0.126,1.317,-3.388,9.416,-0.038,0.057,0.057,sad
3.74,0,0,0,0,0,0,217,1777,1007,2316,2162,2642,2910,47,2715,3608,1.183,1.786,9.637,1.020,-0.584,-0.085,1.350,-3.361,9.337,-0.070,0.059,0.066,sad
3.75,0,0,0,0,0,0,449,2114,1215,2373,2162,2814,2747,48,2207,3491,3.211,2.188,9.471,1.010,-0.778,-0.100,1.281,-3.567,9.562,-0.116,0.052,0.064,sad
3.76,0,0,0,0,97,0,843,2617,1402,2404,2157,2790,2589,47,1933,3479,3.424,2.923,9.735,0.887,-0.492,-0.189,1.322,-3.443,9.421,-0.083,0.086,0.066,sad
3.77,0,0,0,0,297,0,1104,2813,1721,2408,2162,2919,2129,45,1359,3143,3.804,3.026,9.177,0.783,-0.246,-0.113,1.305,-3.467,9.366,-0.103,0.080,0.060,sad
3.78,0,0,0,0,494,0,1409,2768,1866,2427,2167,3034,1647,47,1180,2824,2.792,2.765,9.139,0.747,-0.126,-0.087,1.219,-3.548,9.388,-0.128,0.072,0.056,sad
3.79,0,0,0,0,848,0,1808,3065,1939,2437,2178,3055,1436,55,1099,2587,4.987,5.260,9.809,0.439,0.296,-0.155,1.144,-3.661,9.349,-0.145,0.072,0.045,sad
3.80,0,303,0,0,899,0,1974,3121,2155,2349,2190,3149,1114,47,357,2022,2.035,3.479,10.424,0.339,0.514,-0.226,1.159,-3.673,9.311,-0.145,0.073,0.043,sad
3.81,0,671,0,0,895,0,2113,3030,1990,2085,1998,2937,665,39,73,1621,1.990,3.711,9.977,0.226,0.420,-0.208,1.010,-4.240,9.651,-0.307,0.024,0.004,sad
3.82,0,1031,0,0,1104,0,2151,3253,2247,2279,2029,3132,522,5,4,1783,2.186,3.086,9.661,0.181,0.471,-0.244,1.765,-2.521,9.570,-0.321,0.130,0.016,sad
3.83,0,1342,0,0,1379,0,2274,3353,2373,2069,2265,3252,424,1,3,1751,2.071,3.445,9.735,0.187,0.423,-0.233,1.111,-3.785,9.246,-0.376,0.175,-0.078,sad
3.84,4,1462,0,0,1435,0,2307,3392,2519,2053,2218,3293,141,3,1,1452,1.836,3.251,9.500,0.184,0.425,-0.208,1.223,-3.632,9.263,-0.412,0.146,-0.082,sad
3.85,99,1605,0,0,1527,0,2416,3410,2533,1989,2244,3421,103,0,2,1449,2.148,3.179,9.045,0.210,0.463,-0.196,1.286,-3.802,9.206,-0.435,0.166,-0.090,sad
3.86,220,1776,0,0,1639,0,2463,3432,2635,1835,2265,3465,0,0,0,1369,1.879,3.469,9.256,0.187,0.405,-0.173,1.176,-3.790,9.098,-0.529,0.183,-0.116,sad
3.87,224,1706,0,0,1744,0,2510,3248,1545,2591,1535,2441,2515,1720,1623,3091,1.264,3.496,9.685,0.166,0.289,-0.141,1.188,-4.015,9.167,-0.617,0.283,-0.135,sad
3.88,301,2000,0,0,1989,0,2518,3477,1557,2581,1563,2443,2527,1715,1672,3089,1.360,3.395,9.459,0.162,0.245,-0.108,1.044,-4.147,8.885,-0.672,0.310,-0.157,sad
3.89,326,2144,1,0,2077,0,2634,3504,1555,2587,1612,2441,2585,1715,1619,3089,1.470,3.100,9.278,0.207,0.199,-0.119,1.604,-4.257,9.431,-0.869,0.373,-0.210,sad
3.90,498,2135,167,0,1991,0,2720,3267,1555,2586,1579,2443,2531,1709,1618,3087,1.724,3.354,9.110,0.266,0.118,-0.137,1.396,-4.252,9.064,-1.100,0.598,-0.185,sad
3.91,549,2505,511,0,2287,0,2778,3551,1550,2592,1543,2443,2527,1663,1619,3087,1.511,3.598,9.318,0.236,0.114,-0.119,1.525,-4.453,9.397,-1.337,0.663,-0.142,sad
3.92,697,2637,885,0,2411,0,2825,3554,1530,2617,1410,2444,2531,1714,1614,3087,1.381,3.639,9.400,0.204,0.121,-0.097,1.338,-4.475,9.184,-1.725,0.962,0.120,sad
3.93,818,2751,1378,193,2485,0,2883,3613,1527,2585,0,2451,2535,1709,1611,3092,1.393,3.294,9.275,0.257,0.101,-0.128,0.972,-5.787,10.309,-2.091,0.945,0.711,sad
3.94,911,2809,1777,439,2523,0,2896,3620,1529,2584,120,2453,2537,1705,1607,3135,1.379,3.783,9.371,0.232,0.038,-0.087,1.355,-6.565,9.946,-2.239,0.834,1.055,sad
3.95,985,2884,2016,641,2584,0,2907,3622,1529,2583,0,2453,2523,1703,1635,3091,1.281,3.807,9.373,0.166,0.014,-0.033,0.778,-6.510,9.124,-2.329,0.677,1.631,sad
3.96,1088,2875,2135,718,2624,0,2943,3435,1525,2585,0,2454,2539,1719,1607,3092,1.391,3.730,9.239,0.096,0.013,-0.012,0.560,-7.068,8.468,-2.292,0.642,2.179,sad
3.97,1154,3006,2230,977,2672,0,2975,3636,1528,2584,0,2453,2539,1591,1605,3091,1.429,3.575,9.234,0.085,-0.003,-0.010,0.304,-7.867,7.956,-2.167,0.627,2.373,sad
3.98,1203,3033,2341,1055,2731,0,3003,3639,1531,2583,0,2458,2540,1703,1621,3095,1.439,3.673,9.244,0.092,-0.022,-0.001,0.002,-7.286,10.001,-0.946,0.696,2.681,sad
3.99,1259,2871,2403,1113,2671,0,3033,3422,1559,2570,0,2463,2551,1695,1592,3097,1.511,3.721,9.196,0.089,-0.017,0.002,7.618,-4.556,9.538,0.618,0.327,1.395,sad
4.00,1183,3057,2454,1160,2711,0,3041,3581,1579,2557,0,2476,2569,1677,1576,3129,1.501,3.663,9.146,0.067,-0.007,0.004,6.893,-1.693,9.550,0.936,-0.187,0.252,sad
4.01,1261,3134,2502,1201,2835,0,3056,3632,1589,2582,0,2483,2573,1621,1593,3099,1.561,3.625,9.093,0.071,-0.008,0.001,2.054,-1.915,8.801,1.247,-0.370,-0.672,sad
4.02,1296,2976,2559,1235,2786,0,3088,3407,1593,2547,140,2549,2578,1669,1571,3104,1.496,3.697,9.103,0.078,-0.006,-0.004,-0.967,-1.786,9.254,1.745,-0.707,-0.610,sad
4.03,1312,3182,2608,1309,2900,0,3087,3622,1593,2551,0,2487,2577,1685,1572,3107,1.544,3.677,9.160,0.072,-0.008,-0.001,-1.300,-1.788,9.127,1.893,-0.852,-0.423,sad
4.04,1328,3202,2656,1373,2929,0,3088,3606,1587,2555,0,2483,2572,1675,1576,3103,1.535,3.685,9.091,0.069,0.000,-0.001,-0.388,-2.626,9.917,2.188,-0.987,-0.205,sad
4.05,1374,3071,2719,1367,2832,0,3115,3404,1580,2556,53,2479,2571,1677,1577,3101,1.542,3.658,9.136,0.081,0.007,-0.009,0.663,-3.129,9.965,2.356,-1.100,-0.454,sad
4.06,1360,3266,2747,1458,2990,0,3110,3610,1631,2555,0,2479,2513,1676,1576,3130,1.480,3.656,9.127,0.074,0.001,-0.015,0.737,-3.340,9.969,2.333,-1.161,-0.690,sad
4.07,1414,3275,2783,1527,3019,0,3119,3603,1581,2555,0,2483,2571,1677,1575,3101,1.499,3.682,9.158,0.081,-0.004,-0.010,0.208,-3.390,11.102,2.322,-1.148,-1.002,sad
4.08,1441,3248,2832,1445,3060,0,3136,3408,1591,2552,84,2493,2577,1674,1575,3103,1.563,3.721,9.136,0.082,-0.002,-0.004,-0.503,-3.625,11.583,2.211,-1.177,-1.078,sad
4.09,1438,3321,2857,1603,3088,0,3122,3599,1587,2555,12,2483,2573,1673,1575,3103,1.537,3.685,9.179,0.095,-0.006,-0.013,-0.397,-3.639,11.356,2.155,-1.057,-1.030,sad
4.10,1433,3305,2733,1659,3040,0,3053,3568,1631,2567,0,2487,2567,1684,1580,3100,1.535,3.663,9.189,0.091,-0.018,-0.015,-0.584,-4.034,11.179,1.829,-0.937,-0.854,sad
4.11,1515,3285,2928,1569,3161,0,3141,3370,1612,2553,2,2475,2569,1594,1579,3101,1.583,3.747,9.155,0.094,-0.025,-0.018,0.141,-5.648,12.644,1.571,-1.080,-0.826,sad
4.12,1526,3359,2949,1744,3145,0,3117,3527,1573,2557,0,2475,2569,1682,1580,3098,1.549,3.764,9.131,0.092,-0.013,-0.023,-0.057,-6.316,12.902,1.526,-1.231,-0.902,sad
4.13,1553,3395,2981,1729,3179,0,3108,3509,1555,2565,0,2483,2568,1683,1580,3099,1.537,3.833,9.117,0.088,-0.023,-0.017,-0.503,-7.635,12.965,1.491,-1.229,-0.870,sad
4.14,1574,3327,3034,1535,3218,0,3130,3283,1656,2531,0,2475,2568,1743,1580,3100,1.563,3.785,9.177,0.089,-0.017,-0.021,-2.337,-7.491,10.424,1.601,-0.861,-0.706,sad
4.15,1584,3434,3047,1745,3235,0,3107,3443,1577,2565,0,2475,2565,1682,1595,3097,1.489,3.716,9.155,0.088,-0.017,-0.021,-3.294,-7.594,10.183,1.562,-1.023,-0.670,sad
4.16,1593,3456,3085,1823,3247,0,3103,3394,1642,2566,0,2476,2569,1685,1583,3101,1.585,3.807,9.088,0.083,-0.015,-0.013,-2.500,-7.942,6.282,1.311,-0.438,-0.365,sad
4.17,1601,3258,3114,1814,3150,0,3089,3139,1576,2558,0,2474,2567,1682,1553,3100,1.662,3.886,9.072,0.105,-0.030,-0.015,-2.732,-8.401,3.773,0.605,-0.197,-0.181,sad
4.18,1622,3489,3146,1968,3271,0,3055,3233,1574,2553,0,2477,2567,1679,1581,3100,1.669,3.795,9.019,0.161,-0.045,-0.028,-1.942,-8.528,3.673,0.242,0.013,-0.142,sad
4.19,1703,3507,3188,2092,3287,0,3018,3040,1576,2557,0,2476,2568,1683,1589,3099,1.683,3.785,9.033,0.170,-0.070,-0.026,-0.503,-8.133,4.635,-0.247,0.938,-0.137,sad
4.20,1886,3351,3248,2175,3203,0,2947,2604,1576,2556,0,2475,2569,1682,1580,3095,1.695,3.766,9.120,0.188,-0.108,-0.029,2.662,0.900,13.759,-0.182,1.142,-0.122,sad
4.21,2098,3583,3273,2342,3319,0,2836,2614,1576,2557,0,2479,2569,1678,1579,3101,1.786,4.041,9.048,0.205,-0.083,-0.023,2.476,2.641,11.145,-0.318,0.741,-0.082,sad
4.22,2303,3622,3311,2441,3312,0,2682,2379,1651,2555,0,2477,2569,1717,1577,3096,1.760,4.008,9.079,0.201,-0.079,-0.027,1.293,-1.302,8.624,-0.793,1.009,0.062,sad
4.23,2503,3653,3349,2496,3305,0,2498,1999,1579,2549,0,2477,2569,1677,1580,3101,1.736,3.984,9.038,0.234,-0.080,-0.016,-0.560,-0.314,9.862,-0.790,0.504,0.049,sad
4.24,2655,3681,3390,2527,3259,0,2209,1468,1580,2555,0,2473,2571,1676,1579,3101,1.841,4.085,8.952,0.250,-0.060,-0.010,-1.293,-0.668,10.599,-0.899,0.135,0.169,sad
4.25,2768,3733,3434,2549,3198,0,1722,677,0,0,0,0,0,0,0,2004,1.812,4.051,8.902,0.263,-0.035,-0.017,0.426,-2.212,10.319,-0.940,-0.424,0.093,sad
4.26,2861,3527,3463,2486,3008,0,1215,0,1419,2630,0,2535,2359,1940,1692,3135,1.760,4.250,8.890,0.237,0.002,-0.001,2.667,-2.579,10.228,-1.023,-0.434,0.019,sad
4.27,2913,3751,3498,2581,2926,0,774,0,1544,2579,0,2410,2572,1694,1595,3095,1.676,4.331,8.897,0.215,0.017,0.011,2.916,-2.684,10.082,-1.034,-0.333,-0.040,sad
4.28,2914,3632,3477,2501,2635,0,387,0,1553,2577,0,2460,2548,1693,1595,3179,1.748,4.429,8.863,0.181,0.081,0.003,2.507,-2.488,9.663,-1.002,-0.137,0.004,sad
4.29,2946,3735,3561,2305,2132,0,153,0,1553,2573,0,2459,2549,1701,1595,3094,1.753,3.795,8.947,0.197,0.100,-0.037,2.926,-3.330,8.875,-0.773,0.584,0.103,sad
4.30,2935,3769,3568,2482,1584,0,88,0,1555,2577,0,2463,2507,1693,1595,3092,1.803,4.161,9.002,0.380,0.115,0.032,-0.354,-3.510,11.782,-0.590,0.700,0.252,sad
4.31,2954,3769,3568,2388,1486,0,0,0,1557,2585,0,2523,2548,1694,1595,3095,1.607,4.231,8.882,0.447,0.004,0.015,1.159,-3.273,10.271,-0.401,0.576,0.211,sad
4.32,2971,3738,3583,2144,1219,0,0,0,1497,2573,0,2462,2566,1733,1593,3097,1.686,4.549,8.823,0.524,0.046,0.011,1.578,-3.129,9.893,-0.280,0.178,0.122,sad
4.33,2963,3744,3545,2251,974,0,0,0,1560,2577,2,2463,2550,1693,1593,3099,1.896,4.362,8.641,0.551,0.124,0.023,1.188,-3.062,9.845,-0.207,0.128,0.078,sad
4.34,2960,3723,3533,2138,918,0,0,0,1558,2551,2,2461,2543,1689,1611,3141,1.839,4.599,8.674,0.595,0.122,0.032,1.420,-3.026,9.629,-0.063,0.133,0.049,sad
4.35,2981,3472,3511,2000,589,0,0,0,1573,2568,2,2428,2553,1688,1588,3095,1.788,4.724,8.626,0.600,0.175,0.066,1.456,-2.844,9.560,-0.082,0.095,0.039,sad
4.36,2965,3616,3471,1904,699,0,0,0,1573,2469,2,2468,2551,1689,1580,3097,1.932,4.827,8.478,0.650,0.234,0.108,1.262,-3.017,9.299,-0.070,0.020,0.045,sad
4.37,2944,3504,3431,1850,620,0,0,0,1576,2571,0,2471,2577,1691,1588,3097,1.666,5.013,8.523,0.670,0.240,0.093,1.463,-2.933,9.534,-0.072,0.061,0.045,sad
4.38,2930,3123,3358,1679,477,0,0,0,1581,2565,46,2473,2557,1704,1613,3099,1.623,5.057,8.590,0.721,0.208,0.092,1.310,-2.844,9.541,-0.082,0.070,0.034,sad
4.39,2907,3071,3205,1621,207,0,0,0,1591,2555,25,2475,2567,1679,1577,3097,1.683,4.949,8.224,0.801,0.226,0.106,1.456,-3.086,9.634,-0.056,0.055,0.040,sad
4.40,2896,2848,2999,1503,0,0,0,0,1581,2553,0,2475,2568,1679,1581,3099,1.721,5.136,8.466,0.907,0.243,0.114,1.343,-2.902,9.498,-0.059,0.048,0.030,sad
4.41,2858,2614,2862,1200,0,0,0,0,1592,2554,611,2475,2645,1681,1579,3097,1.664,5.480,8.703,1.061,0.161,0.109,1.401,-3.105,9.560,0.003,0.032,0.005,sad
4.42,2706,2386,2559,1077,0,0,0,0,1593,2555,624,2475,2566,1681,1581,3100,1.290,5.435,8.588,1.260,0.165,0.051,1.475,-3.148,9.459,0.015,0.043,0.004,sad
4.43,2304,2061,2027,873,0,0,0,0,1595,2553,749,2475,2569,1675,1579,3097,1.305,5.964,8.327,1.419,0.009,-0.055,1.377,-2.971,9.395,0.006,0.044,0.001,sad
4.44,2102,1374,1270,689,0,0,0,0,1599,2569,842,2477,2569,1676,1579,3099,1.568,6.103,8.013,1.589,0.023,-0.186,1.386,-3.021,9.419,-0.003,0.066,0.003,sad
4.45,1840,1136,389,304,0,0,0,0,1599,2554,854,2478,2567,1661,1581,3163,1.666,6.687,7.606,1.712,0.066,-0.292,1.456,-3.050,9.479,-0.002,0.080,0.011,sad
4.46,1575,799,0,119,0,0,0,0,1604,2553,890,2503,2567,1676,1581,3094,1.695,7.242,7.479,1.787,0.141,-0.548,1.336,-2.885,9.450,-0.018,0.106,0.040,sad
4.47,1535,413,0,0,0,0,0,0,1605,2553,906,2476,2552,1577,1578,3099,1.824,7.484,7.276,1.769,0.211,-0.756,1.358,-3.065,9.469,-0.024,0.104,0.055,sad
4.48,1281,250,0,0,0,0,0,0,1605,2552,913,2475,2567,1675,1579,3096,1.741,7.266,6.701,1.817,0.157,-0.881,1.427,-2.981,9.445,0.001,0.114,0.047,sad
4.49,945,48,0,0,0,0,0,0,1605,2552,918,2476,2527,1676,1549,3099,1.417,8.368,6.642,1.749,0.251,-0.939,1.396,-3.120,9.517,0.007,0.112,0.033,sad
4.50,640,0,0,0,0,0,0,0,1605,2552,888,2478,2567,1675,1581,3100,1.279,8.396,8.320,1.404,0.203,-1.176,1.264,-3.091,9.495,0.019,0.081,0.011,sad
4.51,229,0,0,0,0,0,0,0,1605,2552,923,2477,2587,1675,1579,3089,0.986,6.357,9.737,0.542,0.242,-1.452,1.379,-2.981,9.462,0.007,0.095,0.017,sad
4.52,0,0,0,0,0,0,0,0,1612,2553,893,2477,2568,1677,1580,2979,1.274,4.140,7.099,0.021,0.072,-1.525,1.425,-2.978,9.515,-0.001,0.100,0.031,sad
4.53,0,0,0,0,0,0,0,0,1605,2551,913,2476,2569,1676,1581,3100,2.535,4.999,7.949,-0.281,-0.034,-1.165,1.365,-3.017,9.457,0.009,0.116,0.023,sad
4.54,0,0,0,0,0,0,0,0,1605,2551,898,2473,2567,1675,1588,3099,1.884,3.383,8.294,-0.895,-0.059,-0.745,1.420,-3.038,9.503,0.020,0.126,0.016,sad
4.55,0,0,0,0,0,0,0,0,1597,2457,870,2475,2556,1719,1580,3099,1.963,4.532,9.141,-1.362,-0.175,-0.283,1.358,-2.878,9.459,0.019,0.163,0.028,sad
4.56,0,0,0,0,0,0,0,0,1605,2552,908,2477,2642,1675,1579,3101,1.259,3.955,7.594,-1.656,-0.259,0.021,1.298,-2.926,9.471,0.007,0.174,0.037,sad
4.57,0,0,0,0,0,0,0,0,1605,2553,908,2476,2615,1677,1582,3125,1.125,4.764,8.732,-1.749,-0.337,0.177,1.137,-2.990,9.550,-0.002,0.193,0.047,sad
4.58,0,0,0,0,0,0,0,0,1603,2551,885,2536,2568,1675,1579,3099,0.879,5.219,8.923,-1.993,-0.492,0.383,1.252,-3.072,9.606,0.002,0.233,0.056,sad
4.59,0,0,0,0,0,0,0,0,1611,2551,865,2477,2571,1686,1577,3099,0.127,4.872,8.538,-1.966,-0.642,0.465,1.226,-2.962,9.519,-0.002,0.210,0.055,sad
4.60,0,0,0,0,0,0,0,0,1610,2550,895,2475,2569,1672,1577,3099,-0.089,5.179,9.481,-1.964,-0.618,0.507,1.250,-2.998,9.445,-0.008,0.192,0.055,sad
4.61,0,0,0,0,0,0,0,0,1611,2546,888,2505,2571,1673,1576,3098,-0.182,5.452,9.419,-2.097,-0.495,0.505,1.216,-3.072,9.498,0.000,0.159,0.034,sad
4.62,0,0,0,0,0,0,0,0,1610,2553,875,2483,2569,1675,1543,3102,-0.625,5.452,10.015,-2.087,-0.616,0.426,1.161,-2.966,9.579,-0.001,0.122,0.030,sad
4.63,0,0,0,0,0,0,0,0,1609,2566,880,2480,2571,1673,1591,3099,0.144,5.679,10.051,-2.108,-0.569,0.367,1.149,-2.998,9.548,-0.003,0.126,0.034,sad
4.64,0,0,0,0,0,0,0,0,1610,2553,811,2479,2571,1673,1576,3100,1.199,5.909,9.981,-2.059,-0.483,0.540,1.154,-2.986,9.548,0.003,0.101,0.021,sad
4.65,0,0,0,0,0,0,0,0,1605,2549,934,2479,2569,1652,1575,3103,1.336,6.024,9.685,-1.955,-0.343,0.838,1.106,-3.002,9.546,-0.004,0.114,0.019,sad
4.66,0,0,0,0,0,0,0,0,1609,2519,931,2483,2571,1671,1576,3101,0.771,5.952,9.637,-1.807,-0.225,1.065,1.068,-3.060,9.469,0.005,0.110,0.023,sad
4.67,0,0,0,0,0,0,0,0,1611,2525,890,2483,2566,1672,1560,3101,0.290,6.093,10.008,-1.666,-0.071,1.111,1.137,-3.036,9.543,-0.003,0.082,0.012,sad
4.68,0,0,0,0,0,0,0,0,1613,2550,867,2488,2592,1672,1575,3101,-0.388,6.112,9.895,-1.610,0.077,1.011,1.156,-2.976,9.426,-0.009,0.071,0.012,sad
4.69,0,0,0,0,0,0,0,0,1613,2550,913,2483,2572,1669,1576,3101,-0.804,5.957,9.120,-1.396,0.015,0.782,1.164,-2.923,9.407,-0.020,0.094,0.029,sad
4.70,0,0,0,0,0,0,0,0,1613,2549,913,2531,2571,1671,1575,3101,-0.366,6.929,9.943,-1.247,-0.275,0.521,1.123,-2.993,9.507,-0.052,0.101,0.055,sad
4.71,0,0,0,0,0,0,0,0,1615,2553,898,2483,2570,1671,1579,3102,0.065,7.309,9.373,-1.340,-0.391,0.263,1.216,-2.981,9.131,-0.064,0.080,0.055,sad
4.72,0,0,0,0,0,0,0,0,1614,2521,893,2483,2573,1671,1575,3103,0.395,7.070,6.764,-1.257,-0.287,-0.132,1.188,-3.081,9.471,-0.066,0.070,0.066,sad
4.73,0,0,0,0,0,0,0,0,1620,2567,1138,2484,2573,1671,1577,3104,0.122,6.950,5.820,-0.970,-0.741,-0.409,1.120,-3.067,9.495,-0.079,0.068,0.074,sad
4.74,0,0,0,0,0,0,0,0,1617,2547,1330,2491,2575,1669,1576,3107,1.178,7.099,5.454,-0.564,-0.588,-0.464,1.523,-3.582,10.096,-0.037,0.071,0.064,sad
4.75,0,0,0,0,0,0,0,0,1618,2573,1356,2487,2577,1671,1578,3108,1.369,7.015,4.793,-0.141,-0.260,-0.356,1.068,-3.103,9.517,-0.055,0.038,0.044,sad
4.76,0,0,0,0,0,0,0,0,1619,2551,1387,2486,2578,1663,1577,3115,2.909,2.942,4.374,0.456,0.780,-0.288,1.118,-3.110,9.479,-0.068,0.032,0.051,sad
4.77,0,0,0,0,0,0,0,0,1615,2547,1389,2483,2573,1673,1577,3103,4.283,-0.342,11.827,0.379,0.244,0.393,1.123,-3.029,9.438,-0.103,0.049,0.061,sad
4.78,0,0,0,0,0,0,0,0,1614,2547,1382,2483,2571,1683,1575,3102,0.879,-0.551,9.246,0.677,0.134,0.543,1.202,-3.227,9.436,-0.084,0.099,0.072,sad
4.79,0,0,0,0,0,0,0,509,1615,2597,1415,2485,2571,1671,1588,3102,-2.200,0.582,9.675,0.785,-0.028,0.197,1.092,-3.043,9.397,-0.107,0.107,0.082,sad
4.80,0,0,0,0,13,0,71,1412,1613,2548,1410,2483,2570,1670,1577,3103,-0.472,1.544,10.590,1.072,-0.560,-0.004,1.451,-3.357,9.507,-0.078,0.166,0.099,sad
4.81,0,0,0,0,0,0,304,2202,1613,2549,1379,2479,2571,1663,1575,3155,2.684,1.982,9.050,1.078,-0.681,-0.028,1.171,-3.189,9.373,-0.099,0.156,0.098,sad
4.82,0,0,0,0,181,0,592,2606,1630,2549,1420,2484,2571,1669,1575,3101,3.017,2.514,10.003,1.035,-0.686,-0.201,1.132,-3.318,9.471,-0.099,0.171,0.084,sad
4.83,0,0,0,0,272,0,1023,2656,1599,2547,1417,2483,2572,1664,1575,3099,3.711,2.332,8.760,0.987,-0.620,-0.170,1.080,-3.247,9.366,-0.119,0.177,0.074,sad
4.84,0,0,0,0,613,0,1365,2979,1605,2547,1428,2479,2529,1669,1573,3103,3.165,2.966,9.203,1.017,-0.492,-0.004,1.173,-3.096,9.467,-0.144,0.152,0.074,sad
4.85,0,27,0,0,768,0,1862,3081,1660,2547,1446,2484,2573,1652,1575,3117,5.545,7.020,11.873,0.665,-0.026,-0.030,0.967,-3.431,9.448,-0.142,0.208,0.081,sad
4.86,0,528,0,0,1047,0,2055,2970,1607,2551,1453,2425,2572,1671,1575,3101,1.104,3.603,10.985,0.415,0.506,-0.185,0.886,-3.405,9.476,-0.142,0.202,0.077,sad
4.87,0,899,0,0,1104,0,2173,3216,1609,2633,1466,2491,2579,1675,1495,3113,2.442,3.072,9.553,0.216,0.237,-0.087,0.876,-3.385,9.450,-0.154,0.190,0.068,sad
4.88,0,1248,0,0,1600,0,2359,3334,1613,2552,1215,2487,2575,1669,1571,3107,2.176,3.208,9.498,0.127,0.217,-0.123,0.831,-3.424,9.369,-0.216,0.135,0.034,sad
4.89,0,1359,0,0,1794,0,2403,3187,1239,2639,1748,2596,2732,2091,2279,2746,2.263,3.156,9.354,0.061,0.218,-0.110,1.053,-2.895,9.644,-0.293,0.060,-0.007,sad
4.90,0,1599,0,0,1894,0,2559,3410,2099,901,2065,3127,16,30,0,1571,2.286,3.191,9.531,0.048,0.185,-0.092,0.785,-3.381,9.471,-0.487,0.094,-0.076,sad
4.91,0,1724,0,0,2022,0,2641,3449,2273,685,2083,3187,4,0,0,1733,2.217,3.206,9.421,0.023,0.173,-0.030,1.061,-3.503,9.388,-0.560,0.154,-0.112,sad
4.92,0,1586,0,0,2013,0,2704,3286,2489,571,2154,3342,0,0,4,1739,2.095,2.993,9.275,0.032,0.162,-0.004,1.032,-3.790,9.199,-0.579,0.191,-0.174,sad
4.93,0,1794,0,0,2259,0,2750,3491,2515,583,2116,3322,0,0,0,1689,2.138,3.005,9.503,0.037,0.138,-0.034,1.132,-3.618,8.892,-0.614,0.242,-0.192,sad
4.94,0,1833,0,0,2336,0,2781,3500,1645,2558,1525,2483,2571,1672,1575,3101,2.375,2.962,9.108,0.031,0.145,-0.028,0.867,-3.886,9.033,-0.756,0.424,-0.221,sad
4.95,0,1757,0,0,2384,0,2834,3318,1541,2551,1492,2479,2571,1669,1575,3128,2.109,2.885,9.254,0.040,0.167,-0.038,1.262,-4.087,9.268,-1.032,0.578,-0.242,sad
4.96,0,1977,0,0,2432,0,2667,3518,1641,2551,1410,2427,2629,1671,1575,3102,2.059,2.770,9.050,0.067,0.217,-0.062,1.235,-4.252,9.120,-1.149,0.685,-0.213,sad
4.97,0,2035,31,0,2512,0,2878,3501,1624,2551,1003,2484,2571,1689,1572,3095,2.150,2.796,8.988,0.116,0.347,-0.105,1.085,-4.688,9.342,-1.385,0.874,-0.067,sad
4.98,0,2251,62,0,2619,0,2982,3546,1597,2551,0,2485,2571,1663,1573,3096,1.999,2.954,9.167,0.147,0.418,-0.154,0.876,-4.322,9.002,-1.665,0.982,0.386,sad
4.99,0,2363,112,0,2476,0,2842,3536,1595,2550,0,2484,2573,1671,1573,3101,1.915,3.005,9.139,0.173,0.504,-0.180,0.294,-4.559,9.261,-1.743,0.976,0.627,sad
5.00,0,2547,453,0,2688,0,3018,3566,1593,2541,0,2483,2575,1668,1572,3114,1.623,3.539,9.926,0.123,0.310,-0.107,0.927,-6.443,8.940,-1.832,0.835,1.197,sad
5.01,0,2429,752,0,2700,0,3056,3345,1591,2553,0,2486,2577,1663,1572,3100,1.604,3.306,9.565,0.038,0.131,-0.024,0.311,-6.744,8.665,-1.718,0.971,1.611,sad
5.02,0,2688,876,0,2816,0,3085,3583,1592,2552,0,2485,2575,1671,1565,3108,1.731,3.096,9.337,0.013,0.106,-0.016,0.012,-7.118,8.720,-1.552,1.130,1.807,sad
5.03,0,2745,954,0,2864,0,3103,3583,1592,2551,0,2484,2578,1672,1572,3107,1.604,2.954,9.364,0.036,0.091,-0.023,-0.855,-6.579,8.408,-0.982,1.179,2.068,sad
5.04,0,2559,1010,0,2779,0,3135,3408,1591,2552,0,2483,2573,1671,1573,3107,1.573,3.117,9.433,0.045,0.063,-0.020,2.543,-4.642,10.872,0.158,0.867,1.963,sad
5.05,0,2805,1077,0,2919,0,3150,3603,1556,2569,0,2467,2552,1691,1591,3157,1.609,3.091,9.419,0.048,0.068,-0.019,7.647,-3.560,9.019,0.317,0.668,0.939,sad
5.06,0,2831,1107,0,2935,0,3155,3600,1553,2547,76,2460,2591,1699,1597,3095,1.657,3.091,9.337,0.063,0.071,-0.023,3.630,-2.720,8.660,0.632,0.109,-0.770,sad
5.07,0,2672,1138,0,2862,0,3184,3346,1588,2553,0,2483,2613,1673,1577,3103,1.554,3.132,9.328,0.055,0.046,-0.025,-0.034,-2.509,10.022,1.225,-0.050,-0.913,sad
5.08,0,2896,1122,0,2963,0,3182,3611,1589,2553,0,2479,2575,1663,1575,3118,1.607,3.089,9.373,0.055,0.045,-0.026,-0.407,-2.574,9.744,1.453,-0.239,-0.765,sad
5.09,0,2914,1095,0,2989,0,3184,3611,1557,2557,0,2473,2556,1684,1584,3098,1.659,3.091,9.354,0.066,0.057,-0.031,0.113,-2.840,9.242,1.765,-0.453,-0.621,sad
5.10,0,2745,1088,0,2890,0,3193,3405,1575,2635,0,2474,2569,1681,1581,3099,1.633,3.165,9.361,0.064,0.030,-0.023,0.115,-3.093,9.115,1.850,-0.723,-0.697,sad
5.11,0,2955,1095,0,3007,0,3196,3616,1575,2565,0,2470,2568,1652,1583,3101,1.616,3.081,9.380,0.064,0.026,-0.018,0.247,-3.294,9.321,1.845,-0.811,-0.766,sad
5.12,0,2977,1123,0,3022,0,3202,3619,1581,2557,0,2485,2556,1677,1579,3100,1.642,3.213,9.385,0.072,0.018,-0.017,-0.261,-3.266,10.161,1.879,-0.889,-0.940,sad
5.13,0,2993,1124,0,3052,0,3216,3603,1587,2552,0,2479,2577,1673,1574,3101,1.662,3.146,9.311,0.056,0.020,-0.013,-0.725,-3.172,10.582,1.774,-1.042,-1.050,sad
5.14,0,3011,1152,0,3052,0,3223,3611,1656,2553,0,2480,2573,1673,1586,3101,1.571,3.065,9.371,0.067,0.015,-0.009,-0.622,-3.330,10.939,1.753,-1.040,-1.084,sad
5.15,0,3033,1221,0,3085,0,3234,3607,1561,2557,0,2468,2554,1690,1591,3096,1.611,3.105,9.407,0.084,-0.000,-0.018,-0.608,-3.567,11.337,1.743,-0.875,-1.180,sad
5.16,12,2874,1296,0,3003,0,3248,3397,1565,2553,0,2471,2555,1687,1584,3095,1.633,3.067,9.206,0.098,-0.011,-0.015,-1.209,-4.056,11.997,1.720,-0.685,-1.200,sad
5.17,20,3059,1433,0,3138,0,3248,3570,1556,2567,0,2463,2557,1688,1588,3155,1.662,3.017,9.254,0.146,-0.038,-0.035,-1.578,-4.140,12.160,1.666,-0.762,-1.169,sad
5.18,48,3083,1636,0,3169,0,3253,3547,1567,2568,0,2471,2605,1688,1583,3096,1.690,3.100,9.249,0.173,-0.022,-0.040,-1.664,-4.597,10.963,1.446,-1.024,-0.984,sad
5.19,90,2906,1840,0,3050,0,3279,3279,1597,2517,0,2473,2557,1747,1582,3097,1.688,3.244,9.294,0.182,-0.036,-0.054,-0.958,-6.369,11.765,1.346,-0.899,-0.648,sad
5.20,128,3133,1968,0,3227,0,3253,3440,1567,2568,0,2472,2565,1685,1577,3098,1.674,3.136,9.196,0.168,-0.018,-0.058,-1.164,-6.838,11.949,1.435,-0.836,-0.478,sad
5.21,169,3164,2109,125,3251,0,3260,3376,1571,2569,0,2473,2567,1695,1588,3099,1.686,3.270,9.230,0.175,-0.001,-0.064,-1.745,-6.673,9.752,1.564,-0.930,-0.193,sad
5.22,235,3166,2253,215,3298,0,3278,3135,1572,2568,0,2472,2567,1686,1583,3119,1.669,3.285,9.220,0.192,-0.029,-0.063,-2.246,-5.993,6.816,1.138,-0.962,0.155,sad
5.23,273,3248,2405,364,3312,0,3259,3253,1573,2565,17,2474,2557,1683,1555,3095,1.700,3.266,9.246,0.211,-0.023,-0.067,-1.832,-6.191,6.060,0.842,-0.901,0.302,sad
5.24,346,3299,2547,511,3332,0,3249,3223,1576,2565,0,2471,2557,1683,1580,3108,1.630,3.428,9.273,0.205,-0.022,-0.075,-1.281,-7.108,6.709,0.449,-0.650,0.488,sad
5.25,486,3162,2672,606,3255,0,3255,2989,1593,2551,0,2473,2567,1683,1581,3099,1.707,3.287,9.170,0.190,-0.019,-0.078,-0.766,-7.077,6.191,0.230,-0.379,0.491,sad
5.26,656,3392,2769,722,3370,0,3224,3177,1571,2568,0,2473,2557,1685,1583,3099,1.755,3.395,9.141,0.182,0.011,-0.104,-0.436,-6.711,5.432,-0.005,-0.233,0.430,sad
5.27,703,3428,2864,784,3387,0,3202,3143,1588,2568,0,2473,2565,1685,1586,3079,1.645,3.584,9.239,0.205,0.035,-0.111,-0.002,-6.548,5.976,-0.496,0.175,0.281,sad
5.28,767,3282,2960,991,3313,0,3184,2885,0,0,0,0,0,0,0,330,1.652,3.654,9.225,0.183,0.016,-0.092,3.673,3.038,16.970,0.007,0.977,-0.206,sad
5.29,827,3308,3015,1130,3311,0,3169,2826,0,0,0,0,0,0,0,493,1.748,3.618,9.165,0.179,0.011,-0.082,2.682,6.383,10.434,-0.290,0.125,-0.505,sad
5.30,909,3536,3062,1344,3423,0,3116,2967,0,44,0,0,0,0,0,681,1.659,3.584,9.143,0.200,-0.008,-0.081,0.663,2.488,4.298,-0.762,0.656,-0.037,sad
5.31,997,3568,3123,1568,3434,0,3031,2887,1591,2604,0,2485,2584,1672,1573,3103,1.681,3.634,9.160,0.197,-0.021,-0.085,-0.781,-3.481,13.197,-0.643,1.004,0.170,sad
5.32,1123,3627,3186,1599,3454,0,2992,2642,1591,2552,0,2485,2572,1671,1587,3103,1.755,3.778,9.213,0.185,-0.005,-0.070,0.014,-0.711,9.735,-0.570,-0.065,0.116,sad
5.33,1195,3618,3207,1903,3429,0,2864,2704,0,0,0,0,0,0,0,1140,1.774,3.658,9.041,0.189,-0.006,-0.069,0.891,-1.144,10.130,-0.661,-0.226,0.228,sad
5.34,1296,3652,3248,2053,3418,0,2709,2513,0,0,0,0,0,0,0,1365,1.709,3.828,9.120,0.179,-0.007,-0.038,2.624,-1.889,9.503,-0.669,-0.137,0.214,sad
5.35,1335,3462,3312,2107,3274,0,2589,2135,1589,2553,0,2485,2575,1673,1592,3103,1.741,3.833,9.120,0.180,0.006,-0.032,2.804,-2.844,10.434,-0.571,-0.060,0.164,sad
5.36,1335,3695,3286,2165,3317,0,2326,1922,1591,2554,0,2485,2575,1672,1575,3107,1.724,3.807,9.057,0.177,0.001,-0.034,2.385,-2.547,10.348,-0.502,-0.119,0.109,sad
5.37,1364,3706,3359,2302,3315,0,2110,1435,1591,2552,0,2484,2575,1671,1565,3125,1.688,3.859,9.069,0.177,0.010,-0.042,1.729,-2.167,10.070,-0.493,-0.184,0.046,sad
5.38,1419,3618,3383,2096,3269,0,1813,746,1591,2607,0,2483,2573,1671,1623,3103,1.697,3.582,9.215,0.185,-0.000,-0.040,1.427,-1.997,9.543,-0.600,-0.296,0.038,sad
5.39,1360,3726,3398,2342,3203,0,1535,155,1592,2552,0,2483,2573,1671,1578,3103,1.568,3.869,9.079,0.223,0.029,-0.048,2.033,-2.210,9.419,-0.628,-0.286,0.066,sad
5.40,1486,3749,3415,2350,3130,0,1256,0,1549,2557,0,2484,2572,1673,1575,3103,1.645,3.991,8.966,0.213,0.021,-0.044,3.661,-3.455,9.826,-0.566,-0.382,-0.045,sad
5.41,1535,3535,3438,2266,2909,0,848,0,1593,2566,0,2475,2575,1673,1574,3104,1.714,4.068,9.072,0.215,0.018,-0.039,1.290,-2.744,9.862,-0.356,-0.274,-0.014,sad
5.42,1600,3744,3440,2349,2851,0,433,0,1593,2539,0,2483,2572,1673,1574,3101,1.671,4.039,8.983,0.215,0.018,-0.040,2.686,-2.514,8.796,-0.270,-0.126,0.019,sad
5.43,1583,3750,3450,2303,2623,0,153,0,1625,2599,0,2483,2572,1675,1577,3101,1.559,4.824,9.586,0.064,-0.014,-0.180,1.865,-3.194,9.821,-0.122,-0.097,0.026,sad
5.44,1575,3533,3458,2023,2098,0,146,0,1593,2554,17,2479,2571,1677,1568,3101,2.219,3.800,8.808,0.265,-0.019,-0.081,2.521,-2.859,9.050,-0.033,0.152,0.080,sad
5.45,1534,3725,3417,1990,1730,0,113,0,1589,2552,0,2411,2571,1695,1577,3102,1.841,4.120,8.940,0.418,-0.001,-0.034,2.241,-3.060,9.835,-0.024,0.110,0.043,sad
5.46,1514,3714,3405,1879,1485,0,25,0,1595,2552,0,2479,2571,1676,1577,3103,1.551,4.252,8.866,0.449,0.029,-0.015,1.992,-2.844,9.625,-0.005,-0.003,-0.049,sad
5.47,1527,3485,3388,1781,1075,0,0,0,1597,2487,0,2479,2571,1677,1557,3099,1.719,4.140,8.851,0.456,0.045,0.019,2.468,-2.945,9.608,0.046,0.004,-0.051,sad
5.48,1603,3670,3360,1833,1062,0,0,0,1597,2551,0,2479,2569,1677,1578,3101,1.697,4.389,8.712,0.514,0.072,0.068,2.325,-2.703,9.572,0.051,-0.028,-0.042,sad
5.49,1643,3649,3344,1773,832,0,0,0,1595,2553,0,2477,2535,1677,1579,3100,1.099,4.769,8.432,0.548,0.144,0.089,2.413,-2.598,9.060,0.037,0.009,-0.037,sad
5.50,1741,3404,3337,1559,576,0,0,0,1605,2553,0,2389,2572,1635,1578,3103,1.623,4.549,8.648,0.570,0.108,0.097,2.320,-2.763,9.380,0.029,0.024,-0.008,sad
5.51,1695,3553,3286,1567,432,0,0,0,1607,2551,0,2483,2572,1675,1576,3103,1.721,4.630,8.645,0.588,0.112,0.099,2.351,-2.710,9.261,0.027,0.025,-0.007,sad
5.52,1692,3459,3237,1495,647,0,0,0,1607,2550,0,2479,2573,1658,1575,3099,1.671,4.831,8.665,0.645,0.047,0.137,2.531,-2.617,9.141,0.026,0.125,0.022,sad
5.53,1632,3136,3157,1418,324,0,0,0,1605,2551,20,2485,2567,1653,1581,3101,1.815,4.903,8.566,0.713,0.046,0.132,2.385,-2.555,9.131,0.005,0.235,0.074,sad
5.54,1511,3154,3040,1261,100,0,0,0,1611,2550,0,2479,2577,1677,1554,3102,1.891,5.023,8.557,0.757,0.093,0.103,2.435,-2.641,9.191,-0.002,0.243,0.086,sad
5.55,1535,2846,2967,1207,0,0,0,0,1628,2549,17,2479,2571,1673,1575,3100,1.808,5.090,8.480,0.832,0.178,0.074,2.492,-2.591,8.930,-0.023,0.387,0.118,sad
5.56,1506,2442,2818,986,0,0,0,0,1611,2549,0,2483,2572,1674,1565,3089,1.688,5.265,8.545,0.929,0.161,0.048,2.061,-2.593,9.263,-0.089,0.546,0.196,sad
5.57,1382,2343,2517,880,0,0,0,0,1603,2551,0,2483,2573,1674,1576,3101,1.626,5.344,8.535,1.040,0.179,-0.019,1.990,-2.655,9.337,-0.118,0.573,0.224,sad
5.58,1375,1983,2098,710,0,0,0,0,1611,2550,156,2491,2580,1673,1577,3101,1.566,5.567,8.686,1.252,0.135,-0.092,1.587,-2.598,9.876,-0.271,0.588,0.287,sad
5.59,1377,1323,1299,496,0,0,0,0,1611,2604,0,2477,2571,1674,1578,3101,1.647,6.060,9.017,1.493,-0.017,-0.241,1.393,-2.940,9.737,-0.379,0.492,0.315,sad
5.60,1200,1056,293,233,0,0,0,0,1613,2548,0,2485,2591,1671,1581,3101,1.604,6.182,8.605,1.703,0.013,-0.374,1.499,-2.796,9.555,-0.483,0.491,0.366,sad
5.61,1182,871,0,31,0,0,0,0,1589,2549,0,2483,2572,1673,1576,3103,1.776,6.972,8.543,1.850,-0.089,-0.574,1.434,-3.333,9.443,-0.434,0.506,0.356,sad
5.62,904,502,0,0,0,0,0,0,1613,2549,10,2485,2572,1672,1564,3101,1.923,6.151,9.304,1.586,0.240,-1.002,1.504,-3.345,9.282,-0.389,0.618,0.325,sad
5.63,486,196,0,0,0,0,0,0,1606,2557,17,2484,2575,1670,1575,3103,1.343,4.855,9.881,1.056,0.497,-1.375,1.156,-3.247,9.335,-0.353,0.546,0.322,sad
5.64,22,51,0,0,0,0,0,0,1612,2549,20,2483,2571,1673,1499,3102,-0.101,3.117,11.272,0.184,0.408,-1.795,1.056,-3.802,9.694,-0.290,0.324,0.194,sad
5.65,0,0,0,0,0,0,0,0,1612,2551,20,2483,2573,1672,1576,3049,0.644,2.128,9.620,-0.448,0.224,-2.099,1.104,-3.689,9.438,-0.158,0.225,0.105,sad
5.66,0,0,0,0,0,0,0,0,1613,2555,33,2485,2577,1674,1621,3099,2.382,1.937,10.063,-0.882,0.037,-2.058,1.068,-3.694,9.467,-0.113,0.182,0.080,sad
5.67,0,0,0,0,0,0,0,0,1612,2551,51,2484,2573,1673,1529,3101,3.486,2.507,10.070,-1.322,-0.257,-1.453,1.044,-3.651,9.306,-0.061,0.126,0.046,sad
5.68,0,0,0,0,0,0,0,0,1613,2550,591,2482,2571,1671,1575,3100,3.168,2.435,8.914,-1.644,-0.531,-0.856,1.226,-3.711,9.392,-0.031,0.094,0.040,sad
5.69,0,0,0,0,0,0,0,0,1612,2569,627,2484,2571,1669,1547,3101,3.160,3.053,9.536,-1.803,-0.720,-0.297,1.046,-3.603,9.234,-0.020,0.077,0.028,sad
5.70,0,0,0,0,0,0,0,0,1694,2549,1010,2479,2571,1671,1587,3061,2.466,3.259,9.594,-1.965,-0.712,0.182,1.039,-3.591,9.275,-0.017,0.034,0.003,sad
5.71,0,0,0,0,0,0,0,0,1613,2547,1041,2484,2572,1670,1595,3101,1.707,3.603,9.874,-2.013,-0.756,0.542,0.994,-3.706,9.392,-0.016,0.050,0.008,sad
5.72,0,0,0,0,0,0,0,0,1613,2547,1036,2479,2569,1617,1620,3103,1.856,4.070,10.288,-2.037,-0.690,0.827,1.056,-3.622,9.234,-0.011,0.076,0.011,sad
5.73,0,0,0,0,0,0,0,0,335,635,1627,1879,1855,51,3400,3963,1.674,4.453,10.740,-2.045,-0.597,1.069,1.111,-3.615,9.333,-0.002,0.007,0.015,sad
5.74,0,0,0,0,0,0,0,0,391,765,1748,1911,1941,24,3437,4015,1.695,4.803,10.803,-2.055,-0.596,1.237,1.080,-3.630,9.290,-0.000,0.000,0.016,sad
5.75,0,0,0,0,0,0,0,0,439,792,1717,1949,1949,47,3372,3883,1.429,4.207,9.048,-1.830,-0.471,1.323,1.092,-3.625,9.325,-0.002,0.009,0.018,sad
5.76,0,0,0,0,0,0,0,0,1481,2703,1448,2489,2667,2085,2314,3263,1.211,4.046,8.380,-1.501,-0.426,1.319,1.796,-3.443,8.641,0.025,0.043,0.017,sad
5.77,0,0,0,0,0,0,0,0,367,718,1676,1865,1849,83,3081,3512,1.195,5.186,9.838,-0.986,-0.455,1.255,1.147,-3.661,9.349,0.019,0.020,0.011,sad
5.78,0,0,0,0,0,0,0,0,367,745,1653,1833,1837,125,3033,3426,1.080,6.199,10.934,-0.871,-0.540,1.196,1.123,-3.594,9.352,0.021,0.035,0.006,sad
5.79,0,0,0,0,0,0,0,0,428,811,1799,1959,2017,57,3157,3592,0.680,6.914,10.992,-0.774,-0.649,1.027,1.058,-3.625,9.297,0.036,0.068,0.019,sad
5.80,0,0,0,0,0,0,0,0,437,873,1796,1960,1939,69,3095,3529,0.232,7.724,11.535,-0.751,-0.788,0.874,1.087,-3.610,9.345,0.039,0.072,0.020,sad
5.81,0,0,0,0,0,0,0,0,457,945,1852,2013,1935,55,3141,3597,0.409,9.237,13.123,-0.921,-1.043,0.774,1.065,-3.601,9.376,0.054,0.062,0.014,sad
5.82,0,0,0,0,0,0,0,0,465,970,1896,2069,1935,61,3180,3669,0.259,9.620,12.620,-1.305,-1.263,0.722,1.044,-3.531,9.304,0.057,0.053,0.005,sad
5.83,0,0,0,0,0,0,0,0,461,955,1916,2093,1880,47,3195,3701,0.170,9.096,10.096,-1.601,-1.171,0.638,1.046,-3.543,9.263,0.057,0.050,0.006,sad
5.84,0,0,0,0,0,0,0,0,360,975,1929,2085,1843,86,3206,3763,-0.067,8.394,7.647,-1.627,-0.903,0.513,0.941,-3.555,9.069,0.064,0.077,0.016,sad
5.85,0,0,0,0,0,0,0,0,440,957,1942,2130,1806,59,3181,3717,-0.378,8.308,6.503,-1.490,-0.617,0.365,0.596,-3.620,9.697,0.055,0.037,0.005,sad
5.86,0,0,0,0,0,0,0,0,437,999,2011,2228,1879,51,3294,3885,-0.285,8.677,6.055,-1.375,-0.361,0.212,0.941,-3.567,9.448,0.062,0.059,0.010,sad
5.87,0,0,0,0,0,0,0,0,443,931,2044,2191,1855,47,3291,3900,-0.170,8.205,4.647,-1.224,-0.115,0.084,0.943,-3.565,9.306,0.070,0.040,0.006,sad
5.88,0,0,0,0,0,0,0,0,332,935,2019,2195,1848,36,3243,3871,-0.031,7.690,3.117,-0.872,-0.043,0.014,1.006,-3.479,9.328,0.078,0.038,0.001,sad
5.89,0,0,0,0,0,0,0,0,425,1003,2034,2255,1847,53,3421,3951,0.532,7.752,2.990,-0.459,-0.060,0.030,2.318,-3.871,8.756,0.134,0.079,0.009,sad
5.90,0,0,0,0,0,0,0,0,364,955,2047,2312,1928,49,3327,4004,1.492,7.740,3.445,-0.090,-0.033,0.169,1.310,-3.527,9.191,0.076,0.041,0.008,sad
5.91,0,0,0,0,0,0,0,0,383,1047,2034,2335,1919,53,3299,3988,1.946,7.544,4.195,0.243,0.030,0.345,1.082,-3.519,9.297,0.079,0.056,0.000,sad
5.92,0,0,0,0,0,0,0,0,1625,2555,1446,2479,2587,1691,1618,3107,2.210,2.856,3.594,0.663,0.810,0.439,0.917,-3.292,9.079,0.052,0.096,-0.003,sad
5.93,0,0,0,0,0,0,0,0,441,1064,2039,2329,1914,52,3303,4023,3.084,-0.180,12.785,0.428,0.394,0.845,1.049,-3.428,9.237,0.051,0.031,0.013,sad
5.94,0,0,0,0,0,0,0,0,472,1053,2085,2355,1929,51,3305,4052,0.560,-1.159,8.480,0.524,0.336,0.697,0.682,-3.321,9.304,0.040,0.033,0.011,sad
5.95,0,0,0,0,0,0,0,0,454,1111,2111,2477,1961,51,3415,4089,-0.587,0.560,8.921,0.841,0.306,0.476,0.931,-3.419,9.665,0.041,0.001,0.012,sad
5.96,0,0,0,0,0,0,0,345,617,1213,2172,2569,2029,46,3272,4078,-1.290,0.900,10.776,0.875,0.027,0.337,1.140,-3.452,9.306,0.022,-0.062,0.005,sad
5.97,0,0,0,0,122,0,199,1429,1034,1307,2126,2629,2264,51,3157,3978,-0.496,1.180,10.460,1.101,-0.284,0.002,1.092,-3.338,9.323,-0.039,-0.145,-0.009,sad
5.98,0,0,0,0,0,0,433,2058,1480,1611,2180,2716,2376,47,2725,3976,2.461,2.660,9.716,0.995,-0.528,-0.037,1.152,-3.428,9.438,-0.110,0.007,0.021,sad
5.99,0,0,0,0,0,0,762,2611,1591,1679,2188,2629,2258,44,2267,3941,3.318,2.756,10.470,0.873,-0.717,-0.149,1.219,-3.378,9.328,-0.095,0.038,0.033,sad
6.00,0,0,0,0,286,0,1117,2830,1891,1767,2188,2717,1627,48,1640,3819,4.197,2.404,8.863,0.723,-0.638,0.017,1.195,-3.536,9.357,-0.102,0.038,0.021,sad
6.01,0,0,0,0,542,0,1627,2729,2126,1807,2019,2731,1255,47,1181,3502,4.044,2.533,8.818,0.776,-0.364,-0.017,1.061,-3.558,9.321,-0.116,0.032,0.011,sad
6.02,0,231,0,0,635,0,1931,3071,2153,1811,2198,2769,1227,100,1001,3301,3.926,3.919,11.152,0.661,0.396,-0.387,1.168,-3.598,9.390,-0.137,0.058,0.018,sad
6.03,0,608,0,0,921,0,2124,3153,2411,1717,2218,2825,620,47,617,2745,2.866,2.653,9.390,0.464,0.678,-0.329,1.085,-3.656,9.388,-0.168,0.107,0.007,sad
6.04,0,799,0,0,1200,0,2283,3071,2399,1147,2147,2845,556,28,89,1909,2.330,2.974,9.237,0.365,0.696,-0.318,0.749,-3.010,9.629,-0.262,0.104,-0.041,sad
6.05,0,1216,0,0,1518,0,2320,3231,2517,1045,2188,2983,293,4,5,1761,2.361,3.096,9.404,0.224,0.530,-0.276,1.001,-3.728,9.388,-0.275,0.130,-0.067,sad
6.06,0,1300,0,0,1565,0,2263,3120,2669,922,2224,3146,68,3,3,1866,2.131,3.484,9.910,0.167,0.470,-0.258,0.802,-3.845,9.093,-0.292,0.150,-0.084,sad
6.07,0,1520,0,0,1802,0,2559,3157,2761,1019,2231,3190,2,0,0,1660,2.555,3.151,9.376,0.124,0.454,-0.192,0.670,-3.531,9.275,-0.384,0.165,-0.122,sad
6.08,0,1827,0,0,2066,0,2605,3406,2781,831,2313,3195,0,3,83,1533,2.358,3.048,9.347,0.097,0.412,-0.141,0.419,-3.740,8.911,-0.485,0.132,-0.148,sad
6.09,0,1894,0,0,2181,0,2633,3429,2793,669,2229,3259,0,0,0,1425,2.176,3.129,9.474,0.080,0.309,-0.073,1.111,-4.037,9.335,-0.558,0.221,-0.178,sad
6.10,0,1968,0,0,2317,0,2701,3327,2805,427,2234,3273,1,53,0,1082,2.162,3.038,9.270,0.074,0.303,-0.080,1.149,-4.075,9.313,-0.612,0.282,-0.130,sad
6.11,0,2033,0,0,2416,0,2714,3466,2789,0,2198,3261,0,0,0,957,1.935,2.928,9.287,0.082,0.346,-0.119,1.137,-4.180,9.029,-0.644,0.274,-0.109,sad
6.12,0,2110,70,0,2498,0,2784,3491,2821,1,2157,3177,0,0,0,1017,2.018,3.098,9.431,0.072,0.306,-0.110,0.804,-4.259,8.950,-0.816,0.278,-0.046,sad
6.13,0,2021,110,0,2480,0,2877,3313,1509,2599,1307,2446,2525,1725,1627,3091,1.863,2.978,9.455,0.102,0.322,-0.111,0.788,-4.183,9.163,-1.044,0.397,0.088,sad
6.14,0,2397,134,0,2672,0,2925,3537,1577,2556,1128,2441,2527,1673,1624,3091,1.506,3.330,9.730,0.076,0.191,-0.073,1.092,-4.539,9.199,-1.222,0.374,0.233,sad
6.15,0,2452,180,0,2715,0,2991,3546,1501,2596,71,2439,2531,1751,1623,3091,1.721,3.191,9.560,0.060,0.123,-0.033,0.802,-4.654,10.965,-1.469,0.041,0.724,sad
6.16,0,2331,196,0,2683,0,3071,3353,1509,2599,0,2445,2532,1721,1622,3091,1.702,3.005,9.385,0.084,0.132,-0.035,1.120,-5.981,10.738,-1.484,-0.131,1.293,sad
6.17,0,2547,230,0,2763,0,3069,3543,1508,2599,0,2457,2533,1720,1621,3091,1.762,3.081,9.345,0.053,0.078,-0.023,1.580,-6.158,8.938,-1.505,-0.074,1.542,sad
6.18,0,2634,323,0,2862,0,3166,3579,1513,2597,0,2447,2525,1717,1618,3093,1.815,3.019,9.347,0.088,0.067,-0.023,0.804,-5.564,8.988,-1.175,0.054,1.814,sad
6.19,0,2512,417,0,2807,0,3200,3355,1515,2591,0,2447,2533,1761,1621,3092,1.781,3.089,9.210,0.080,0.084,-0.030,2.504,-3.706,10.321,-0.004,0.310,1.928,sad
6.20,0,2773,496,0,2969,0,3207,3557,1511,2591,0,2444,2525,1717,1645,3091,1.932,3.057,9.177,0.085,0.112,-0.042,4.262,-1.362,9.744,0.512,0.434,1.721,sad
6.21,0,2816,652,0,3008,0,3217,3546,1512,2588,0,2447,2535,1715,1677,3090,1.817,3.103,9.297,0.091,0.108,-0.056,4.544,-0.824,8.818,0.968,0.100,0.231,sad
6.22,0,2673,806,0,2921,0,3226,3371,1519,2633,0,2452,2539,1751,1611,3091,1.647,3.175,9.373,0.084,0.092,-0.047,3.100,-1.678,9.007,1.051,-0.062,-0.268,sad
6.23,0,2906,976,0,3071,0,3239,3547,1526,2587,0,2454,2551,1708,1611,3092,1.635,2.988,9.292,0.083,0.096,-0.054,2.782,-1.738,9.433,1.160,-0.080,-0.382,sad
6.24,0,2933,1139,0,3107,0,3242,3549,1527,2580,0,2455,2541,1705,1612,3093,1.686,3.177,9.373,0.109,0.074,-0.055,2.215,-1.829,9.448,1.296,-0.232,-0.586,sad
6.25,0,2791,1367,0,3054,0,3267,3327,1561,2570,0,2469,2555,1689,1590,3099,1.662,3.223,9.287,0.102,0.059,-0.051,1.520,-2.342,10.118,1.468,-0.376,-0.717,sad
6.26,0,3030,1535,0,3149,0,3260,3568,1564,2568,0,2471,2555,1689,1584,3099,1.640,3.184,9.342,0.094,0.057,-0.050,1.034,-2.540,10.388,1.496,-0.500,-0.723,sad
6.27,0,3071,1708,0,3171,0,3275,3563,1587,2555,33,2483,2572,1675,1576,3103,1.788,3.163,9.266,0.100,0.075,-0.060,0.646,-2.746,10.760,1.550,-0.695,-0.691,sad
6.28,0,2912,1802,0,3045,0,3280,3418,1643,2573,0,2478,2571,1676,1577,3099,1.506,3.141,9.342,0.114,0.065,-0.072,0.599,-2.909,11.011,1.535,-0.852,-0.703,sad
6.29,0,3146,1881,133,3169,0,3267,3598,1563,2571,0,2469,2555,1690,1587,3099,1.559,3.062,9.143,0.152,0.112,-0.105,0.668,-2.705,10.039,1.465,-0.790,-0.718,sad
6.30,83,3184,1991,327,3136,0,3255,3603,1525,2585,0,2463,2540,1707,1609,3096,1.542,3.017,9.251,0.211,0.139,-0.211,0.316,-2.243,8.777,1.120,-0.205,-0.583,sad
6.31,239,2978,2115,459,2946,0,3221,3302,1557,2571,0,2463,2532,1693,1553,3097,1.925,3.266,9.081,0.226,0.132,-0.254,-1.044,-3.417,11.837,0.853,0.009,-0.497,sad
6.32,387,3229,2274,687,2981,0,3179,3633,1573,2570,0,2473,2567,1687,1587,3099,1.530,3.797,9.330,0.188,0.105,-0.169,-1.607,-3.563,11.906,0.693,-0.331,-0.534,sad
6.33,540,3254,2437,784,2972,0,3167,3642,1519,2584,0,2453,2539,1707,1611,3092,1.425,3.436,9.301,0.149,0.050,-0.084,-0.893,-4.460,10.578,0.411,-0.762,-0.483,sad
6.34,734,3280,2523,953,2991,0,3170,3646,1553,2552,0,2462,2551,1740,1597,3089,1.604,3.393,9.179,0.165,0.022,-0.098,0.685,-6.735,12.337,0.569,-0.343,-0.398,sad
6.35,910,3306,2621,1077,3008,0,3153,3641,1553,2577,0,2462,2551,1694,1593,3095,1.525,3.505,9.244,0.149,0.013,-0.084,-0.081,-7.159,12.510,0.934,-0.139,-0.305,sad
6.36,957,3331,2694,1254,3026,0,3154,3639,1555,2574,0,2469,2549,1683,1592,3091,1.451,3.455,9.256,0.143,0.027,-0.047,-0.924,-6.364,10.305,1.246,-0.653,-0.109,sad
6.37,1077,3352,2767,1451,3025,0,3143,3541,1556,2573,0,2463,2552,1691,1592,3097,1.432,3.419,9.199,0.180,-0.006,-0.055,-0.242,-5.808,8.176,1.169,-0.592,-0.118,sad
6.38,1195,3409,2867,1672,3081,0,3134,3600,1557,2575,0,2460,2541,1689,1591,3093,1.482,3.433,9.052,0.173,-0.048,-0.041,-0.352,-5.916,7.906,1.036,-0.526,-0.184,sad
6.39,1281,3408,2896,1734,3039,0,3091,3440,1556,2572,0,2467,2555,1691,1511,3089,1.492,3.584,9.273,0.173,-0.051,-0.022,-0.622,-6.483,8.207,0.947,-0.462,-0.226,sad
6.40,1487,3472,2995,2054,3151,0,3097,3532,1635,2671,0,2467,2553,1692,1593,3099,1.441,3.670,9.309,0.187,-0.050,-0.019,-1.039,-6.060,6.282,0.712,-0.398,0.014,sad
6.41,1495,3291,2879,2007,2950,0,2863,3274,1557,2573,0,2463,2551,1689,1591,3096,1.501,3.622,9.230,0.175,-0.059,-0.002,-0.520,-6.254,6.117,0.503,-0.318,0.134,sad
6.42,1787,3525,3151,2309,3187,0,3019,3421,1558,2572,0,2467,2549,1692,1591,3081,1.496,3.730,9.158,0.161,-0.054,-0.001,0.666,-6.426,5.966,0.147,-0.070,0.093,sad
6.43,1926,3550,3216,2407,3200,0,2965,3344,1581,2572,0,2463,2553,1692,1579,3096,1.587,3.802,9.141,0.141,-0.034,0.003,1.551,-2.535,8.418,-0.404,1.081,-0.115,sad
6.44,2032,3576,3283,2501,3194,0,2908,3242,1559,2591,0,2468,2554,1691,1592,3097,1.626,3.788,9.230,0.112,-0.015,-0.001,3.646,-1.401,13.862,-0.268,0.648,-0.310,sad
6.45,2116,3604,3330,2580,3202,0,2835,3135,1531,2582,0,2451,2543,1704,1605,3095,1.602,3.632,9.136,0.126,-0.010,0.003,0.895,1.063,6.986,-0.626,0.699,-0.121,sad
6.46,2213,3633,3365,2643,3196,0,2718,2990,1496,2572,0,2419,2543,1701,1597,3095,1.616,3.680,9.057,0.144,-0.023,0.003,-0.127,-2.088,11.183,-0.775,0.565,0.087,sad
6.47,2298,3666,3409,2704,3185,0,2547,2799,1545,2581,2,2460,2547,1701,1597,3099,1.635,3.709,9.096,0.189,-0.031,0.002,-0.086,-2.126,10.788,-0.722,0.336,0.110,sad
6.48,2407,3667,3445,2762,3170,0,2343,2471,1573,2539,151,2477,2568,1685,1595,3099,1.690,3.785,9.177,0.219,-0.025,-0.007,0.828,-2.239,10.534,-0.746,-0.144,0.098,sad
6.49,2482,3696,3461,2800,3121,0,2047,1922,1561,2571,0,2471,2555,1655,1577,3099,1.638,3.773,9.112,0.231,-0.011,-0.007,1.611,-2.559,10.070,-0.723,-0.322,0.091,sad
6.50,2533,3713,3497,2828,3060,0,1627,989,1575,2570,0,2469,2556,1706,1589,3103,1.662,3.668,9.024,0.251,0.004,-0.006,2.090,-2.509,9.804,-0.721,-0.329,0.108,sad
6.51,2409,3504,3302,2624,2773,0,1040,13,1562,2571,0,2468,2554,1689,1589,3097,1.508,4.075,9.182,0.265,-0.012,-0.009,3.050,-2.550,9.045,-0.700,-0.194,0.096,sad
6.52,2661,3745,3526,2813,2834,0,703,0,1557,2571,0,2462,2549,1695,1592,3096,1.578,4.104,9.086,0.264,-0.007,-0.009,1.968,-2.856,9.565,-0.723,-0.153,0.079,sad
6.53,2688,3759,3556,2790,2640,0,401,0,1559,2575,0,2509,2551,1691,1592,3094,1.573,4.056,9.009,0.252,-0.011,-0.009,2.840,-4.683,12.079,-0.661,0.503,0.361,sad
6.54,2703,3766,3569,2765,2267,0,75,0,1565,2575,0,2463,2509,1741,1593,3097,1.547,3.634,8.859,0.192,0.009,-0.087,1.283,-3.697,10.676,-0.251,0.600,0.298,sad
6.55,2662,3790,3543,2672,1881,0,86,0,1559,2573,0,2461,2553,1693,1598,3093,1.791,4.168,9.055,0.366,-0.002,0.002,1.901,-3.002,9.462,-0.132,0.481,0.224,sad
6.56,2545,3791,3581,2602,1742,0,83,0,1557,2575,0,2461,2548,1695,1595,3097,1.638,4.123,8.978,0.405,0.015,-0.007,1.432,-3.053,9.735,-0.133,0.404,0.165,sad
6.57,2419,3781,3580,2522,1478,0,0,0,1562,2573,0,2461,2549,1717,1593,3089,1.805,4.144,9.005,0.438,0.005,0.009,1.645,-3.148,9.720,-0.088,0.371,0.148,sad
6.58,2333,3770,3551,2448,1344,0,0,0,1556,2575,0,2463,2549,1663,1596,3096,1.714,4.290,8.863,0.459,-0.003,0.001,1.547,-3.280,9.874,-0.066,0.256,0.110,sad
6.59,2270,3763,3521,2270,1012,0,0,0,1605,2572,25,2460,2549,1695,1491,3018,1.772,4.494,8.799,0.482,0.029,0.010,1.439,-3.019,9.699,-0.094,0.214,0.085,sad
6.60,2247,3728,3493,2113,880,0,0,0,1573,2568,0,2471,2555,1689,1587,3051,1.889,4.640,8.540,0.484,0.055,0.029,1.537,-3.014,9.371,-0.097,0.167,0.025,sad
6.61,2219,3687,3442,1824,759,0,0,0,1579,2556,58,2472,2557,1694,1586,3099,1.860,4.633,8.619,0.508,0.107,0.051,1.355,-3.206,9.780,-0.099,0.189,0.025,sad
6.62,2192,3607,3367,1875,532,0,0,0,1581,2555,17,2472,2565,1685,1583,3099,1.824,4.683,8.727,0.524,0.152,0.074,1.180,-3.136,9.687,-0.088,0.174,0.014,sad
6.63,2186,3440,3261,1706,469,0,0,0,1588,2565,15,2473,2565,1613,1574,3099,1.738,4.712,8.751,0.580,0.201,0.078,1.336,-3.225,9.689,-0.032,0.080,-0.007,sad
6.64,2186,3264,3152,1651,435,0,0,0,1580,2557,15,2472,2555,1679,1586,2989,1.980,5.246,8.906,0.561,0.204,0.083,1.544,-3.196,9.594,0.025,0.039,-0.017,sad
6.65,2226,3049,2981,1435,202,0,0,0,1587,2554,23,2472,2555,1673,1577,3091,1.516,4.853,8.468,0.711,0.124,0.053,1.556,-3.251,9.637,0.043,0.058,-0.031,sad
6.66,2278,2784,2907,1354,116,0,0,0,1593,2555,17,2475,2566,1681,1581,3081,1.520,5.152,8.495,0.815,0.121,0.060,1.379,-2.926,9.565,0.005,0.068,-0.008,sad
6.67,2254,2559,2690,1144,28,0,0,0,1595,2555,23,2477,2557,1679,1581,3101,1.630,5.236,8.526,0.896,0.113,0.061,1.520,-3.139,9.634,0.019,0.038,-0.015,sad
6.68,2204,2379,2604,1018,0,0,0,0,1595,2555,20,2476,2567,1679,1581,3097,1.518,5.406,8.440,0.983,0.170,0.025,1.525,-3.031,9.452,0.023,0.037,-0.006,sad
6.69,2064,2156,2292,949,0,0,0,0,1598,2537,12,2475,2567,1679,1579,3097,1.535,5.703,8.384,1.105,0.138,0.005,1.420,-3.177,9.479,0.025,0.076,0.024,sad
6.70,1926,1740,1767,755,0,0,0,0,1597,2554,17,2475,2568,1677,1583,3027,1.590,5.962,8.394,1.196,0.130,-0.087,1.549,-3.081,9.354,0.001,0.084,0.021,sad
6.71,1674,1280,1011,649,0,0,0,0,1599,2555,17,2475,2567,1681,1579,3099,1.836,6.043,8.018,1.342,0.261,-0.183,1.458,-2.792,9.395,-0.006,0.117,0.033,sad
6.72,1614,1105,304,458,0,0,0,0,1599,2552,20,2475,2569,1678,1581,3102,1.666,6.364,8.056,1.414,0.334,-0.303,1.465,-3.045,9.397,-0.022,0.119,0.045,sad
6.73,1518,880,0,321,0,0,0,0,1605,2553,17,2452,2567,1677,1581,3155,1.697,6.855,7.556,1.448,0.503,-0.467,1.477,-3.108,9.371,-0.029,0.120,0.056,sad
6.74,1445,561,0,87,0,0,0,0,1604,2553,15,2419,2549,1672,1580,3096,1.611,7.602,7.733,1.454,0.828,-0.640,1.434,-3.093,9.380,-0.017,0.118,0.048,sad
6.75,1271,183,0,0,0,0,0,0,1596,2557,514,2476,2568,1675,1579,3099,2.097,7.341,7.630,1.506,1.417,-0.860,1.516,-3.110,9.500,0.005,0.114,0.031,sad
6.76,1077,41,0,0,0,0,0,0,1605,2554,598,2477,2568,1651,1581,3098,1.152,7.499,6.835,1.454,1.654,-1.126,1.489,-3.079,9.419,0.005,0.104,0.026,sad
6.77,666,0,0,0,0,0,0,0,1605,2552,621,2451,2568,1677,1579,3099,0.443,7.479,6.349,1.255,1.464,-1.268,1.448,-3.072,9.407,0.004,0.109,0.027,sad
6.78,312,0,0,0,0,0,0,0,1605,2551,734,2477,2568,1675,1579,3101,-0.333,6.864,9.603,0.663,1.058,-1.344,1.434,-3.053,9.388,0.004,0.127,0.042,sad
6.79,0,0,0,0,0,0,0,0,1607,2536,852,2478,2569,1655,1579,3051,1.360,4.420,9.663,-0.119,0.517,-1.337,1.427,-3.029,9.433,-0.021,0.149,0.069,sad
6.80,0,0,0,0,0,0,0,0,1606,2553,911,2477,2568,1675,1579,3087,3.512,3.493,8.648,-0.606,0.521,-0.928,1.389,-3.074,9.491,-0.022,0.157,0.078,sad
6.81,0,0,0,0,0,0,0,0,1609,2541,1031,2476,2585,1675,1577,3099,1.939,2.847,9.354,-1.165,-0.211,-0.139,1.362,-3.144,9.450,-0.024,0.155,0.077,sad
6.82,0,0,0,0,0,0,0,0,45,413,1335,1427,2093,12,3531,4040,1.104,3.428,9.651,-1.518,-0.449,0.226,1.372,-3.105,9.452,-0.016,0.079,0.070,sad
6.83,0,0,0,0,0,0,0,0,40,491,1366,1496,2104,12,3483,3939,1.041,3.886,10.010,-1.729,-0.520,0.358,1.350,-3.108,9.512,-0.018,0.066,0.063,sad
6.84,0,0,0,0,0,0,0,0,46,549,1686,1507,2103,17,3419,3875,0.577,3.594,9.328,-1.948,-0.556,0.474,1.312,-3.127,9.433,-0.028,0.059,0.063,sad
6.85,0,0,0,0,0,0,0,0,45,743,1622,1566,2084,21,3360,3877,0.053,3.103,8.147,-1.958,-0.603,0.525,1.343,-3.191,9.445,-0.020,0.058,0.054,sad
6.86,0,0,0,0,0,0,0,0,0,750,1691,1641,2216,25,3605,4095,-0.407,3.388,8.866,-1.951,-0.726,0.511,1.276,-3.146,9.457,-0.010,0.052,0.049,sad
6.87,0,0,0,0,0,0,0,0,45,699,1617,1545,2093,12,3315,3784,-0.077,3.979,9.720,-2.048,-0.755,0.466,1.312,-3.122,9.448,-0.018,0.038,0.046,sad
6.88,0,0,0,0,0,0,0,0,43,735,1668,1625,2184,16,3480,3837,0.199,3.953,9.591,-2.148,-0.716,0.469,1.317,-3.206,9.421,-0.011,0.031,0.043,sad
6.89,0,0,0,0,0,0,0,0,43,757,1719,1608,2227,12,3501,4049,0.129,4.005,9.694,-2.174,-0.698,0.514,1.322,-3.141,9.438,-0.013,0.041,0.047,sad
6.90,0,0,0,0,0,0,0,0,47,652,1632,1417,2001,11,3101,3363,0.261,4.013,9.936,-2.205,-0.731,0.576,1.350,-3.120,9.433,-0.020,0.039,0.046,sad
6.91,0,0,0,0,0,0,0,0,50,735,1753,1529,2124,23,3245,3615,0.373,4.061,9.960,-2.206,-0.727,0.645,1.293,-3.146,9.424,-0.033,0.042,0.049,sad
6.92,0,0,0,0,0,0,0,0,58,843,1865,1669,2325,18,3626,4023,0.496,4.015,9.814,-2.157,-0.695,0.743,1.290,-3.201,9.424,-0.031,0.036,0.047,sad
6.93,0,0,0,0,0,0,0,0,74,775,1983,1683,2335,21,3604,4055,0.548,4.214,10.032,-2.069,-0.678,0.854,1.259,-3.153,9.428,-0.025,0.026,0.041,sad
6.94,0,0,0,0,0,0,0,0,47,780,1891,1709,2351,18,3603,4049,0.702,4.345,10.178,-1.977,-0.566,0.915,1.264,-3.084,9.357,-0.035,0.027,0.048,sad
6.95,0,0,0,0,0,0,0,0,61,837,1919,1712,2376,20,3588,4021,0.481,4.348,9.895,-1.894,-0.228,0.875,1.281,-3.179,9.424,-0.033,0.025,0.050,sad
6.96,0,0,0,0,0,0,0,0,69,846,1952,1737,2395,21,3579,4015,-0.654,3.864,9.440,-1.736,-0.008,0.784,1.295,-3.163,9.428,-0.034,0.021,0.054,sad
6.97,0,0,0,0,0,0,0,0,85,995,1896,1701,2406,0,3549,3975,-1.415,3.747,9.172,-1.459,-0.106,0.640,1.295,-3.132,9.440,-0.035,0.016,0.055,sad
6.98,0,0,0,0,0,0,0,0,99,943,1937,1663,2419,25,3491,3869,-1.360,3.938,9.337,-1.131,-0.399,0.511,1.281,-3.156,9.392,-0.034,0.017,0.056,sad
6.99,0,0,0,0,0,0,0,0,111,979,1922,1711,2423,31,3471,3847,-0.850,4.963,10.269,-0.841,-0.690,0.404,1.226,-3.218,9.455,-0.034,0.016,0.047,sad
7.00,0,0,0,0,0,0,0,0,115,1019,1937,1723,2445,28,3465,3823,-0.457,6.457,11.147,-0.578,-1.075,0.311,1.293,-3.170,9.515,-0.038,0.010,0.053,sad
7.01,0,0,0,0,0,0,0,0,139,1144,2014,1830,2522,36,3526,3899,0.117,9.603,14.301,-0.969,-1.103,0.137,1.288,-3.244,9.378,-0.035,0.031,0.061,sad
7.02,0,0,0,0,0,0,0,0,116,1174,1899,1727,2411,33,3303,3671,-2.224,9.582,13.120,-1.772,-0.969,-0.101,1.132,-3.239,9.445,-0.033,0.032,0.059,sad
7.03,0,0,0,0,0,0,0,0,115,1183,1937,1791,2447,30,3355,3685,-2.607,8.499,8.294,-1.992,-1.492,-0.312,1.166,-3.357,9.567,-0.030,0.029,0.048,sad
7.04,0,0,0,0,0,0,0,0,79,1299,1937,1779,2456,24,3317,3637,-0.211,7.748,5.227,-1.565,-1.309,-0.387,1.417,-3.455,9.790,-0.030,0.041,0.051,sad
7.05,0,0,0,0,0,0,0,0,54,1205,1988,1867,2511,19,3384,3739,1.264,8.437,3.869,-1.264,-0.547,-0.549,1.262,-3.333,9.689,-0.055,0.058,0.069,sad
7.06,0,0,0,0,0,0,0,0,78,1253,1983,1861,2503,31,3381,3740,0.215,7.657,2.926,-0.722,-0.808,-0.507,1.195,-3.211,9.495,-0.039,0.075,0.072,sad
7.07,0,0,0,0,0,0,0,0,92,1133,1947,1956,2423,28,3229,3593,3.282,8.471,0.120,0.601,0.753,0.152,1.089,-3.342,9.498,-0.032,0.058,0.062,sad
7.08,0,0,0,0,0,0,0,0,57,1143,1891,2010,2390,22,3115,3513,2.574,4.183,9.883,0.499,0.939,0.351,1.075,-3.220,9.268,-0.030,0.048,0.062,sad
7.09,0,0,0,0,0,0,0,0,55,1161,1901,1947,2344,26,3133,3467,3.912,1.623,14.087,0.267,0.456,0.813,1.123,-3.201,9.455,-0.041,0.039,0.070,sad
7.10,0,0,0,0,0,0,0,0,166,1357,2062,2301,2585,44,3534,4000,1.913,-1.539,9.076,0.668,0.331,0.929,1.211,-3.211,9.416,-0.047,0.047,0.078,sad
7.11,0,0,0,0,0,0,0,0,168,1321,2078,2215,2591,39,3475,3944,-0.304,-0.113,7.587,0.846,0.214,0.843,1.475,-3.457,9.359,-0.035,0.052,0.074,sad
7.12,0,0,0,0,0,0,0,562,457,1618,2147,2393,2581,51,3483,4059,-0.960,0.215,9.855,1.242,-0.102,0.848,1.195,-3.338,9.349,-0.035,0.057,0.061,sad
7.13,0,0,0,0,0,0,209,1424,379,1706,2147,2420,2483,51,3414,4040,-1.793,1.808,11.231,1.264,-0.595,0.157,1.195,-3.270,9.352,-0.040,0.050,0.064,sad
7.14,0,0,0,0,68,0,372,1965,499,1672,2044,2403,2247,47,3096,3749,3.021,3.397,9.984,1.049,-0.623,-0.083,1.202,-3.194,9.388,-0.099,0.000,0.057,sad
7.15,0,0,0,0,234,0,738,2318,807,1791,2116,2442,2268,46,2933,3701,3.675,2.808,9.469,0.819,-0.652,-0.211,1.168,-3.323,9.321,-0.128,-0.034,0.044,sad
7.16,0,0,0,0,374,0,937,2514,893,1966,2152,2607,2396,51,2761,3853,3.656,3.000,9.388,0.738,-0.385,-0.274,1.240,-3.297,9.328,-0.166,-0.048,0.028,sad
7.17,0,87,0,0,759,0,1337,2633,1130,2189,2162,2693,2456,51,1991,3723,4.745,3.488,8.174,0.421,0.444,-0.185,1.130,-3.397,9.311,-0.194,-0.029,0.033,sad
7.18,0,485,0,0,888,0,1653,2831,1637,2349,2183,2792,2347,47,1486,3640,2.090,3.005,9.950,0.466,0.710,-0.317,1.159,-3.527,9.407,-0.201,-0.010,0.035,sad
7.19,0,881,0,0,955,0,1909,2853,1772,2391,2188,2837,2187,57,1213,3389,1.942,3.677,9.855,0.429,0.723,-0.268,1.125,-3.589,9.388,-0.196,0.002,0.037,sad
7.20,0,1299,0,0,1289,0,2032,3049,2133,2407,2188,2925,1715,47,792,2931,1.987,3.184,9.550,0.306,0.735,-0.335,1.259,-3.402,9.369,-0.224,0.042,0.042,sad
7.21,0,1618,0,0,1571,0,2154,3168,2299,2248,2154,3043,1171,39,710,2311,1.942,3.414,9.512,0.263,0.716,-0.399,1.312,-3.500,9.340,-0.209,0.077,0.046,sad
7.22,81,1901,0,0,1629,0,2224,3264,2415,2060,2075,2983,843,51,313,1964,1.666,3.448,9.711,0.241,0.650,-0.388,1.338,-3.290,9.400,-0.203,0.082,0.037,sad
7.23,194,2151,0,0,1873,0,2289,3344,2147,1822,1901,2931,443,61,2210,1657,1.171,3.960,10.870,0.290,0.475,-0.238,1.252,-2.940,9.397,-0.313,0.112,-0.002,sad
7.24,316,2295,123,0,1999,0,2335,3392,1621,2549,1507,2450,2571,1661,1567,3102,1.329,3.759,9.728,0.118,0.272,-0.081,1.073,-3.785,9.225,-0.369,0.224,-0.091,sad
7.25,355,2445,394,0,2146,0,2384,3407,1624,2547,1522,2483,2571,1663,1572,3208,1.410,3.479,9.503,0.059,0.197,-0.023,1.140,-3.682,9.304,-0.400,0.232,-0.097,sad
7.26,380,2535,611,0,2133,0,2434,3455,1543,2597,1507,2451,2523,1719,1624,3091,1.396,3.333,9.459,0.050,0.151,-0.031,1.264,-3.970,9.227,-0.426,0.344,-0.161,sad
7.27,368,2605,801,0,2169,0,2479,3474,1568,2579,1525,2431,2536,1703,1607,3095,1.463,3.144,9.278,0.082,0.091,-0.043,1.360,-3.970,9.242,-0.550,0.311,-0.128,sad
7.28,389,2683,1019,181,2231,0,2502,3493,1573,2587,1530,2453,2539,1695,1497,3092,1.468,3.196,9.280,0.150,0.074,-0.074,1.032,-4.171,8.945,-0.599,0.319,-0.133,sad
7.29,365,2519,1346,302,2108,0,2555,3299,1574,2579,1510,2456,2538,1699,1598,3103,1.477,3.321,9.316,0.159,0.051,-0.070,1.381,-4.324,9.131,-0.644,0.384,-0.127,sad
7.30,567,2805,1627,533,2311,0,2631,3530,1565,2577,1494,2458,2540,1699,1598,3091,1.496,3.428,9.330,0.184,0.062,-0.060,1.221,-4.547,9.139,-0.695,0.487,-0.103,sad
7.31,578,2864,1872,624,2391,0,2676,3536,1565,2577,1451,2456,2540,1695,1599,3094,1.389,3.309,9.246,0.197,0.030,-0.065,1.243,-4.506,9.060,-0.763,0.532,-0.081,sad
7.32,677,2903,2077,762,2448,0,2735,3556,1561,2579,1126,2459,2543,1683,1598,3093,1.362,3.503,9.254,0.234,-0.004,-0.080,1.094,-4.712,9.146,-0.874,0.639,0.047,sad
7.33,785,2959,2260,961,2522,0,2768,3556,1559,2579,0,2459,2551,1699,1583,3093,1.312,3.632,9.323,0.194,-0.015,-0.050,1.180,-5.143,9.014,-1.059,0.684,0.254,sad
7.34,853,2998,2414,1154,2580,0,2821,3577,1555,2579,0,2457,2580,1695,1598,3096,1.341,3.575,9.210,0.168,-0.004,-0.033,1.006,-5.128,9.096,-1.190,0.652,0.439,sad
7.35,939,3050,2514,1323,2639,0,2860,3579,1551,2579,0,2459,2538,1699,1597,3093,1.506,3.383,9.139,0.168,0.016,-0.050,0.819,-5.246,8.959,-1.371,0.505,0.939,sad
7.36,1040,3102,2634,1527,2694,0,2895,3552,1511,2580,0,2457,2543,1699,1597,3093,1.393,3.622,9.218,0.191,-0.013,-0.062,0.725,-5.990,9.005,-1.488,0.334,1.405,sad
7.37,1126,3137,2739,1702,2713,0,2937,3599,1547,2581,0,2456,2537,1695,1597,3095,1.429,3.776,9.187,0.175,0.012,-0.051,1.058,-6.819,9.369,-1.565,0.272,1.666,sad
7.38,1216,3179,2831,1890,2704,0,2976,3605,1483,2579,0,2457,2547,1695,1597,3096,1.458,3.778,9.230,0.146,0.014,-0.031,0.393,-6.752,8.234,-1.455,0.493,2.005,sad
7.39,1341,3231,2827,2043,2742,0,2961,3604,1531,2581,0,2457,2542,1693,1599,3093,1.482,3.704,9.139,0.133,-0.008,-0.022,0.900,-6.630,11.138,-0.459,0.986,2.545,sad
7.40,1411,3293,2994,2179,2747,0,3011,3582,1545,2579,0,2461,2547,1701,1599,3093,1.422,3.666,9.208,0.147,-0.009,-0.012,0.982,-3.263,12.234,0.687,1.426,2.759,sad
7.41,1499,3344,3065,2298,2779,0,3008,3571,1491,2583,0,2447,2531,1715,1613,3095,1.432,3.776,9.191,0.117,-0.007,0.014,2.365,-1.092,10.867,1.139,0.419,1.360,sad
7.42,1578,3420,3136,2412,2818,0,3019,3569,1573,2557,0,2473,2567,1679,1579,3097,1.453,3.718,9.124,0.122,0.013,-0.004,3.050,-0.196,8.413,1.369,0.122,0.625,sad
7.43,1648,3451,3198,2478,2827,0,2992,3530,1587,2553,0,2479,2572,1675,1576,3099,1.381,3.792,9.076,0.112,0.019,-0.004,1.970,-0.785,9.333,1.410,-0.161,0.300,sad
7.44,1749,3479,3217,2559,2823,0,2957,3507,1591,2551,0,2485,2578,1671,1549,3103,1.484,3.816,9.127,0.095,0.019,-0.007,0.019,-1.149,9.431,1.554,-0.755,0.057,sad
7.45,1775,3496,3275,2630,2837,0,2956,3499,1589,2553,0,2533,2575,1672,1575,3103,1.446,3.821,9.115,0.078,0.036,-0.014,-0.778,-1.355,9.981,1.674,-0.942,0.116,sad
7.46,1858,3511,3306,2689,2825,0,2943,3481,9,0,30,0,0,0,0,569,1.499,3.816,9.151,0.064,0.053,-0.011,-0.852,-1.537,10.525,1.727,-1.131,0.093,sad
7.47,1968,3536,3344,2733,2803,0,2937,3479,13,0,0,0,0,0,0,581,1.420,3.776,9.134,0.044,0.053,-0.013,-1.065,-1.693,10.295,1.726,-1.262,-0.029,sad
7.48,2055,3545,3362,2787,2802,0,2928,3481,21,17,0,0,0,0,0,591,1.448,3.833,9.184,0.034,0.042,-0.005,-0.625,-2.011,10.894,1.635,-1.284,-0.319,sad
7.49,2112,3563,3389,2814,2797,0,2926,3465,25,0,0,0,0,71,0,612,1.415,3.783,9.141,0.039,0.041,-0.004,-0.498,-2.239,11.190,1.601,-1.262,-0.505,sad
7.50,2175,3569,3408,2853,2803,0,2911,3451,0,0,0,0,0,0,0,541,1.446,3.754,9.170,0.033,0.051,-0.006,-0.436,-2.377,10.776,1.516,-1.052,-0.785,sad
7.51,2208,3568,3408,2889,2768,269,2882,3429,0,0,0,0,0,0,0,499,1.458,3.795,9.153,0.044,0.038,-0.011,-1.290,-2.215,9.845,1.188,-0.970,-0.914,sad
7.52,2288,3614,3441,2903,2803,373,2864,3410,1593,2555,0,2535,2569,1677,1579,3103,1.427,3.795,9.110,0.046,0.025,-0.012,-0.769,-2.789,10.269,0.949,-0.950,-1.001,sad
7.53,2333,3606,3456,2926,2816,490,2839,3389,1510,2595,0,2445,2534,1718,1615,3091,1.458,3.809,9.110,0.058,0.014,-0.017,-0.268,-5.291,14.054,1.090,-0.639,-1.091,sad
7.54,2401,3620,3454,2944,2825,578,2807,3351,1523,2591,0,2449,2537,1711,1611,3093,1.415,3.828,9.175,0.052,0.024,-0.010,-2.274,-5.456,13.587,1.678,-0.733,-1.025,sad
7.55,2413,3626,3472,2970,2810,774,2794,3317,1523,2589,0,2451,2532,1711,1611,3095,1.475,3.795,9.127,0.050,0.019,-0.013,-2.784,-5.215,11.796,1.720,-0.875,-0.875,sad
7.56,2462,3627,3491,2987,2840,878,2774,3281,1519,2589,74,2455,2541,1710,1611,3083,1.444,3.795,9.165,0.060,0.006,-0.007,-1.803,-5.981,7.810,1.395,-0.773,-0.468,sad
7.57,2522,3452,3520,2911,2800,983,2749,3036,1611,2590,0,2455,2542,1710,1645,3095,1.374,3.802,9.098,0.077,0.012,-0.011,-0.946,-7.106,6.505,0.505,-1.085,-0.370,sad
7.58,2549,3651,3506,3024,2869,1019,2688,3174,1526,2607,0,2455,2539,1711,1608,3093,1.487,3.816,9.112,0.067,-0.004,-0.010,0.005,-7.963,7.075,0.248,-1.119,-0.451,sad
7.59,2597,3662,3530,3037,2896,1138,2647,3098,1527,2588,0,2453,2541,1622,1611,3093,1.396,3.821,9.036,0.074,-0.046,-0.001,0.498,-8.995,6.206,-0.140,-0.771,-0.928,sad
7.60,2624,3675,3537,3043,2939,1083,2559,2983,1527,2589,0,2454,2543,1709,1609,3094,1.463,3.843,9.079,0.087,-0.046,0.009,0.534,-9.670,1.887,-0.996,0.169,-1.544,sad
7.61,2640,3684,3557,3050,2951,891,2471,2827,1515,2589,0,2453,2541,1695,1607,3097,1.506,3.857,9.141,0.064,0.000,0.009,-1.034,-9.373,3.179,-1.407,0.781,-1.650,sad
7.62,2622,3696,3568,2985,2961,634,2352,2631,1533,2589,0,2456,2540,1720,1619,3209,1.532,3.833,9.105,0.064,-0.007,0.005,1.386,-0.864,15.349,-0.340,0.751,-1.862,sad
7.63,2628,3702,3575,3046,2956,223,2192,2309,1515,2595,104,2447,2535,1711,1621,3094,1.535,3.728,9.148,0.134,-0.028,0.002,-5.533,2.478,7.374,-1.118,0.621,-0.692,sad
7.64,2642,3725,3599,3038,2930,0,1874,1750,1511,2595,0,2446,2533,1717,1624,3093,1.511,3.780,9.036,0.168,-0.026,-0.016,-6.924,-2.236,13.623,-1.130,0.424,-0.131,sad
7.65,2698,3739,3620,3041,2862,0,1471,1071,1562,2570,0,2467,2555,1688,1587,3091,1.623,3.876,9.100,0.185,0.012,-0.027,-2.270,-1.171,10.372,-0.995,-0.504,0.131,sad
7.66,2734,3743,3600,3046,2715,0,977,407,0,2727,0,47,0,35,41,3625,1.618,4.034,9.067,0.227,0.041,-0.022,2.428,-2.459,9.699,-1.073,-0.896,0.060,sad
7.67,2793,3749,3623,3033,2448,0,541,0,0,0,0,0,0,0,443,2675,1.573,3.910,9.057,0.254,0.054,-0.027,2.710,-2.696,9.349,-1.093,-0.705,0.122,sad
7.68,2811,3769,3645,3034,1853,0,289,0,1541,2583,0,2455,2543,1705,1653,3096,1.499,3.871,8.751,0.323,0.065,-0.026,4.353,-2.998,8.892,-0.874,-0.037,0.200,sad
7.69,2829,3759,3623,3013,1675,0,6,0,1531,2587,0,2451,2541,1706,1607,3092,1.592,3.460,8.772,0.382,0.069,-0.051,4.063,-6.598,12.129,-0.599,0.744,0.356,sad
7.70,2607,3520,3414,2928,1238,0,0,0,1557,2583,0,2450,2549,1695,1595,3093,1.140,4.451,9.258,0.405,0.074,-0.031,-0.359,-2.811,10.060,-0.524,0.769,0.396,sad
7.71,2811,3717,3620,2917,1076,0,0,0,1621,2566,135,2471,2567,1683,1581,3099,1.465,4.290,8.899,0.486,0.114,0.002,1.647,-3.306,9.747,-0.250,0.643,0.302,sad
7.72,2832,3693,3605,2880,898,0,0,0,1583,2557,0,2460,2565,1657,1580,3099,1.197,4.302,8.947,0.521,0.136,0.014,0.673,-3.675,10.606,-0.199,0.332,0.221,sad
7.73,2871,3631,3583,2802,817,0,0,0,1575,2566,0,2469,2556,1725,1583,3095,1.602,4.453,8.964,0.554,0.188,0.049,1.492,-3.567,10.001,-0.194,0.321,0.195,sad
7.74,2903,3536,3561,2704,659,0,0,0,1553,2568,17,2467,2555,1694,1588,3115,1.539,4.549,8.768,0.588,0.224,0.076,1.283,-3.247,9.570,-0.183,0.198,0.114,sad
7.75,2909,3376,3506,2631,604,0,0,0,1573,2569,15,2470,2555,1687,1586,3096,1.439,4.633,8.780,0.600,0.242,0.070,1.073,-3.081,9.424,-0.212,0.130,0.093,sad
7.76,2917,3170,3457,2531,528,0,0,0,1575,2649,12,2471,2567,1686,1589,3097,1.427,4.793,8.705,0.570,0.251,0.034,1.056,-3.287,9.491,-0.153,0.108,0.112,sad
7.77,2893,2838,3277,2372,337,0,0,0,1607,2568,20,2472,2556,1688,1589,3097,1.372,4.843,8.657,0.568,0.270,0.026,1.046,-3.409,9.507,-0.060,0.080,0.089,sad
7.78,2985,2650,3106,2282,201,0,0,0,1575,2565,30,2471,2556,1679,1586,3098,1.358,5.109,8.619,0.559,0.339,-0.013,1.144,-3.203,9.491,-0.074,0.076,0.062,sad
7.79,3025,2494,2933,2134,208,0,0,0,1583,2555,33,2475,2565,1683,1583,3097,1.257,5.155,8.533,0.562,0.378,-0.023,1.214,-3.316,9.445,-0.076,0.083,0.059,sad
7.80,3056,2352,2863,2032,0,0,0,0,1583,2555,63,2473,2568,1682,1581,3097,1.180,5.203,8.468,0.570,0.370,-0.061,1.132,-3.373,9.464,-0.038,0.083,0.033,sad
7.81,3103,2086,2751,1855,0,0,0,0,1587,2554,53,2475,2577,1681,1581,3100,1.149,5.404,8.413,0.555,0.353,-0.126,1.142,-3.292,9.390,-0.021,0.076,0.018,sad
7.82,3120,1889,2557,1686,0,0,0,0,1587,2556,53,2474,2571,1681,1581,3098,0.936,5.555,8.310,0.543,0.276,-0.196,1.211,-3.342,9.464,-0.012,0.088,0.015,sad
7.83,3117,1623,2177,1507,0,0,0,0,1587,2553,51,2473,2566,1681,1580,3098,0.781,5.562,8.298,0.559,0.188,-0.285,1.132,-3.215,9.373,0.005,0.076,0.021,sad
7.84,3114,1583,1872,1394,0,0,0,0,1589,2553,99,2415,2567,1677,1581,3098,0.974,5.595,8.370,0.631,0.161,-0.385,1.195,-3.179,9.397,-0.009,0.072,0.020,sad
7.85,3094,1453,1641,1318,0,0,0,0,1639,2555,94,2476,2568,1715,1583,3115,0.996,5.768,8.380,0.690,0.206,-0.488,1.176,-3.153,9.258,-0.036,0.049,0.033,sad
7.86,3110,1360,1457,1441,0,0,0,0,1591,2555,923,2473,2557,1677,1581,3099,0.881,5.825,8.234,0.798,0.208,-0.599,1.183,-3.378,9.433,-0.064,0.075,0.043,sad
7.87,2977,1185,829,1341,0,0,0,0,1591,2554,1062,2472,2555,1669,1579,3095,0.699,5.938,8.191,0.928,0.206,-0.720,1.190,-3.364,9.390,-0.050,0.107,0.060,sad
7.88,3056,1131,366,1129,0,0,0,0,1599,2553,1138,2472,2558,1679,1581,3099,0.668,6.088,8.143,1.092,0.235,-0.896,1.109,-3.335,9.538,-0.052,0.113,0.059,sad
7.89,3005,742,0,575,0,0,0,0,1589,2555,1261,2473,2556,1675,1577,3095,0.565,6.479,8.033,1.260,0.180,-1.104,1.176,-3.361,9.301,-0.087,0.094,0.068,sad
7.90,2869,494,0,415,0,0,0,0,1597,2532,1282,2478,2571,1683,1583,3101,0.503,6.673,8.116,1.371,0.191,-1.269,1.120,-3.338,9.407,-0.055,0.101,0.044,sad
7.91,2672,149,0,155,0,0,0,0,179,699,1863,2167,960,48,2885,3897,-0.318,6.778,7.681,1.442,0.215,-1.455,1.118,-3.438,9.452,-0.023,0.045,0.045,sad
7.92,2375,0,0,0,0,0,0,0,294,776,1911,2264,1111,46,2957,3922,0.141,7.147,7.863,1.497,0.357,-1.632,1.097,-3.371,9.388,-0.023,0.032,0.035,sad
7.93,1999,0,0,0,0,0,0,0,311,846,2034,2395,1275,44,3080,4061,-0.412,7.582,7.314,1.521,0.509,-1.766,1.104,-3.436,9.433,-0.012,0.021,0.027,sad
7.94,1395,0,0,0,0,0,0,0,333,894,2042,2403,1333,47,3133,4031,-0.737,9.131,7.570,1.328,0.554,-1.902,1.087,-3.395,9.364,-0.004,0.010,0.025,sad
7.95,727,0,0,0,0,0,0,0,342,971,2067,2468,1561,46,3150,4024,-1.257,7.973,6.833,0.913,0.323,-2.023,1.144,-3.414,9.354,0.009,-0.005,0.009,sad
7.96,144,0,0,0,0,0,0,0,330,1175,2106,2605,1775,51,3229,4071,3.330,5.847,12.014,-0.045,-0.430,-1.662,1.149,-3.409,9.419,-0.004,-0.005,0.026,sad
7.97,155,0,0,0,0,0,0,0,328,1163,2073,2615,1892,57,3250,4095,8.143,3.955,8.543,-1.052,-0.600,0.426,1.132,-3.390,9.407,-0.011,-0.016,0.021,sad
7.98,128,0,0,0,0,0,0,0,373,1203,1914,2507,1932,50,3089,3741,2.239,2.923,7.125,-1.009,-0.471,1.342,1.144,-3.405,9.352,-0.019,-0.034,0.015,sad
7.99,21,0,0,0,0,0,0,0,427,1131,1911,2387,1995,61,2927,3337,0.201,3.388,8.121,-1.171,-0.931,1.377,1.137,-3.381,9.349,-0.035,-0.026,0.016,sad
8.00,1,0,0,0,0,0,0,0,527,1293,1963,2643,2267,57,3275,3939,-0.773,3.419,8.780,-1.278,-0.836,1.036,1.173,-3.436,9.467,-0.028,-0.012,0.017,sad
8.01,9,0,0,0,0,0,0,0,446,1297,2060,2709,2404,53,3381,4085,-0.644,3.972,9.706,-1.457,-0.815,0.907,1.154,-3.421,9.376,-0.030,0.007,0.020,sad
8.02,4,0,0,0,0,0,0,0,537,1413,2180,2743,2469,51,3420,4076,-0.534,4.238,9.261,-1.687,-0.869,0.758,1.140,-3.474,9.359,-0.024,0.011,0.027,sad
8.03,26,0,0,0,0,0,0,0,540,1471,2183,2713,2548,53,3405,4061,-0.354,4.432,9.055,-1.765,-0.858,0.669,1.173,-3.448,9.414,-0.018,0.033,0.029,sad
8.04,19,0,0,0,0,0,0,0,663,1621,2178,2803,2543,47,3371,4059,-0.426,4.587,9.594,-1.782,-0.861,0.787,1.132,-3.409,9.280,-0.007,0.059,0.043,sad
8.05,7,0,0,0,0,0,0,0,811,1543,2183,2824,2583,51,3391,4000,-0.084,5.124,10.396,-1.795,-0.761,0.968,1.156,-3.515,9.462,0.006,0.061,0.039,sad
8.06,0,0,0,0,0,0,0,0,862,1640,2180,2855,2549,51,3349,3996,-0.017,5.248,10.314,-1.791,-0.590,1.240,1.168,-3.443,9.385,0.005,0.081,0.044,sad
8.07,0,0,0,0,0,0,0,0,1005,1687,2183,2859,2541,49,3335,3961,-0.022,5.559,10.290,-1.742,-0.476,1.457,1.099,-3.424,9.412,0.013,0.074,0.037,sad
8.08,0,0,0,0,0,0,0,0,967,1671,2167,2921,2538,47,3314,3949,0.041,5.607,9.673,-1.670,-0.204,1.555,1.101,-3.405,9.433,0.022,0.064,0.035,sad
