timestamp,L1,L2,L3,L4,L5,L6,L7,L8,R1,R2,R3,R4,R5,R6,R7,R8,acc_x_left,acc_y_left,acc_z_left,gyro_x_left,gyro_y_left,gyro_z_left,acc_x_right,acc_y_right,acc_z_right,gyro_x_right,gyro_y_right,gyro_z_right,mood
0,3568,3111,3171,2375,343,0,0,0,1587,2554,0,2477,2567,1675,1579,3098,1.396,5.239,8.279,0.406,0.223,-0.024,2.236,-2.947,9.428,0.029,0.149,0.044,sad
0.01,3529,2835,3006,2219,144,0,0,0,1583,2503,30,2475,2621,1683,1581,3099,1.566,5.349,8.49,0.406,0.187,-0.089,2.32,-2.847,9.218,0.021,0.167,0.05,sad
0.02,3472,2666,2896,2096,134,0,0,0,1589,2557,0,2475,2567,1682,1583,3100,1.384,5.435,8.377,0.382,0.207,-0.201,2.066,-2.995,9.419,0.011,0.196,0.07,sad
0.03,3375,2469,2849,1983,0,0,0,0,1593,2556,0,2473,2575,1683,1581,3099,1.286,5.459,8.174,0.356,0.197,-0.312,2.284,-2.895,9.278,-0.016,0.136,0.031,sad
0.04,3171,2256,2649,1858,0,0,0,0,1592,2555,0,2475,2605,1684,1582,3099,1.147,5.703,8.341,0.327,0.055,-0.5,2.301,-3.086,9.455,0.011,0.16,0.049,sad
0.05,3025,2027,2402,1756,0,0,0,0,1499,2556,2,2476,2567,1679,1581,3099,1.511,5.607,8.167,0.351,-0.226,-0.743,2.267,-2.871,9.261,-0.004,0.254,0.087,sad
0.06,3030,1803,2158,1573,0,0,0,0,1593,2557,5,2468,2567,1686,1583,3100,1.432,5.772,7.954,0.349,-0.399,-0.998,2.43,-2.598,8.751,-0.081,0.406,0.166,sad
0.07,3007,1614,1925,1506,0,0,0,0,1593,2557,12,2477,2567,1683,1583,3099,1.322,5.909,8.071,0.303,-0.471,-1.24,2.049,-2.782,9.268,-0.274,0.479,0.3,sad
0.08,3003,1347,1653,1471,0,0,0,0,1593,2580,20,2473,2663,1681,1587,3097,1.252,5.954,7.932,0.243,-0.614,-1.467,1.867,-3.086,9.112,-0.271,0.499,0.283,sad
0.09,2953,1221,1342,1429,0,0,0,0,1593,2555,43,2473,2565,1683,1583,3096,1.027,6.084,7.92,0.17,-0.738,-1.628,2.507,-3.112,8.389,-0.242,0.725,0.343,sad
0.1,2925,1123,966,1373,0,0,0,0,1608,2556,15,2470,2567,1685,1583,3100,0.821,6.069,7.896,0.043,-0.764,-1.748,1.255,-3.608,10.501,-0.258,0.57,0.309,sad
0.11,2674,1022,611,1328,0,0,0,0,1597,2571,25,2476,2568,1685,1583,3096,0.713,6.065,7.74,-0.077,-0.84,-1.852,1.47,-3.347,10.034,-0.174,0.492,0.252,sad
0.12,2831,849,404,1325,0,0,0,0,1604,2551,53,2477,2567,1675,1578,3063,0.402,6.065,7.681,-0.172,-0.942,-1.941,1.13,-3.369,9.823,-0.196,0.488,0.241,sad
0.13,2786,749,236,1280,0,0,0,0,1591,2550,0,2476,2571,1672,1570,3101,0.376,5.966,7.968,-0.288,-1.029,-2.014,1.257,-3.462,9.766,-0.192,0.378,0.31,sad
0.14,2766,766,0,1163,0,0,0,0,1604,2551,61,2477,2569,1651,1577,3101,0.031,5.909,8.025,-0.356,-1.061,-2.057,1.14,-3.318,9.23,-0.168,0.352,0.257,sad
0.15,2735,640,0,1087,0,0,0,0,1604,2551,772,2478,2568,1672,1578,3098,0.275,5.667,8.042,-0.401,-1.098,-2.086,1.164,-3.56,9.397,-0.085,0.388,0.211,sad
0.16,2731,611,0,985,0,0,0,0,1596,2543,1092,2477,2571,1674,1515,3099,0.323,5.737,8.188,-0.441,-1.175,-2.105,0.994,-3.845,9.464,-0.053,0.319,0.145,sad
0.17,2701,528,0,848,0,0,0,0,758,759,1768,2204,1070,60,2637,4095,0.302,5.497,8.195,-0.482,-1.206,-2.122,0.898,-3.644,9.38,-0.025,0.167,0.058,sad
0.18,2659,459,0,784,0,0,0,0,859,567,1870,2443,985,47,2457,4095,-0.05,5.315,8.435,-0.509,-1.227,-2.125,0.903,-3.685,9.378,-0.012,0.125,0.038,sad
0.19,2599,380,0,677,0,0,0,0,1021,491,1914,2513,915,48,2404,4095,0.017,5.155,8.358,-0.52,-1.27,-2.11,0.893,-3.649,9.301,-0.009,0.111,0.027,sad
0.2,2448,218,0,551,0,0,0,0,1067,466,1911,2601,713,51,2421,4095,0.031,5.104,8.478,-0.53,-1.31,-2.106,0.905,-3.651,9.388,-0.003,0.102,0.007,sad
0.21,2154,73,0,229,0,0,0,0,1130,553,1986,2735,667,71,2372,4095,0.026,4.99,8.863,-0.493,-1.468,-2.217,0.814,-3.318,9.397,0.015,0.068,0.023,sad
0.22,1475,0,0,0,0,0,0,0,1287,355,1983,2789,671,51,2349,4095,0.591,5.574,8.899,-0.533,-1.431,-2.559,0.766,-3.285,9.455,-0.01,0.068,0.041,sad
0.23,740,0,0,0,0,0,0,0,1375,340,1986,2830,669,51,2311,4095,-0.704,6.807,9.742,-1.007,-1.214,-2.681,0.891,-3.591,9.323,-0.012,0.069,0.017,sad
0.24,67,0,0,0,0,0,0,0,1514,319,1993,2953,683,49,2439,4095,-6.218,10.108,11.954,-1.104,-1.366,-2.571,0.826,-3.615,9.333,-0.006,0.066,0.016,sad
0.25,84,0,0,0,0,0,0,0,1581,331,1986,2972,651,47,2505,4095,-2.423,5.816,8.107,-1.378,-1.874,-2.631,0.807,-3.61,9.38,-0.02,0.065,0.011,sad
0.26,0,0,0,0,0,0,0,0,1642,301,1963,3017,733,42,2451,4095,-0.998,4.824,6.498,-0.945,-1.557,-2.701,0.783,-3.622,9.333,-0.019,0.059,-0.003,sad
0.27,0,0,0,0,0,0,0,0,1695,293,1952,3048,639,45,2488,4095,-0.512,4.982,7.154,-0.658,-1.179,-2.574,0.737,-3.51,9.378,-0.011,0.045,-0.002,sad
0.28,0,0,0,0,0,0,0,0,1709,314,1950,3064,597,122,2502,4095,-0.529,4.681,7.784,-0.321,-0.816,-2.346,0.876,-3.606,9.371,-0.023,0.049,0,sad
0.29,0,0,0,0,0,0,0,0,1747,328,1932,3101,563,47,2414,4095,-0.852,4.365,9.21,-0.201,-0.62,-2.16,0.826,-3.587,9.357,-0.037,0.04,-0.011,sad
0.3,0,0,0,0,0,0,0,0,1753,291,1932,3119,523,47,2357,4095,-0.972,2.854,8.878,-0.124,-0.536,-2.15,0.86,-3.606,9.309,-0.038,0.038,-0.013,sad
0.31,0,0,0,0,0,0,0,0,1758,357,1922,3117,533,47,2319,4095,-0.898,2.16,9.931,-0.074,-0.553,-2.24,0.716,-3.622,9.323,-0.037,0.027,-0.014,sad
0.32,0,0,0,0,0,0,0,0,1754,395,1952,3165,441,42,2376,4095,-0.814,2.002,10.532,-0.192,-0.635,-2.409,0.776,-3.67,9.359,-0.027,0.025,-0.013,sad
0.33,0,0,0,0,0,0,0,0,1766,503,1932,3175,500,46,2344,4095,-0.766,2.095,10.087,-0.339,-0.422,-2.769,0.745,-3.572,9.33,-0.02,0.002,-0.019,sad
0.34,0,0,0,0,0,0,0,0,1791,466,1978,3180,501,55,2365,4095,-1.132,2.907,9.366,-0.303,0.025,-3.223,0.764,-3.62,9.385,-0.017,0.015,-0.012,sad
0.35,0,0,0,0,0,0,0,0,1772,503,1991,3193,583,51,2470,4095,-0.108,4.032,8.753,-0.208,0.292,-3.581,0.718,-3.699,9.318,-0.028,0.016,-0.014,sad
0.36,0,0,0,0,0,0,0,0,1761,703,2021,3197,531,51,2461,4095,2.931,4.913,8.871,-0.019,-0.144,-3.317,0.792,-3.661,9.373,-0.017,0.009,-0.02,sad
0.37,0,0,0,0,0,0,0,0,1756,695,2029,3209,556,47,2476,4095,6.783,4.664,7.013,0.171,-0.189,-2.49,0.797,-3.687,9.426,-0.005,0.019,-0.014,sad
0.38,0,0,0,0,0,0,0,0,1766,715,2032,3221,553,47,2549,4095,7.221,4.125,6.024,0.58,-0.187,-1.324,0.821,-3.634,9.328,0.014,0.006,-0.011,sad
0.39,0,0,0,0,0,0,0,0,1737,739,2029,3225,602,53,2585,4095,7.479,4.101,5.777,0.884,-0.217,-0.64,0.812,-3.618,9.306,0.004,0.01,-0.007,sad
0.4,0,0,0,0,0,0,0,0,1723,725,2034,3227,654,47,2577,4095,13.616,6.074,6.381,1.006,-3.832,0.567,0.745,-3.646,9.258,-0.004,0.02,0.006,sad
0.41,94,0,0,0,0,0,0,0,1707,709,2027,3232,718,47,2601,4095,-2.368,4.97,12.107,0.506,-1.031,-0.953,0.797,-3.622,9.364,-0.017,0.031,0.016,sad
0.42,393,0,0,0,0,0,0,0,1759,682,2019,3243,681,47,2403,4095,-0.366,4.544,11.468,0.312,-1.524,-0.823,0.845,-3.654,9.359,-0.011,0.039,0.03,sad
0.43,642,0,0,315,0,0,0,0,1774,691,2003,3189,603,50,2462,4095,1.422,4.032,9.977,0.143,-0.485,-0.941,0.821,-3.694,9.323,-0.007,0.048,0.035,sad
0.44,967,0,0,669,0,0,0,0,1783,659,2085,3245,457,45,2422,4095,-1.216,4.228,10.973,-0.138,0.073,-0.198,0.879,-3.699,9.354,-0.009,0.059,0.039,sad
0.45,1134,0,0,971,0,0,0,0,1811,627,1847,3255,200,42,2248,4095,-1.599,3.57,9.16,0.038,-0.548,0.082,0.819,-3.666,9.285,-0.003,0.072,0.042,sad
0.46,1284,0,0,1200,0,0,0,0,1816,559,1835,3259,199,43,2141,4095,-0.177,3.632,9.388,-0.037,-0.5,0.068,0.721,-3.67,9.275,0.005,0.062,0.037,sad
0.47,1365,0,0,1363,0,0,0,494,1785,503,1819,3247,55,17,2069,4095,0.611,3.553,9.191,-0.055,-0.364,0.226,0.886,-3.721,9.268,0.009,0.052,0.034,sad
0.48,1434,145,0,1456,0,0,0,1494,1709,457,1758,3222,4,0,1867,4095,1.836,3.984,9.783,-0.172,-0.208,0.148,0.785,-3.625,9.404,0.007,0.075,0.041,sad
0.49,1475,198,0,1584,0,0,0,2266,1612,475,1753,3196,2,4,1759,4095,0.881,3.577,9.5,-0.12,-0.201,0.17,0.776,-3.682,9.359,-0.003,0.073,0.042,sad
0.5,1457,615,8,1699,0,0,0,2639,1482,507,1446,3131,3,2,1435,4095,0.014,3.227,9.182,-0.052,-0.371,0.168,0.749,-3.742,9.313,0.009,0.09,0.046,sad
0.51,1366,1233,615,1776,0,0,0,2848,1364,379,1292,3043,6,4,1199,4095,0.754,3.335,9.424,-0.014,-0.491,0.193,0.759,-3.747,9.347,0.084,0.11,0.066,sad
0.52,1351,1647,1145,1776,346,0,0,3013,1199,281,975,2972,3,5,1041,4095,0.79,3.45,9.416,0.013,-0.347,0.203,0.742,-3.759,9.388,0.125,0.125,0.074,sad
0.53,1279,1717,1516,1667,522,0,300,2964,734,0,0,2811,0,0,859,4095,0.795,3.452,9.416,0.068,-0.218,0.241,0.874,-3.903,9.491,0.253,0.194,0.083,sad
0.54,1247,2000,1789,1823,698,0,655,3283,239,0,0,2621,0,0,821,4087,0.718,3.402,9.234,0.041,-0.113,0.194,1.152,-4.049,9.553,0.601,0.373,0.055,sad
0.55,1154,2194,2027,1859,983,0,1125,3392,29,0,0,2460,0,0,397,4069,0.895,3.381,9.318,0.005,-0.125,0.13,0.893,-4.063,9.893,0.901,0.501,0.074,sad
0.56,1008,2352,2222,1877,1143,0,1296,3472,1,1,5,1711,0,0,361,3561,0.922,3.385,9.297,0.008,-0.139,0.112,0.491,-3.326,9.407,0.907,0.441,-0.014,sad
0.57,834,2469,2398,1963,1387,0,1728,3519,0,0,0,986,4,0,219,3321,0.95,3.469,9.361,0.013,-0.101,0.092,1.231,-3.917,9.404,1.018,0.582,-0.07,sad
0.58,665,2672,2534,2060,1616,0,1947,3567,0,0,0,623,0,0,347,3275,1.044,3.273,9.45,0.074,-0.108,0.081,0.761,-3.4,10.044,1.089,0.676,-0.062,sad
0.59,618,2761,2633,2083,1826,0,2138,3608,0,0,30,372,0,0,83,3175,1.104,3.476,9.44,0.129,-0.135,0.052,2.128,-3.371,10.077,1.204,0.789,-0.178,sad
0.6,445,2813,2673,1987,2011,0,2311,3616,0,0,0,59,0,0,0,2956,1.025,3.498,9.345,0.097,-0.149,0.064,2.277,-1.98,9.857,0.947,0.853,-0.496,sad
0.61,315,2685,2501,1735,1914,0,2263,3422,0,0,0,20,0,0,0,2809,0.958,3.488,9.364,0.078,-0.164,0.051,4.499,-2.421,12.093,0.587,0.299,-1.055,sad
0.62,366,2937,2757,1960,2240,0,2559,3653,0,1,0,11,0,0,0,3003,1.192,3.323,9.337,0.077,-0.15,0.066,4.721,-2.895,8.914,0.421,0.247,-2.092,sad
0.63,382,2977,2768,2007,2341,0,2534,3657,1531,2585,0,2460,2552,1717,1611,3095,1.391,3.476,9.392,0.061,-0.113,0.051,4.123,-3.347,9.584,0.353,0.51,-2.864,sad
0.64,333,3065,2838,1966,2593,0,2752,3663,1527,2583,0,2456,2543,1695,1605,3094,1.271,3.553,9.388,0.025,-0.131,0.067,3.603,-3.519,9.215,0.348,0.686,-3.155,sad
0.65,278,3058,2829,1937,2624,0,2768,3632,1559,2572,0,2468,2553,1689,1591,3098,1.223,3.462,9.361,0.026,-0.116,0.074,2.909,-3.603,9.275,0.327,0.973,-3.672,sad
0.66,202,3142,2864,1871,2765,0,2874,3657,1566,2569,0,2473,2556,1687,1577,3107,1.413,3.481,9.378,0.033,-0.134,0.067,1.992,-4.568,8.258,0.171,1.282,-4.007,sad
0.67,214,3168,2865,1808,2874,0,2933,3643,53,0,0,70,0,6,0,1850,1.204,3.57,9.653,0.045,-0.2,0.088,1.769,-5.643,8.272,0.09,1.334,-4.177,sad
0.68,85,3163,2852,1562,2999,0,3006,3627,0,0,0,59,0,0,0,1737,1.389,3.615,9.785,0.049,-0.389,0.123,1.216,-6.953,7.341,-0.083,1.427,-4.366,sad
0.69,8,3165,2766,1286,3159,0,3071,3614,1573,2565,0,2473,2568,1685,1581,3101,0.927,3.294,10.113,0.175,-0.464,0.12,-0.239,-6.503,7.966,-0.29,1.321,-4.366,sad
0.7,0,3198,2687,894,3304,0,3133,3574,1565,2555,0,2461,2577,1711,1575,3104,1.171,4.269,10.036,0.107,-0.525,0.168,-1.041,-6.041,8.602,-0.385,1.276,-4.366,sad
0.71,0,3268,2531,223,3413,0,3173,3503,1586,2555,0,2527,2575,1673,1577,3103,1.142,2.605,8.346,0.067,-0.666,0.191,-3.474,-4.345,8.655,-0.626,0.938,-3.844,sad
0.72,0,3250,2352,0,3447,0,3229,3407,1515,2557,0,2475,2569,1678,1579,3097,1.832,3.656,9.438,-0.015,-0.74,0.212,-4.863,-2.835,10.587,-0.722,0.488,-2.743,sad
0.73,0,3316,2103,0,3563,0,3251,3294,1565,2568,0,2469,2565,1687,1587,3099,1.276,3.211,9.56,0.038,-0.689,0.242,-4.223,-2.555,11.286,-0.608,0.584,-2.155,sad
0.74,0,3342,1793,0,3600,0,3265,3034,44,0,0,0,0,0,0,1324,2.413,3.579,9.292,-0.036,-0.591,0.2,-2.09,-1.788,10.963,-0.348,0.554,-1.414,sad
0.75,0,3138,1271,0,3488,0,3219,2735,968,2662,0,2575,2333,1996,1765,3162,2.413,3.306,9.019,-0.064,-0.506,0.149,-0.318,-1.374,10.044,-0.204,0.482,-1.215,sad
0.76,0,3293,965,0,3649,0,3324,2861,1525,2584,0,2459,2547,1699,1605,3055,2.617,3.079,8.657,-0.052,-0.429,0.117,0.481,-1.549,10.017,-0.145,0.526,-1.243,sad
0.77,0,3291,750,0,3667,0,3328,2797,1525,2551,0,2455,2584,1704,1599,3093,2.957,2.959,8.813,0.01,-0.259,0.021,1.695,-1.726,10.02,-0.05,0.566,-1.538,sad
0.78,0,3315,535,0,3681,0,3309,2673,1531,2585,0,2455,2543,1703,1604,3092,3.211,3.124,8.617,0.015,-0.073,-0.027,2.078,-2.181,10.084,0.102,0.548,-1.98,sad
0.79,0,3343,417,0,3674,0,3282,2611,1531,2584,0,2457,2543,1705,1692,3096,2.828,3.062,9.17,0.009,0.026,-0.042,1.729,-2.32,9.972,0.168,0.514,-2.182,sad
0.8,0,3207,323,0,3487,0,3202,2489,1533,2583,0,2458,2535,1703,1603,3095,3.129,3.287,8.928,-0.005,-0.051,-0.014,0.893,-2.579,10.185,0.316,0.43,-2.385,sad
0.81,0,3413,308,0,3694,0,3266,2455,1543,2585,0,2459,2543,1701,1598,3095,2.99,3.302,8.787,0.031,-0.065,-0.015,-0.05,-2.576,9.644,0.416,0.334,-2.337,sad
0.82,0,3327,234,0,3670,0,3247,2334,1543,2583,0,2468,2548,1701,1597,3095,3.287,3.201,8.866,0.066,0.031,-0.08,-0.316,-2.66,9.522,0.417,0.264,-2.24,sad
0.83,0,3457,152,0,3696,0,3216,2241,1545,2583,0,2459,2548,1699,1597,3096,3.203,3.156,8.586,0.063,0.137,-0.075,-0.316,-2.945,9.651,0.344,0.098,-2.031,sad
0.84,0,3506,163,0,3691,0,3190,2124,1548,2581,0,2463,2557,1701,1595,3003,3.285,2.947,8.44,0.118,0.311,-0.136,0.072,-3.713,10.434,0.408,0.022,-1.858,sad
0.85,0,3542,301,0,3712,0,3157,2101,1543,2577,0,2459,2548,1702,1653,3095,3.409,3.177,8.478,0.117,0.301,-0.148,0.369,-3.97,10.285,0.466,-0.004,-1.812,sad
0.86,0,3581,382,0,3725,0,3138,2106,1544,2582,0,2459,2547,1699,1597,3097,3.017,3.201,8.456,0.15,0.433,-0.155,0.587,-4.345,9.321,0.489,-0.069,-1.815,sad
0.87,0,3629,490,0,3729,0,3104,2043,1547,2581,0,2461,2524,1709,1597,3095,2.859,3.397,8.583,0.076,0.422,-0.133,1.252,-4.752,9.27,0.374,-0.06,-1.871,sad
0.88,0,3637,737,0,3751,0,3071,2062,1545,2579,0,2461,2547,1696,1581,3095,2.382,3.086,8.997,0.133,0.562,-0.145,1.185,-4.894,9.51,0.343,-0.009,-1.919,sad
0.89,0,3659,1069,0,3733,0,2953,2106,1543,2581,0,2444,2547,1687,1597,3097,2.485,3.345,9.072,0.269,0.644,-0.283,1.769,-4.662,9.172,0.235,0.072,-2.056,sad
0.9,0,3707,1605,0,3775,0,2965,2071,1545,2581,0,2461,2548,1702,1597,3125,1.923,3.333,9.345,0.268,0.495,-0.275,1.164,-4.685,9.735,0.229,0.017,-2.129,sad
0.91,0,3734,1968,0,3770,0,2960,2080,1545,2580,0,2460,2549,1703,1597,3095,1.48,3.757,9.591,0.301,0.442,-0.194,0.91,-4.334,9.117,0.209,-0.068,-2.114,sad
0.92,0,3758,2192,0,3789,0,2931,1941,1533,2583,0,2458,2543,1702,1607,3093,1.822,3.836,9.369,0.207,0.27,-0.147,0.321,-3.563,8.698,-0.051,-0.202,-1.873,sad
0.93,0,3709,2346,0,3790,0,2915,1757,1527,2585,0,2455,2542,1707,1606,3089,2.164,3.476,8.945,0.189,0.263,-0.131,0.251,-3.833,8.978,-0.275,-0.507,-1.489,sad
0.94,111,3792,2464,0,3789,0,2879,1857,1503,2586,0,2455,2539,1708,1609,3094,2.004,3.666,8.969,0.202,0.209,-0.189,0.795,-3.077,8.384,-0.432,-0.596,-1.341,sad
0.95,122,3787,2614,0,3786,0,2858,1746,1527,2585,0,2455,2542,1705,1605,3095,1.827,3.622,9.002,0.249,0.201,-0.18,1.446,-3.996,9.251,-0.576,-0.677,-1.153,sad
0.96,493,3824,2762,0,3806,0,2835,1488,1528,2585,0,2456,2543,1705,1605,3107,1.549,3.759,9.172,0.234,0.213,-0.142,2.179,-5.504,12.239,0.017,-0.285,-1.104,sad
0.97,775,3821,2831,317,3786,0,2755,1329,1527,2587,0,2457,2541,1707,1607,3096,1.355,3.752,9.297,0.293,0.139,-0.174,1.247,-5.071,11.392,0.369,-0.258,-1.133,sad
0.98,1131,3840,2880,456,3789,0,2646,1040,1531,2584,0,2487,2541,1704,1603,3093,1.413,3.747,9.153,0.314,0.085,-0.183,1.25,-3.632,8.004,0.384,-0.314,-1.102,sad
0.99,1461,3853,2926,503,3795,0,2559,592,1530,2586,0,2457,2517,1706,1606,3067,1.683,4.192,9.11,0.283,0.025,-0.148,1.683,-4.549,8.77,0.183,-0.262,-1.248,sad
1,1719,3824,2890,814,3731,0,2495,208,1530,2584,0,2389,2539,1706,1613,3093,1.705,4.087,9.045,0.208,0.054,-0.077,1.772,-4.623,8.794,0.171,-0.168,-1.405,sad
1.01,1983,3875,3010,990,3758,0,2482,0,1531,2588,0,2457,2553,1705,1605,3096,1.618,4.015,9.005,0.19,0.062,-0.055,1.003,-4.3,8.088,0.058,0.085,-1.783,sad
1.02,2214,3908,3071,1072,3767,0,2451,0,1556,2584,2,2457,2547,1705,1605,3109,1.511,4.025,9.062,0.187,0.046,-0.058,0.498,-5.334,9.385,0.1,0.134,-2.131,sad
1.03,2321,3888,3102,1315,3729,0,2331,0,1532,2584,0,2456,2569,1703,1599,3089,1.65,4.12,8.964,0.17,0.061,-0.049,-0.362,-4.798,8.38,0.101,0.13,-2.265,sad
1.04,2413,3893,3145,1456,3712,0,2157,0,1532,2581,0,2456,2543,1703,1604,3093,1.551,4.223,8.933,0.154,0.079,-0.073,-0.484,-5.839,8.2,-0.058,0.204,-2.484,sad
1.05,2515,3904,3190,1503,3712,0,1944,0,1531,2587,0,2451,2539,1708,1609,3093,1.556,4.14,8.787,0.16,0.146,-0.095,-4.731,-2.703,5.772,-0.608,1.037,-2.162,sad
1.06,2441,3691,3120,1810,3426,0,1633,0,1517,2571,7,2449,2537,1709,1609,3093,1.664,4.221,8.926,0.233,0.205,-0.134,-3.905,-2.375,18.261,-0.062,0.736,-1.995,sad
1.07,2768,3921,3275,2268,3574,0,1408,0,1525,2603,0,2453,2537,1709,1607,3094,1.585,4.037,8.99,0.301,0.123,-0.165,-9.369,4.899,10.764,-0.28,-0.258,-0.086,sad
1.08,2978,3954,3315,2401,3367,0,912,0,1579,2554,0,2477,2578,1674,1577,3101,1.525,4.274,9.048,0.341,-0.002,-0.216,0.46,-2.739,8.751,-0.625,-1.154,0.394,sad
1.09,3149,3911,3367,2617,2517,0,249,0,1590,0,0,6,2577,1674,39,2012,1.915,3.656,8.935,0.415,-0.152,-0.135,4.745,-1.094,8.1,-0.646,-1.258,0.203,sad
1.1,3303,3888,3401,2640,2222,0,0,0,1531,2573,0,2463,2553,1694,1606,3091,0.74,4.714,8.902,0.511,-0.234,-0.017,3.531,-2.116,9.807,-0.858,-1.522,-0.059,sad
1.11,3444,3865,3440,2386,2032,0,0,0,1557,2569,0,2462,2549,1689,1589,3096,0.967,4.743,8.684,0.526,-0.111,0.01,5.397,-2.361,9,-0.629,-1.185,-0.212,sad
1.12,3515,3782,3414,2554,1803,0,0,0,1567,2567,0,2471,2555,1683,1580,2991,0.852,4.568,8.145,0.621,0.07,-0.035,4.719,-2.368,9.972,-0.606,-1.313,-0.32,sad
1.13,3566,3674,3383,2521,1584,0,0,0,1575,2555,0,2471,2575,1679,1642,3098,1.446,4.46,8.71,0.647,0.045,-0.053,3.06,-1.551,9.673,-0.522,-1.295,-0.328,sad
1.14,3611,3461,3333,2228,1328,0,0,0,1579,2557,0,2467,2565,1677,1579,3099,1.923,5.037,8.894,0.789,0.133,-0.028,4.834,-2.971,9.34,-0.369,-1.12,-0.247,sad
1.15,3637,3217,3171,2286,1131,0,0,0,1575,2565,0,2441,2556,1683,1582,3098,1.544,5.009,8.803,0.858,0.013,-0.231,6.194,-3.029,8.559,-0.132,-0.671,-0.319,sad
1.16,3668,3013,2875,2066,1040,0,0,0,1553,2577,17,2431,2599,1695,1595,3150,1.506,5.224,8.43,1.011,-0.284,-0.567,4.559,-2.401,9.091,-0.06,-0.697,-0.29,sad
1.17,3696,2805,2591,1634,626,0,0,0,1558,2577,0,2458,2548,1703,1591,3087,1.389,5.471,8.392,1.076,-0.435,-0.805,4.8,-1.812,8.545,-0.073,-0.635,-0.319,sad
1.18,3694,2471,2172,1501,586,0,0,0,1556,2577,0,2458,2539,1699,1577,3093,1.568,6.043,8.056,1.036,-0.511,-0.979,4.975,-2.102,8.679,-0.071,-0.634,-0.313,sad
1.19,3583,2029,1535,864,531,0,0,0,1567,2573,0,2461,2547,1693,1637,3095,1.528,5.787,8.222,1.07,-0.569,-0.998,5.442,-1.566,7.563,-0.034,-0.392,-0.265,sad
1.2,3703,1713,874,472,421,0,0,0,1550,2577,0,2455,2540,1703,1599,3093,1.03,6.364,7.192,1.009,-0.468,-0.942,5.157,-1.863,7.989,-0.007,-0.268,-0.286,sad
1.21,3635,1565,285,417,196,0,0,0,1527,2654,0,2429,2515,1715,1635,3090,1.197,6.464,7.362,0.951,-0.385,-0.813,4.693,-1.642,8.464,-0.019,-0.196,-0.201,sad
1.22,3683,1475,0,304,221,0,0,0,1369,2663,0,2415,2485,1813,1709,3045,1.137,6.582,7.793,0.96,-0.403,-0.743,5.669,-1.925,7.812,0.025,-0.202,-0.198,sad
1.23,3680,1126,0,196,174,0,0,0,0,5,0,0,617,0,3289,3646,0.828,6.541,8.037,1.081,-0.61,-0.817,5.698,-1.817,7.992,0.021,-0.059,-0.088,sad
1.24,3658,1219,0,142,185,0,0,0,0,0,0,0,613,0,3323,3645,0.781,6.618,7.7,1.185,-0.813,-0.876,5.784,-1.757,7.728,0.011,-0.01,-0.108,sad
1.25,3619,1097,0,0,208,0,0,0,0,0,0,0,724,0,3385,3610,0.771,6.78,7.59,1.298,-0.949,-0.904,5.258,-1.798,8.071,-0.025,-0.019,-0.099,sad
1.26,3537,1096,0,0,78,0,0,0,0,0,0,1,702,0,3404,3637,0.936,6.859,7.803,1.454,-1.099,-0.941,5.329,-1.42,7.736,-0.022,0.097,-0.048,sad
1.27,3395,928,0,0,149,0,0,0,0,0,0,0,765,0,3439,3592,0.464,7.084,7.872,1.674,-1.444,-0.996,5.231,-1.085,7.92,-0.092,0.189,0.04,sad
1.28,2992,757,0,0,124,0,0,0,0,0,0,0,818,0,3542,3645,-0.318,7.271,8.466,1.92,-2.214,-1.057,5.193,-1.319,7.745,-0.132,0.32,0.09,sad
1.29,2197,538,0,0,160,0,0,0,0,0,0,0,1021,0,3592,3654,-0.28,7.743,7.932,2.263,-3.201,-0.964,5.588,-1.549,7.793,-0.175,0.424,0.155,sad
1.3,1818,331,0,0,26,0,0,0,0,0,0,0,1042,0,3608,3689,0.936,7.743,7.032,2.389,-3.4,-0.992,4.92,-2.224,9.294,-0.149,0.408,0.162,sad
1.31,1600,119,0,0,52,0,0,0,0,0,232,0,1221,0,3659,3755,0.754,8.387,7.906,2.358,-3.337,-0.877,4.448,-3.1,10.274,-0.049,0.107,0.07,sad
1.32,1187,0,0,0,137,0,0,0,0,0,0,0,1189,0,3667,3803,0.903,8.337,7.8,2.252,-3.421,-0.784,4.925,-2.2,9.419,0.035,-0.056,-0.009,sad
1.33,839,0,0,0,62,0,0,0,0,0,0,0,1208,0,3737,3852,1.626,10.693,5.655,2.227,-3.659,-0.458,4.724,-2.239,8.784,0.06,-0.209,-0.083,sad
1.34,731,0,0,0,0,0,0,0,0,0,0,0,1109,0,3796,3917,0.711,10.853,6.132,1.965,-3.659,-0.394,5.516,-2.325,8.37,0.119,-0.243,-0.129,sad
1.35,447,0,0,0,0,0,0,0,0,0,0,0,1115,0,3773,3957,1.688,9.838,6.452,1.944,-3.476,-0.402,5.495,-1.891,8.497,0.171,-0.248,-0.148,sad
1.36,163,0,0,0,0,0,0,0,0,0,0,0,933,0,3788,3931,2.514,9.4,5.124,1.831,-2.974,-0.635,5.564,-2.014,8.025,0.221,-0.239,-0.178,sad
1.37,0,0,0,0,0,0,0,0,0,0,0,7,885,0,3788,3938,-1.566,8.226,8.617,1.253,-2.391,-1.138,5.772,-1.829,7.796,0.257,-0.211,-0.196,sad
1.38,0,0,0,0,0,0,0,0,0,0,0,0,714,0,3799,3934,-4.721,9.919,13.673,0.538,-2.403,-1.828,5.531,-1.597,7.865,0.261,-0.17,-0.182,sad
1.39,0,0,0,0,0,0,0,0,0,0,0,0,739,0,3795,3931,0.278,9.764,11.061,-0.096,-2.014,-2.311,6.134,-1.738,7.865,0.237,-0.149,-0.217,sad
1.4,0,0,0,0,0,0,0,0,0,0,0,0,567,0,3784,3925,1.202,8.842,11.293,-0.907,-1.321,-2.358,5.993,-1.142,7.611,0.214,-0.054,-0.204,sad
1.41,0,0,0,0,0,0,0,0,0,0,53,0,460,0,3771,3879,2.16,8.657,9.627,-1.316,-0.919,-1.993,6.055,-1.757,7.616,0.224,-0.011,-0.219,sad
1.42,0,0,0,0,0,0,0,0,0,0,0,0,525,0,3737,3883,2.555,7.958,8.258,-1.648,-0.587,-1.504,6.112,-1.592,7.566,0.217,0.055,-0.23,sad
1.43,0,0,0,0,0,0,0,0,26,0,0,0,445,3,3688,3901,2.471,7.563,7.226,-1.803,-0.279,-1.012,6.206,-1.35,7.764,0.141,0.107,-0.238,sad
1.44,0,0,0,0,0,0,0,0,0,0,0,0,519,0,3625,3897,1.87,7.166,6.235,-1.797,-0.041,-0.569,6.325,-1.683,7.113,0.15,0.188,-0.283,sad
1.45,0,0,0,0,0,0,0,0,0,0,0,0,319,0,3511,3895,1.494,6.828,5.66,-1.755,0.408,-0.265,6.857,-1.19,7.077,0.051,0.271,-0.36,sad
1.46,0,0,0,0,0,0,0,0,0,0,0,0,361,0,3439,3897,0.831,6.835,5.456,-1.641,0.628,-0.081,5.847,-1.01,8.119,-0.07,0.326,-0.384,sad
1.47,0,0,0,0,0,0,0,0,0,0,0,0,244,0,3401,3903,0.17,7.228,5.772,-1.509,0.794,-0.019,4.147,-1.355,8.674,-0.082,0.402,-0.344,sad
1.48,0,0,0,0,0,0,0,0,0,0,0,0,447,0,3391,3919,-0.235,8.162,6.452,-1.463,0.698,-0.018,4.583,-1.101,8.406,-0.098,0.306,-0.302,sad
1.49,0,0,0,0,0,0,0,0,0,0,15,0,455,0,3369,3917,-0.026,8.823,6.831,-1.475,0.526,-0.035,4.611,-1.276,8.588,-0.109,0.219,-0.307,sad
1.5,0,0,0,0,0,0,0,0,0,0,0,0,469,0,3355,3814,0.46,9.16,7.08,-1.551,0.493,-0.112,5.073,-1.401,8.868,-0.137,0.134,-0.304,sad
1.51,0,0,0,0,0,0,0,0,0,0,0,0,413,0,3381,3835,0.903,9.438,7.257,-1.621,0.515,-0.21,5.073,-1.19,8.42,-0.101,0.167,-0.276,sad
1.52,0,0,0,0,0,0,0,0,0,0,0,0,364,0,3371,3880,0.862,9.33,7.393,-1.707,0.53,-0.3,5.169,-1.207,8.284,-0.107,0.174,-0.231,sad
1.53,0,0,0,0,0,0,0,0,0,0,33,0,425,0,3371,3845,0.56,9.105,7.4,-1.793,0.472,-0.361,4.611,-1.264,8.739,-0.124,0.127,-0.211,sad
1.54,0,0,0,0,0,0,0,0,0,0,0,0,383,0,3447,3879,0.543,9.105,7.353,-1.88,0.302,-0.401,4.257,-1.144,9.062,-0.102,0.081,-0.129,sad
1.55,0,0,0,0,0,0,0,0,0,0,0,0,447,0,3404,3867,0.879,8.792,7.056,-1.928,0.246,-0.424,4.774,-1.279,8.547,-0.073,0.055,-0.098,sad
1.56,0,0,0,0,0,0,0,0,0,0,0,0,455,0,3416,3877,0.962,8.583,6.742,-2.009,0.232,-0.492,5.207,-1.326,8.511,-0.056,0.058,-0.055,sad
1.57,0,0,0,0,0,0,0,0,0,0,0,0,489,0,3463,3931,0.79,8.71,6.852,-2.096,0.187,-0.524,5.169,-1.08,8.42,-0.128,0.034,-0.035,sad
1.58,0,0,0,0,0,0,0,0,0,0,0,0,575,0,3470,3929,0.694,8.916,6.634,-2.161,0.068,-0.521,5.356,-1.453,8.521,-0.131,0.061,-0.011,sad
1.59,0,0,0,0,0,0,0,0,0,0,0,0,485,2,3520,3943,1.032,8.784,6.1,-2.202,-0.013,-0.502,5.231,-1.42,8.291,-0.074,0.114,-0.031,sad
1.6,0,0,0,0,0,0,0,0,0,1,0,0,602,0,3525,3944,1.185,8.636,5.66,-2.21,0.081,-0.483,4.338,-1.228,9.222,-0.054,0.092,0.017,sad
1.61,0,0,0,0,0,0,0,0,0,0,0,0,663,0,3533,3955,0.814,8.576,5.42,-2.191,0.086,-0.451,4.714,-1.109,8.6,-0.011,0.052,0.091,sad
1.62,0,0,0,0,0,0,0,0,0,0,0,0,701,0,3525,3937,0.541,8.44,5.315,-2.125,0.05,-0.388,5.413,-1.516,8.502,-0.036,0,0.064,sad
1.63,0,0,0,0,0,0,0,0,0,31,0,0,710,0,3529,3951,0.584,8.191,5.033,-2.016,0.047,-0.332,5.282,-1.573,8.265,0.003,0.005,0.018,sad
1.64,0,0,0,0,0,0,0,0,0,0,0,0,703,0,3549,3980,0.505,8.047,5.03,-1.885,0.138,-0.286,4.946,-1.178,8.44,0.003,0.025,0.017,sad
1.65,0,0,0,0,0,0,0,0,0,0,0,0,699,0,3657,3989,0.117,8.056,5.306,-1.804,0.173,-0.27,5.696,-1.231,8.011,0.009,0.034,0.023,sad
1.66,0,0,0,0,0,0,0,0,0,0,0,0,692,0,3565,3993,0.287,8.042,5.416,-1.741,0.173,-0.26,5.409,-1.389,8.303,-0.016,0.053,0.009,sad
1.67,0,0,0,0,0,0,0,0,0,0,0,0,679,0,3565,3977,0.51,7.977,5.306,-1.655,0.2,-0.214,4.913,-1.221,8.188,0.002,0.102,0.042,sad
1.68,0,0,0,0,0,0,0,0,0,0,0,0,675,0,3557,3975,0.627,7.661,5.085,-1.567,0.288,-0.184,4.98,-0.941,8.349,-0.011,0.173,0.09,sad
1.69,0,0,0,0,0,0,0,0,0,0,0,0,734,0,3606,3973,0.52,7.262,5.018,-1.46,0.346,-0.163,4.767,-1.24,8.428,-0.035,0.139,0.116,sad
1.7,0,0,0,0,0,0,0,0,0,0,0,0,783,0,3596,3966,0.496,6.888,4.968,-1.347,0.323,-0.157,5.021,-1.259,8.341,-0.046,0.123,0.14,sad
1.71,0,0,0,0,0,0,0,0,0,0,0,0,809,0,3635,3975,0.424,6.766,5.136,-1.229,0.238,-0.146,4.944,-1.451,8.497,-0.036,0.141,0.163,sad
1.72,0,0,0,0,0,0,0,0,0,0,40,0,822,10,3637,4006,0.589,6.567,5.222,-1.117,0.173,-0.134,5.559,-1.688,8.411,-0.004,0.167,0.167,sad
1.73,0,0,0,0,0,0,0,0,0,0,0,0,745,0,3653,3991,0.857,6.455,5.468,-1.017,0.156,-0.157,5.61,-1.29,7.896,0.013,0.245,0.15,sad
1.74,0,0,0,0,0,0,0,0,0,0,0,0,781,0,3652,4009,0.996,6.206,5.674,-0.93,0.151,-0.177,4.913,-1.238,8.717,-0.01,0.294,0.175,sad
1.75,0,0,0,0,0,0,0,0,0,0,0,0,756,0,3661,4021,0.795,5.978,5.813,-0.859,0.1,-0.198,4.712,-1.599,8.66,0.043,0.258,0.21,sad
1.76,0,0,0,0,0,0,0,0,0,0,0,0,653,0,3685,4021,0.685,5.782,5.873,-0.789,-0.098,-0.191,5.607,-1.551,8.126,-0.006,0.243,0.165,sad
1.77,0,0,0,0,0,0,0,0,0,0,0,0,677,0,3693,4029,0.587,5.428,5.938,-0.668,-0.207,-0.149,4.803,-1.168,8.351,-0.032,0.24,0.153,sad
1.78,0,0,0,0,0,0,0,0,43,0,0,0,671,0,3757,4032,0.721,5.265,6.024,-0.533,-0.277,-0.131,4.755,-1.396,8.475,-0.059,0.242,0.163,sad
1.79,0,0,0,0,0,0,0,0,0,0,0,22,634,0,3723,4053,0.484,5.136,6.361,-0.444,-0.211,-0.183,4.877,-1.228,8.461,-0.074,0.267,0.191,sad
1.8,0,0,0,0,0,0,0,0,1,0,33,0,703,0,3725,4073,0.472,5.121,6.706,-0.37,-0.262,-0.237,5.179,-1.458,8.645,-0.107,0.286,0.22,sad
1.81,0,0,0,0,0,0,0,0,0,0,0,0,667,0,3753,4083,0.632,5.116,6.874,-0.293,-0.328,-0.232,4.166,-1.966,9.51,-0.065,0.217,0.244,sad
1.82,0,0,0,0,0,0,0,0,0,4,0,0,585,0,3759,4095,0.941,4.827,6.766,-0.214,-0.345,-0.209,5.59,-1.848,7.547,-0.006,0.251,0.269,sad
1.83,0,0,0,0,0,0,0,0,0,0,0,0,633,0,3770,4095,0.692,4.551,6.84,-0.114,-0.326,-0.18,5.375,-1.896,8.289,-0.031,0.258,0.14,sad
1.84,0,0,0,0,0,0,0,0,0,0,0,0,628,1,3769,4095,0.235,4.216,7.118,-0.014,-0.381,-0.155,4.199,-1.489,8.923,-0.043,0.214,0.13,sad
1.85,0,0,0,0,0,0,0,0,0,0,0,0,677,0,3795,4095,-0.16,4.02,7.314,0.054,-0.468,-0.207,4.791,-1.614,8.689,-0.053,0.195,0.134,sad
1.86,0,0,0,0,0,0,0,0,0,0,0,0,683,0,3795,4095,-0.395,3.994,7.788,0.1,-0.607,-0.304,4.729,-1.559,8.732,-0.048,0.199,0.146,sad
1.87,0,0,0,0,0,0,0,0,0,0,0,0,694,0,3798,4093,0.077,4.13,7.879,0.093,-0.671,-0.412,4.951,-1.607,8.523,-0.044,0.212,0.149,sad
1.88,0,0,0,0,0,0,0,0,0,0,0,0,685,0,3803,4095,0.323,4.051,8.444,0.075,-0.674,-0.521,4.07,-1.697,9.129,-0.018,0.213,0.179,sad
1.89,0,0,0,0,0,0,0,0,0,0,0,0,535,0,3757,4095,0.79,4.29,8.48,0.038,-0.669,-0.523,3.862,-1.755,9.191,0.001,0.177,0.237,sad
1.9,0,0,0,0,0,0,0,0,0,0,0,0,429,4,3793,4095,1.109,4.3,8.466,0.002,-0.69,-0.491,4.966,-1.896,7.985,0.049,0.207,0.281,sad
1.91,0,0,0,0,0,0,0,0,0,0,0,0,376,0,3794,4095,1.348,4.161,8.279,-0.032,-0.55,-0.439,5.916,-2.325,8.284,0.029,0.21,0.119,sad
1.92,0,0,0,0,0,0,0,0,0,0,0,6,503,0,3771,4095,1.343,4.161,8.236,0.009,-0.46,-0.334,3.979,-1.571,8.954,0.054,0.173,0.087,sad
1.93,0,0,0,0,0,0,0,0,0,0,5,0,510,0,3756,4095,1.211,4.08,8.076,0.05,-0.377,-0.232,5.035,-1.652,8.365,-0.006,0.193,0.087,sad
1.94,0,0,0,0,0,0,0,0,0,0,0,0,587,0,3757,4095,1.082,3.962,8.035,0.121,-0.343,-0.13,4.288,-1.559,9.024,-0.049,0.194,0.096,sad
1.95,0,0,0,0,0,0,0,0,0,0,0,0,549,0,3770,4095,1.149,3.891,8.059,0.207,-0.264,-0.062,4.214,-1.662,9.124,-0.056,0.19,0.135,sad
1.96,0,0,0,0,0,0,0,0,0,0,0,0,459,0,3757,4095,1.116,3.776,8.203,0.295,-0.195,-0.023,3.438,-1.401,9.321,-0.069,0.228,0.246,sad
1.97,0,0,0,0,0,0,0,0,0,0,0,0,331,0,3724,4095,0.836,3.847,8.636,0.358,-0.206,0.026,2.38,-1.183,9.512,-0.074,0.321,0.502,sad
1.98,0,0,0,0,0,0,0,0,0,0,0,0,165,0,3641,4095,0.874,3.838,8.729,0.4,-0.196,0.066,4.875,-1.628,8.207,-0.099,0.512,0.673,sad
1.99,0,0,0,0,0,0,0,0,0,0,0,0,111,0,3559,4095,0.821,3.828,8.959,0.426,-0.136,0.105,5.72,-1.815,7.731,-0.132,0.677,0.667,sad
2,0,0,0,0,0,0,0,0,0,0,0,0,20,0,3449,4095,0.754,3.919,9.139,0.449,-0.078,0.111,4.434,-1.712,8.138,-0.179,0.778,0.651,sad
2.01,0,0,0,0,0,0,0,0,0,0,0,0,29,0,3301,4095,0.694,3.845,9.29,0.434,0,0.08,4.092,-2.107,8.37,-0.175,0.88,0.669,sad
2.02,0,0,0,0,0,0,0,0,0,0,0,51,45,0,2974,3929,0.711,3.555,9.299,0.41,0.001,0.039,4.549,-2.093,7.932,-0.202,0.971,0.613,sad
2.03,0,0,0,0,0,0,0,0,0,0,15,0,53,0,2935,4095,0.73,3.385,9.45,0.395,-0.042,-0.013,4.681,-2.373,10.008,-0.205,0.935,0.521,sad
2.04,0,0,0,0,0,0,0,0,0,2,0,0,5,0,2747,4095,0.922,3.366,9.584,0.39,-0.072,-0.072,4.243,-2.401,9.067,-0.192,0.89,0.46,sad
2.05,0,0,0,0,0,0,0,0,27,0,0,0,29,0,2734,4095,0.898,3.369,9.68,0.374,-0.105,-0.12,3.845,-2.133,8.787,-0.207,0.86,0.385,sad
2.06,0,0,0,0,0,0,0,0,0,0,0,0,9,0,2787,4095,0.905,3.464,9.881,0.371,-0.217,-0.129,3.436,-2.306,9.436,-0.251,0.777,0.366,sad
2.07,0,0,0,0,0,0,0,0,0,0,0,0,4,0,2815,4095,1.403,3.503,9.728,0.349,-0.228,-0.123,3.953,-2.049,8.784,-0.318,0.696,0.364,sad
2.08,0,0,0,0,0,0,0,0,0,0,0,0,11,0,2844,4095,1.65,3.304,9.677,0.282,-0.128,-0.141,3.618,-2.279,8.641,-0.361,0.686,0.363,sad
2.09,0,0,0,0,0,0,0,0,0,0,0,0,22,0,2961,4095,1.686,3.177,9.776,0.281,-0.056,-0.119,2.689,-2.696,9.946,-0.296,0.68,0.41,sad
2.1,0,0,0,0,0,0,0,0,6,0,0,0,26,9,3043,4095,1.741,3.275,9.984,0.244,0.027,-0.132,2.387,-3.235,9.606,-0.228,0.617,0.382,sad
2.11,0,0,0,0,0,0,0,0,0,0,0,0,45,0,3092,4095,1.664,3.158,10.166,0.221,-0.062,-0.106,2.866,-2.564,9.043,-0.223,0.614,0.369,sad
2.12,0,0,0,0,0,0,0,0,0,0,0,0,70,0,3155,4095,1.697,3.4,10.245,0.171,-0.136,-0.097,2.796,-2.784,9.361,-0.227,0.627,0.398,sad
2.13,0,0,0,0,0,0,0,0,5,0,0,0,237,0,3191,4095,1.714,3.553,10.185,0.13,-0.226,-0.064,2.689,-3.304,9.483,-0.26,0.671,0.391,sad
2.14,0,0,0,0,0,0,0,0,13,0,0,0,269,0,3223,4095,1.721,3.63,10.005,0.084,-0.198,-0.052,2.306,-2.464,8.633,-0.194,0.829,0.428,sad
2.15,0,0,0,0,0,0,0,0,30,0,0,0,349,0,3256,4095,1.623,3.601,9.718,0.07,-0.174,-0.032,2.471,-1.844,8.162,-0.293,1.057,0.511,sad
2.16,0,0,0,0,0,0,0,0,6,0,0,0,470,0,3293,4095,1.616,3.347,9.519,0.078,-0.139,-0.034,2.349,-2.339,9.117,-0.434,1.205,0.592,sad
2.17,0,0,0,0,0,0,0,0,1,0,0,0,529,0,3323,4095,1.472,3.321,9.665,0.09,-0.125,-0.025,1.592,-4.618,10.18,-0.341,0.981,0.469,sad
2.18,0,0,0,0,0,0,0,0,21,0,0,0,671,0,3347,4095,1.48,3.405,9.833,0.097,-0.158,-0.017,2.023,-2.267,8.363,-0.376,1.126,0.497,sad
2.19,0,0,0,0,0,0,0,0,37,0,0,0,713,0,3347,4095,1.274,3.625,10.041,0.087,-0.188,-0.04,1.429,-2.77,9.4,-0.529,1.092,0.491,sad
2.2,0,0,0,0,0,0,0,0,88,0,0,0,731,0,3375,4095,1.087,3.824,9.984,0.06,-0.254,-0.077,1.319,-3.728,9.984,-0.561,1.025,0.432,sad
2.21,0,0,0,0,0,0,0,0,77,0,0,107,886,0,3318,4095,1.164,3.704,9.862,0.055,-0.298,-0.126,0.97,-4.434,11.214,-0.518,0.428,0.343,sad
2.22,0,0,0,0,0,0,0,0,75,5,0,338,949,0,3299,4095,1.362,3.555,9.704,0.066,-0.282,-0.171,1.714,-3.958,9.953,-0.293,0.489,0.324,sad
2.23,0,0,0,0,0,0,0,0,79,45,0,603,925,0,3281,4095,1.336,3.369,9.723,0.092,-0.28,-0.205,1.022,-3.91,10.12,-0.164,0.365,0.236,sad
2.24,0,0,0,0,0,0,0,0,99,140,0,780,916,3,3251,4095,1.226,3.299,9.883,0.11,-0.302,-0.22,1.334,-3.613,9.639,-0.078,0.293,0.172,sad
2.25,0,0,0,0,0,0,0,0,75,143,0,908,840,1,3219,4095,1.013,3.383,10.015,0.115,-0.357,-0.218,1.326,-3.45,9.397,-0.036,0.261,0.156,sad
2.26,0,0,0,0,0,0,0,0,70,139,1144,1070,745,30,3189,4095,0.982,3.529,10.08,0.098,-0.375,-0.216,1.171,-3.266,9.251,-0.008,0.279,0.156,sad
2.27,0,0,0,0,0,0,0,0,77,119,1443,1195,715,21,3080,4095,0.948,3.594,9.981,0.07,-0.297,-0.232,1.221,-3.474,9.455,-0.034,0.222,0.127,sad
2.28,0,0,0,0,0,0,0,0,173,348,1671,1593,711,39,3027,4095,0.96,3.577,9.917,0.052,-0.211,-0.256,1.135,-3.4,9.443,-0.037,0.188,0.111,sad
2.29,0,0,0,0,0,0,0,0,146,407,1748,1799,729,43,2839,4095,1.003,3.543,9.883,0.041,-0.125,-0.289,1.022,-3.508,9.335,-0.009,0.174,0.076,sad
2.3,0,0,0,0,0,0,0,0,261,441,1760,1943,667,45,2847,4095,1.027,3.412,9.946,0.037,-0.107,-0.298,0.97,-3.443,9.469,-0.037,0.139,0.062,sad
2.31,0,0,0,0,0,0,0,0,359,474,1942,2021,671,47,2750,4095,1.142,3.376,10.032,0.036,-0.13,-0.289,1.109,-3.579,9.424,-0.019,0.115,0.029,sad
2.32,0,0,0,0,0,0,0,0,521,467,1998,2170,717,51,2647,4095,1.286,3.304,10.089,0.019,-0.162,-0.256,1.073,-3.522,9.45,-0.023,0.105,0.024,sad
2.33,0,0,0,0,0,0,0,0,487,492,2024,2199,715,51,2549,4095,1.408,3.383,9.986,0.005,-0.188,-0.19,1.01,-3.407,9.297,-0.011,0.121,0.023,sad
2.34,0,0,0,0,0,0,0,0,722,521,2034,2253,687,47,2489,4095,1.587,3.328,9.778,-0.01,-0.109,-0.128,1.111,-3.381,9.299,-0.016,0.109,0.022,sad
2.35,0,0,0,0,0,0,0,0,850,575,2062,2399,647,47,2473,4095,1.559,3.153,9.407,-0.006,0.081,-0.119,0.996,-3.529,9.409,-0.041,0.078,0.011,sad
2.36,0,0,0,0,0,0,0,0,894,538,2080,2489,734,47,2456,4095,1.274,3.093,9.234,0.04,0.305,-0.169,0.828,-3.503,9.426,-0.008,0.089,0.014,sad
2.37,0,0,0,0,0,0,0,0,797,620,2096,2585,731,48,2345,4095,0.625,3.213,9.524,0.075,0.332,-0.229,0.967,-3.563,9.443,0.004,0.092,0.018,sad
2.38,0,0,0,0,0,0,0,0,983,597,2088,2557,713,46,2270,4095,0.615,3.187,9.78,0.089,0.191,-0.292,0.955,-3.46,9.428,0.021,0.095,0.018,sad
2.39,0,0,0,0,0,0,0,0,984,589,2085,2679,682,47,2325,4095,1.01,3.472,10.163,0.047,0.103,-0.327,0.991,-3.517,9.483,0.035,0.108,0.027,sad
2.4,0,0,0,0,0,0,0,0,1007,597,2106,2705,575,47,2309,4095,1.235,3.591,10.278,-0.002,-0.022,-0.335,1.063,-3.467,9.412,0.044,0.118,0.03,sad
2.41,0,0,0,0,0,0,0,0,1085,557,2111,2733,593,51,2312,4095,1.379,3.97,10.245,-0.173,-0.225,-0.333,0.915,-3.438,9.421,0.055,0.116,0.03,sad
2.42,0,0,0,0,0,0,0,0,1211,535,2111,2699,441,57,2316,4095,1.441,3.929,9.505,-0.315,-0.449,-0.323,0.948,-3.405,9.409,0.029,0.08,0.022,sad
2.43,0,0,0,0,0,0,0,0,1405,563,2114,2719,525,49,2283,4095,1.645,4.099,9.182,-0.322,-0.522,-0.305,0.9,-3.474,9.325,0.034,0.081,0.023,sad
2.44,0,0,0,0,0,0,0,0,1399,539,2114,2759,473,47,2216,4095,1.75,4.283,8.882,-0.338,-0.604,-0.276,0.943,-3.354,9.373,0.017,0.076,0.027,sad
2.45,0,0,0,0,0,0,0,0,1433,549,2121,2765,431,46,2172,4095,1.858,4.348,8.473,-0.327,-0.661,-0.228,0.91,-3.385,9.476,0.001,0.078,0.024,sad
2.46,0,0,0,0,0,0,0,0,1458,537,2121,2749,471,47,2071,4095,2.172,4.453,7.834,-0.268,-0.746,-0.127,0.888,-3.433,9.395,-0.004,0.095,0.03,sad
2.47,0,0,0,0,0,0,0,0,1661,532,2116,2827,428,52,1947,4095,2.696,4.475,6.831,-0.046,-0.849,0.172,0.86,-3.345,9.39,-0.017,0.094,0.026,sad
2.48,0,0,0,0,0,0,0,0,1751,531,2124,2857,427,40,1903,4095,2.684,4.633,6.634,0.144,-0.822,0.352,0.824,-3.412,9.404,-0.019,0.092,0.028,sad
2.49,0,0,0,0,221,0,0,0,1771,556,2129,2808,379,47,1801,4095,-4.738,-13.388,4.432,-1.203,2.004,-1.25,0.857,-3.467,9.467,-0.009,0.104,0.027,sad
2.5,0,0,0,0,370,0,0,0,1843,536,2126,2839,373,48,1635,4095,-0.464,5.31,9.215,-1.068,0.112,0.507,0.86,-3.45,9.414,-0.005,0.103,0.029,sad
2.51,0,5,0,0,464,0,0,0,1823,504,2126,2925,291,46,1673,4095,3.108,-0.306,7.762,-0.465,-0.173,0.447,0.735,-3.464,9.44,0.002,0.106,0.037,sad
2.52,0,0,0,0,816,0,0,0,2023,451,2144,2988,117,35,1198,4095,3.663,0.929,7.966,0.357,0.302,-0.211,0.781,-3.455,9.464,-0.023,0.103,0.029,sad
2.53,0,308,0,0,1045,0,234,1187,2013,438,2121,2999,33,11,1127,4095,0.503,3.218,9.677,0.353,0.342,-0.267,0.816,-3.493,9.414,-0.035,0.116,0.025,sad
2.54,0,875,0,0,1216,0,667,2060,2101,139,2119,2966,3,4,1023,4095,2.21,2.911,8.775,0.319,0.443,-0.301,0.85,-3.464,9.476,-0.065,0.132,0.02,sad
2.55,0,1399,0,0,1455,0,1168,2369,2135,0,2096,2967,0,0,631,4007,1.109,4.295,10.065,0.25,0.593,-0.348,1.104,-3.745,9.529,-0.113,0.199,0.032,sad
2.56,0,1823,0,0,1796,0,1474,2791,2200,3,2065,2987,0,0,600,3956,1.149,4.216,9.972,0.007,0.212,-0.072,0.709,-3.527,9.345,-0.12,0.221,0.021,sad
2.57,0,2021,0,0,1904,0,1840,2958,2351,0,1998,2968,0,0,311,3723,1.489,3.577,9.974,0.019,0.097,0.06,0.864,-3.558,9.189,-0.143,0.248,0.034,sad
2.58,0,2147,0,0,2141,0,2092,2929,2367,0,1911,3063,0,51,11,3187,1.575,3.364,9.172,-0.011,-0.08,0.173,0.572,-3.797,9.4,-0.072,0.319,0.059,sad
2.59,0,2211,0,0,2238,0,2294,3222,2345,0,1850,3083,0,0,0,3111,1.542,3.462,9.795,0.005,-0.102,0.061,0.625,-3.749,9.44,-0.026,0.348,0.063,sad
2.6,0,2307,0,0,2378,0,2480,3349,2324,0,1668,3001,0,0,0,2799,1.836,3.1,8.686,-0.085,-0.196,0.028,0.251,-3.189,9.321,-0.036,0.362,0.054,sad
2.61,0,2243,0,0,2486,0,2609,3255,2286,0,1520,3047,0,0,3,2543,1.719,3.232,9.167,-0.067,-0.046,0.003,3.96,-6.287,9.699,0.017,0.271,-0.024,sad
2.62,0,2399,0,0,2553,0,2705,3496,2324,0,952,3095,0,0,0,2428,1.571,3.373,9.359,-0.024,0.028,0.018,0.682,-3.244,9.752,-0.019,0.271,0.045,sad
2.63,0,2449,0,0,2674,0,2800,3536,2361,0,53,3109,0,0,0,2213,1.626,3.428,9.428,0.003,0.046,0.054,0.443,-3.318,9.196,-0.238,-0.062,-0.091,sad
2.64,0,2435,0,0,2743,0,2897,3406,2324,5,0,3112,0,0,0,2189,1.786,3.021,9.153,0.025,0.111,0.045,2.744,-2.107,10.628,-0.364,0.073,-0.225,sad
2.65,0,2525,0,0,2779,0,2925,3598,2203,0,0,2937,0,0,0,2109,1.829,2.995,9.131,0.062,0.133,-0.023,-0.239,-4.286,8.985,-0.406,0.144,-0.228,sad
2.66,0,2559,0,0,2875,0,2962,3604,2313,0,0,3098,0,0,0,2009,1.834,3.218,9.134,0.053,0.177,-0.055,0.637,-3.603,9.495,-0.321,0.482,-0.022,sad
2.67,0,2513,0,0,2922,0,3011,3356,2268,12,0,3067,0,6,0,1773,1.733,3.266,9.304,0.041,0.172,-0.038,0.395,-3.907,9.335,-0.465,0.541,-0.04,sad
2.68,0,2634,19,0,2947,0,3020,3622,2231,1,0,3028,0,0,0,1605,1.463,3.409,9.51,0.055,0.137,-0.023,-0.215,-3.764,9.201,-0.557,0.484,-0.091,sad
2.69,0,2672,50,0,2975,0,3037,3633,2024,23,0,2852,0,0,0,1351,1.745,3.297,9.294,0.011,0.004,0.031,0.06,-4.13,9.416,-0.623,0.627,-0.031,sad
2.7,0,2701,39,0,3043,0,3085,3604,1401,5,0,2057,37,0,0,857,1.415,3.462,9.941,-0.006,-0.17,0.084,0.886,-5.114,9.452,-0.756,0.934,0.19,sad
2.71,0,2650,0,0,3083,0,3121,3638,1591,2567,20,2489,2587,1593,1581,3101,1.688,2.883,8.993,-0.027,-0.222,0.092,0.187,-5.018,9.462,-0.829,1.166,0.46,sad
2.72,0,2641,0,0,3071,0,3138,3653,1581,2553,0,2482,2571,1673,1575,3099,1.575,3.622,10.247,0.025,-0.264,0.084,0.606,-4.851,9.61,-0.732,1.498,1.247,sad
2.73,0,2645,0,0,3167,0,3195,3462,1581,2554,0,2479,2573,1673,1576,3173,2.207,2.966,8.861,-0.038,-0.314,0.124,-0.318,-5.617,9.658,0.001,1.567,1.936,sad
2.74,0,2421,0,0,3011,0,3071,3451,0,0,0,26,0,0,0,986,2.184,2.928,8.911,-0.014,-0.142,0.082,-2.014,-4.393,9.656,0.404,1.296,2.033,sad
2.75,0,2618,0,0,3232,0,3233,3661,0,0,0,0,0,0,0,1031,2.069,2.49,8.734,0.055,-0.042,0.014,3.002,-4.827,11.768,0.323,0.853,1.259,sad
2.76,0,2638,0,0,3254,0,3243,3664,0,0,0,0,0,0,0,983,2.224,2.945,8.727,0.11,0.112,-0.053,6.728,-5.124,9.668,0.202,-0.446,-0.113,sad
2.77,0,2690,0,0,3271,0,3253,3652,0,0,0,0,0,0,0,997,1.942,3.093,9.191,0.113,0.187,-0.074,2.916,-2.466,9.213,0.22,-0.361,-0.604,sad
2.78,0,2758,0,0,3311,0,3262,3648,1589,2553,115,2475,2577,1674,1579,3099,2.03,2.998,8.933,0.124,0.274,-0.102,-0.852,-1.805,8.492,0.186,-0.391,-0.684,sad
2.79,0,2846,19,0,3326,0,3250,3635,1583,2553,0,2477,2572,1669,1572,3157,2.169,2.875,8.789,0.242,0.496,-0.213,-0.352,-2.131,9.876,0.347,-0.377,-0.276,sad
2.8,177,2949,158,0,3383,0,3280,3456,1589,2567,0,2486,2580,1677,1568,3103,1.539,3.718,9.898,0.241,0.198,-0.156,-0.306,-1.999,9.206,0.601,-0.308,-0.08,sad
2.81,299,2995,349,0,3384,0,3251,3613,1597,2558,0,2503,2595,1702,1583,3111,1.53,3.455,9.517,0.219,0.172,-0.127,0.151,-2.14,8.947,0.651,-0.35,-0.052,sad
2.82,483,3040,705,0,3401,0,3250,3600,1595,2551,7,2469,2555,1641,1568,3103,1.659,3.567,9.378,0.187,0.134,-0.106,0.409,-2.274,8.638,0.693,-0.377,-0.116,sad
2.83,576,3054,880,0,3422,0,3251,3424,1591,2549,0,2484,2577,1670,1571,3100,1.516,3.594,9.297,0.124,0.069,-0.068,0.769,-2.533,9.127,0.668,-0.416,-0.282,sad
2.84,648,3102,979,0,3408,0,3200,3583,1591,2552,0,2483,2575,1671,1599,3103,1.86,3.436,9.191,0.103,0.078,-0.063,1.08,-2.859,9.687,0.655,-0.428,-0.451,sad
2.85,722,3183,1163,0,3437,0,3253,3606,1563,2553,35,2485,2577,1691,1573,3103,1.482,3.563,9.407,0.078,0.076,-0.053,1.12,-2.844,9.292,0.662,-0.344,-0.865,sad
2.86,784,3205,1231,0,3462,0,3277,3486,1591,2551,0,2536,2577,1671,1574,3103,1.444,3.61,9.455,0.03,0.044,-0.019,0.498,-2.993,10.029,0.67,-0.155,-1.138,sad
2.87,795,3230,1232,0,3445,0,3263,3622,1589,2649,0,2479,2587,1671,1567,3101,1.492,3.474,9.347,0.012,0.062,-0.007,0.144,-3.191,10.958,0.723,-0.163,-1.246,sad
2.88,742,3243,1191,0,3440,0,3271,3633,1583,2552,0,2483,2581,1673,1574,3100,1.645,3.285,9.091,0.117,0.096,-0.074,-0.678,-2.916,10.752,0.828,-0.234,-1.302,sad
2.89,745,3277,1168,0,3438,0,3247,3498,1559,2571,0,2425,2555,1691,1589,3097,1.745,3.179,9.019,0.164,0.098,-0.138,-0.984,-2.715,10.568,0.862,-0.208,-1.185,sad
2.9,842,3292,1296,0,3415,0,3228,3646,1576,2554,0,2474,2569,1678,1577,3157,1.393,3.62,9.421,0.097,0.032,-0.063,-0.943,-2.564,10.226,0.822,-0.212,-1.136,sad
2.91,890,3289,1341,0,3411,0,3227,3659,1500,2684,0,2536,2643,1884,1694,3133,1.453,3.44,9.175,0.075,0.046,-0.032,-0.642,-2.739,10.173,0.682,-0.324,-1.043,sad
2.92,891,3118,1327,0,3226,0,3028,3440,1575,2557,0,2471,2567,1681,1579,3095,1.59,3.436,9.21,0.159,0.076,-0.08,-0.912,-3.218,11.439,0.931,-0.205,-0.972,sad
2.93,1023,3334,1659,0,3439,0,3216,3641,1575,2565,0,2475,2569,1684,1581,3087,1.484,3.57,9.206,0.157,0.064,-0.083,-1.348,-2.911,10.848,0.939,-0.361,-0.93,sad
2.94,1072,3353,1795,0,3433,0,3216,3634,1560,2569,0,2475,2568,1675,1577,3099,1.465,3.651,9.23,0.125,0.055,-0.044,-1.001,-2.753,9.878,0.845,-0.402,-0.868,sad
2.95,1120,3310,1887,0,3457,0,3231,3442,1555,2568,0,2477,2571,1687,1636,3099,1.348,3.598,9.234,0.104,0.043,-0.032,-0.927,-2.579,8.981,0.556,-0.507,-0.918,sad
2.96,1136,3383,1952,41,3456,0,3216,3634,1576,2557,0,2526,2547,1687,1581,3099,1.52,3.531,9.153,0.114,0.013,-0.033,-0.575,-3.383,10.372,0.528,-0.347,-0.922,sad
2.97,1186,3396,2031,178,3469,0,3201,3615,1577,2556,0,2477,2570,1677,1577,3097,1.484,3.603,9.16,0.118,-0.009,-0.025,-2.03,-3.299,11.277,0.802,-0.166,-0.896,sad
2.98,1243,3351,2125,286,3494,0,3219,3430,1575,2555,0,2477,2569,1677,1577,3099,1.405,3.582,9.191,0.116,-0.041,-0.026,-2.198,-2.564,9.002,0.74,-0.146,-0.61,sad
2.99,1315,3446,2211,401,3484,0,3184,3583,1577,2555,0,2477,2569,1677,1576,3099,1.523,3.606,9.206,0.142,-0.046,-0.032,-2.006,-2.725,9.091,0.638,-0.074,-0.467,sad
3,1391,3466,2289,464,3504,0,3173,3561,1579,2555,0,2477,2569,1676,1577,3100,1.47,3.699,9.148,0.136,-0.029,-0.038,-2.258,-3.108,9.328,0.525,-0.12,-0.153,sad
3.01,1443,3436,2410,581,3525,0,3182,3369,1573,2553,0,2483,2571,1681,1576,3101,1.46,3.713,9.177,0.131,-0.046,-0.032,-1.968,-2.782,9.112,0.452,-0.076,0.173,sad
3.02,1519,3504,2515,813,3521,0,3143,3498,1583,2555,0,2479,2581,1685,1577,3101,1.482,3.706,9.1,0.125,-0.071,-0.022,-1.331,-2.689,9.064,0.411,-0.045,0.297,sad
3.03,1611,3511,2640,913,3529,0,3111,3456,0,0,0,0,0,0,0,57,1.597,3.74,9.143,0.133,-0.047,-0.019,-0.22,-2.595,8.892,0.331,-0.05,0.38,sad
3.04,1713,3563,2741,1135,3550,0,3071,3418,0,0,0,0,0,0,57,157,1.547,3.697,9.146,0.145,-0.053,-0.026,0.421,-2.816,9.108,0.278,-0.089,0.3,sad
3.05,1830,3558,2832,1246,3537,0,3013,3321,0,0,58,0,0,0,0,94,1.523,3.795,9.175,0.157,-0.058,-0.035,0.469,-2.607,8.842,0.262,-0.058,0.251,sad
3.06,1919,3575,2880,1392,3540,0,2966,3217,17,0,0,11,0,21,0,89,1.616,3.857,9.064,0.135,-0.029,-0.032,0.201,-2.911,9.55,0.224,-0.086,0.215,sad
3.07,2063,3627,2950,1535,3571,0,2926,3131,0,0,0,0,0,0,0,76,1.535,3.91,9.093,0.088,-0.004,-0.018,0.287,-3.103,7.781,0.242,-0.169,0.273,sad
3.08,2132,3626,3013,1675,3550,0,2861,3019,0,0,0,0,0,40,0,158,1.662,3.8,9.153,0.092,-0.022,-0.018,1.635,0.558,7.616,-0.18,-0.25,0.441,sad
3.09,2219,3658,3071,1814,3539,0,2786,2916,0,0,0,0,0,16,0,465,1.642,3.871,9.088,0.107,-0.031,-0.012,1.561,0.883,9.888,-0.154,-0.171,0.614,sad
3.1,2318,3668,3088,1950,3550,0,2716,2811,0,0,0,0,0,0,0,762,1.666,3.883,9.062,0.094,-0.016,-0.015,2.909,-0.996,10.688,-0.404,-0.388,0.308,sad
3.11,2363,3697,3157,2022,3521,0,2622,2637,0,0,0,0,0,0,0,1018,1.674,3.812,9.081,0.083,-0.014,-0.014,3.115,-0.426,9.069,-0.494,-0.472,0.089,sad
3.12,2406,3696,3182,2067,3475,0,2477,2410,1592,2543,0,2494,2599,1709,1588,3109,1.662,3.867,9.12,0.1,-0.002,-0.013,1.968,-0.783,10.436,-0.716,-0.307,0.102,sad
3.13,2304,3583,3223,2131,3247,0,2284,2102,1591,2585,0,2483,2575,1671,1581,3101,1.683,3.859,9.036,0.105,0.019,-0.011,1.834,-1.154,9.697,-0.776,-0.426,-0.016,sad
3.14,2298,3533,3136,1997,3186,0,1934,1484,1590,2552,0,2484,2595,1670,1571,3099,1.688,3.821,9.005,0.118,0.034,-0.019,2.059,-1.123,9.457,-0.826,-0.414,0.007,sad
3.15,2473,3738,3280,2218,3289,0,1671,1168,1591,2524,0,2485,2573,1671,1582,3102,1.621,3.869,9.182,0.132,0.034,-0.024,2.263,-1.563,9.553,-0.816,-0.231,0.061,sad
3.16,2559,3770,3299,2271,3219,0,1378,723,1592,2549,0,2484,2573,1671,1573,3075,1.595,3.879,9.081,0.167,0.021,-0.016,2.035,-1.906,9.759,-0.843,-0.141,0.101,sad
3.17,2635,3750,3339,2298,3106,0,1034,0,1591,2555,0,2484,2572,1672,1624,3101,1.556,4.113,9.067,0.192,0.019,-0.024,2.081,-1.93,9.737,-0.823,-0.105,0.107,sad
3.18,2688,3759,3357,2335,2947,0,586,0,1496,2550,0,2483,2575,1671,1572,3123,1.662,4.056,8.988,0.187,0.015,-0.016,2.131,-2.337,9.974,-0.744,-0.191,0.025,sad
3.19,2741,3777,3371,2346,2716,0,396,0,1593,2642,0,2483,2573,1671,1575,3104,1.585,3.943,8.918,0.193,0.033,-0.023,1.686,-2.72,10.264,-0.532,-0.163,0.008,sad
3.2,2690,3761,3385,2309,2256,0,64,0,1593,2550,0,2480,2571,1669,1559,3101,1.53,4.417,8.95,0.26,0.069,-0.057,1.702,-2.574,10.013,-0.463,-0.152,0.024,sad
3.21,2667,3757,3405,2256,2018,0,0,0,1599,2553,0,2479,2572,1673,1575,3102,1.654,3.883,8.99,0.325,0.051,-0.089,2.612,-2.653,9.704,-0.329,0.074,0.163,sad
3.22,2672,3765,3383,2251,1779,0,0,0,1599,2505,0,2483,2575,1675,1573,3101,1.76,3.979,8.906,0.425,0.08,-0.035,2.576,-2.562,9.299,-0.268,0.259,0.227,sad
3.23,2687,3721,3390,2211,1616,0,0,0,1581,2550,0,2483,2573,1673,1575,3101,1.542,4.238,8.957,0.479,0.087,-0.001,3.086,-3.012,9.292,-0.281,0.444,0.236,sad
3.24,2737,3687,3376,2141,1402,0,0,0,0,0,0,0,0,0,1623,3709,1.477,4.132,8.732,0.57,0.122,0.027,1.458,-2.921,9.965,-0.302,0.464,0.237,sad
3.25,2751,3669,3363,2107,1354,0,0,0,0,0,0,0,0,0,1791,3834,2.09,4.104,8.926,0.567,0.201,0.054,1.906,-2.904,9.874,-0.279,0.447,0.234,sad
3.26,2766,3637,3333,2035,1200,0,0,0,0,0,0,0,0,0,1880,3767,1.58,4.523,8.71,0.586,0.176,0.052,1.408,-3.014,9.828,-0.293,0.298,0.167,sad
3.27,2765,3598,3298,2003,1186,0,0,0,0,0,0,0,10,0,1747,3515,1.652,4.547,8.763,0.604,0.199,0.074,1.472,-2.825,9.689,-0.274,0.27,0.146,sad
3.28,2800,3553,3263,1942,1148,0,0,0,0,7,0,6,14,11,1785,3232,1.623,4.559,8.792,0.607,0.208,0.053,1.547,-2.67,9.436,-0.289,0.242,0.125,sad
3.29,2821,3462,3171,1838,1040,0,0,0,1599,2557,0,2495,2633,1715,1593,3111,1.554,4.767,8.614,0.635,0.212,0.053,1.482,-3.103,9.5,-0.28,0.226,0.078,sad
3.3,2768,3265,3039,1662,819,0,0,0,1589,2549,0,2483,2573,1673,1575,3099,1.477,4.824,8.559,0.644,0.235,0.063,1.233,-3.117,9.615,-0.254,0.151,0.04,sad
3.31,2734,3083,2867,1571,813,0,0,0,1597,2551,0,2483,2571,1672,1577,3089,1.571,5.061,8.373,0.671,0.257,0.063,1.547,-3.043,9.541,-0.23,0.109,0.024,sad
3.32,2687,2813,2653,1419,734,0,0,0,1527,2549,0,2483,2535,1673,1575,3193,1.448,4.918,8.562,0.714,0.312,0.059,1.453,-2.962,9.653,-0.15,0.114,0.019,sad
3.33,2559,2309,2351,1193,741,0,0,0,1599,2549,0,2482,2569,1675,1575,3149,2.023,5.423,8.758,0.798,0.321,0.02,1.568,-3.196,9.759,-0.125,0.08,0.018,sad
3.34,2515,1595,1856,966,588,0,0,0,1599,2547,0,2479,2572,1673,1573,3100,1.369,5.289,8.899,0.929,0.367,-0.061,1.504,-3.168,9.629,-0.035,0.043,-0.021,sad
3.35,2432,1008,809,502,511,0,0,0,1599,2549,30,2482,2572,1671,1573,3101,1.362,5.258,8.82,1.114,0.304,-0.192,1.654,-2.974,9.357,-0.038,0.112,0.02,sad
3.36,2409,340,0,199,347,0,0,0,1607,2548,2,2484,2573,1673,1574,3101,1.566,5.653,8.538,1.276,0.339,-0.366,1.597,-3.065,9.471,-0.037,0.139,0.043,sad
3.37,2251,25,0,0,314,0,0,0,1607,2549,2,2480,2571,1613,1581,3100,1.417,6.244,8.344,1.402,0.284,-0.617,1.575,-3.105,9.462,-0.009,0.101,0.018,sad
3.38,2064,0,0,0,282,0,0,0,1611,2569,40,2485,2579,1683,1577,3099,1.341,6.244,8.315,1.556,0.238,-0.928,1.571,-3.033,9.311,-0.037,0.115,0.025,sad
3.39,1786,0,0,0,199,0,0,0,1609,2551,2,2487,2575,1676,1578,3104,1.496,6.924,7.798,1.548,0.294,-1.236,1.422,-3.079,9.455,-0.038,0.117,0.04,sad
3.4,1533,0,0,0,158,0,0,0,19,2,12,474,1746,0,3164,3949,0.632,7.096,7.381,1.429,0.309,-1.374,1.559,-3.151,9.416,-0.017,0.074,0.048,sad
3.41,1278,0,0,0,175,0,0,0,21,4,17,487,1809,7,3196,3871,0.965,7.379,7.855,1.205,0.391,-1.497,1.539,-3.089,9.426,-0.015,0.072,0.051,sad
3.42,982,0,0,0,181,0,0,0,1621,2595,12,2542,2667,1849,1656,3026,0.852,6.778,8.878,0.892,0.401,-1.538,1.437,-3.199,9.488,-0.015,0.077,0.038,sad
3.43,0,0,0,0,226,0,0,0,1611,2548,43,2469,2585,1671,1573,3103,2.947,4.446,10.913,0.015,-0.058,-1.155,1.499,-3.208,9.385,0.004,0.11,0.017,sad
3.44,0,0,0,0,176,0,0,0,1611,2553,593,2483,2577,1674,1587,3099,3.558,3.527,6.967,-0.531,-0.814,0.341,1.41,-3.189,9.459,0.018,0.097,0.007,sad
3.45,0,0,0,0,16,0,0,0,1611,2549,632,2485,2577,1678,1575,3101,3.318,2.207,7.14,-0.972,-1.195,0.91,1.511,-3.122,9.373,0.024,0.091,0.003,sad
3.46,0,0,0,0,0,0,0,0,1612,2547,637,2479,2572,1671,1575,3097,2.356,3.17,9.292,-1.104,-0.879,1.066,1.492,-3.086,9.366,-0.017,0.098,0.021,sad
3.47,0,0,0,0,0,0,0,0,1613,2437,708,2483,2571,1677,1607,3102,1.906,3.539,10.084,-1.168,-0.497,0.959,1.453,-3.16,9.462,-0.015,0.106,0.027,sad
3.48,0,0,0,0,0,0,0,0,1610,2544,811,2480,2573,1709,1574,3091,1.274,3.67,9.189,-1.253,-0.279,0.792,1.434,-3.098,9.474,-0.051,0.134,0.062,sad
3.49,0,0,0,0,0,0,0,0,536,62,867,649,2527,2088,2223,3323,0.551,3.809,9.732,-1.405,-0.353,0.616,1.544,-3.132,9.419,-0.087,0.113,0.126,sad
3.5,0,0,0,0,0,0,0,0,0,22,1192,767,2347,1,3461,3991,0.792,4.295,10.218,-1.539,-0.438,0.557,1.518,-3.201,9.352,-0.081,0.121,0.131,sad
3.51,0,0,0,0,0,0,0,0,21,6,1225,755,2364,1,3500,4044,0.857,4.07,10.036,-1.686,-0.499,0.533,1.444,-3.247,9.448,-0.083,0.101,0.119,sad
3.52,0,0,0,0,0,0,0,0,25,7,1246,783,2349,1,3465,4015,1.568,4.046,9.309,-1.717,-0.466,0.573,1.425,-3.254,9.404,-0.073,0.09,0.102,sad
3.53,0,0,0,0,0,0,0,0,25,6,1246,838,2287,0,3439,3977,2.404,4.144,9.459,-1.715,-0.399,0.69,1.396,-3.213,9.309,-0.077,0.114,0.102,sad
3.54,0,0,0,0,0,0,0,0,19,17,1251,911,2247,0,3439,3988,2.533,4.168,9.491,-1.664,-0.317,0.884,1.262,-3.275,9.376,-0.064,0.138,0.105,sad
3.55,0,0,0,0,0,0,0,0,35,13,1256,931,2171,3,3431,4003,2.468,4.197,9.641,-1.595,-0.331,1.119,1.288,-3.237,9.455,-0.04,0.155,0.102,sad
3.56,0,0,0,0,0,0,0,0,39,0,1264,1109,2088,4,3429,3992,2.243,4.298,9.816,-1.519,-0.28,1.324,1.255,-3.292,9.486,-0.024,0.147,0.082,sad
3.57,0,0,0,0,0,0,0,0,29,8,1295,1204,1963,3,3411,3951,1.935,4.47,10.276,-1.458,-0.265,1.477,1.448,-3.263,9.38,-0.009,0.166,0.074,sad
3.58,0,0,0,0,19,0,0,0,45,1,1292,1251,1813,1,3305,4007,1.477,4.369,10.482,-1.394,-0.238,1.569,1.223,-3.287,9.486,0.023,0.185,0.064,sad
3.59,0,0,0,0,10,0,0,0,33,3,1359,1177,1662,0,3389,4005,1.25,4.633,10.877,-1.339,-0.226,1.627,1.276,-3.287,9.469,0.041,0.162,0.047,sad
3.6,0,0,0,0,0,0,0,0,14,1,1502,1261,1581,0,3363,3991,1.099,4.999,11.375,-1.361,-0.224,1.659,1.192,-3.177,9.414,0.031,0.151,0.054,sad
3.61,0,0,0,0,0,0,0,0,18,1,1494,1335,1435,0,3364,3964,0.795,4.99,11.049,-1.362,-0.182,1.648,1.283,-3.218,9.44,0.014,0.161,0.071,sad
3.62,0,0,0,0,0,0,0,0,25,6,1617,1400,1295,1,3358,4069,0.196,4.714,10.388,-1.297,-0.236,1.59,1.269,-3.165,9.318,0.002,0.151,0.084,sad
3.63,0,0,0,0,2,0,0,0,29,0,1594,1583,1213,5,3347,4005,0.244,4.384,9.244,-1.109,-0.225,1.426,1.176,-3.27,9.574,-0.012,0.122,0.084,sad
3.64,0,0,0,0,0,0,0,0,44,4,1635,1703,1225,1,3327,4056,0.443,4.695,8.83,-0.879,-0.139,1.201,1.166,-3.316,9.479,-0.002,0.112,0.072,sad
3.65,0,0,0,0,11,0,0,0,57,0,1655,1784,1109,3,3339,4095,0.388,4.978,8.921,-0.755,-0.197,1.009,1.125,-3.278,9.431,-0.005,0.097,0.068,sad
3.66,0,0,0,0,0,0,0,0,57,0,1658,1779,1131,1,3358,4095,0.697,5.488,9.072,-0.638,-0.151,0.784,1.13,-3.318,9.414,-0.003,0.084,0.055,sad
3.67,0,0,0,0,202,0,0,0,71,5,1625,1877,1123,2,3350,4095,1.149,5.641,8.76,-0.516,-0.173,0.586,1.08,-3.251,9.328,0.012,0.083,0.047,sad
3.68,0,0,0,0,257,0,0,0,61,4,1635,1909,1098,3,3339,4095,1.882,6.294,8.93,-0.432,-0.196,0.43,1.041,-3.326,9.412,0.012,0.062,0.044,sad
3.69,0,0,0,0,267,0,0,0,45,59,1658,1895,1111,23,3327,4095,2.634,7.386,10.094,-0.728,-0.407,0.467,1.142,-3.275,9.407,0.029,0.053,0.037,sad
3.7,0,0,0,0,260,0,0,0,43,3,1717,2007,1143,0,3311,4095,2.758,7.118,9.823,-0.833,-0.544,0.447,1.046,-3.239,9.424,0.028,0.026,0.026,sad
3.71,0,0,0,0,249,0,0,0,39,3,1650,2029,1174,2,3339,4095,2.703,6.91,8.392,-0.879,-0.574,0.412,1.123,-3.227,9.424,0.022,0.022,0.023,sad
3.72,0,0,0,0,252,0,0,0,46,3,1650,2087,1179,0,3343,4095,2.303,6.898,7.427,-0.873,-0.586,0.454,0.263,-2.758,9.519,-0.004,0.001,0.009,sad
3.73,0,0,0,0,247,0,0,0,63,6,1589,2039,1183,3,3341,4095,1.824,6.536,6.335,-0.806,-0.628,0.512,0.769,-3.079,9.409,0.011,0.023,0.028,sad
3.74,0,0,0,0,225,0,0,0,83,6,1653,2045,1221,75,3347,4095,0.979,5.523,5.186,-0.405,-0.66,0.498,1.073,-3.189,9.39,0.008,0.026,0.028,sad
3.75,0,0,0,0,325,0,0,0,91,7,1671,2011,1309,3,3350,4095,1.834,6.297,5.423,-0.234,-0.539,0.355,1.063,-3.223,9.404,-0.007,-0.003,0.024,sad
3.76,0,164,0,0,379,0,0,0,128,9,1627,1974,1455,2,3357,4095,2.38,6.735,6.208,-0.075,-0.44,0.235,1.942,-3.44,9.261,0.053,0.069,0.044,sad
3.77,0,168,0,0,447,0,0,0,113,27,1620,2027,1501,9,3371,4095,2.605,6.649,6.091,0.045,-0.256,0.111,1.178,-3.196,9.335,0.013,-0.01,0.016,sad
3.78,0,176,0,0,396,0,0,0,99,171,1625,2076,1509,23,3367,4095,1.334,6.591,3.967,0.442,0.124,-0.018,1.08,-3.247,9.503,0.009,-0.027,0.009,sad
3.79,0,48,0,0,498,0,0,0,109,283,1620,1909,1661,27,3349,4045,6.191,0.529,11.624,0.29,0.144,-0.225,1.269,-3.158,9.419,-0.033,-0.037,0.013,sad
3.8,0,0,0,0,290,0,0,0,123,363,1860,1833,1772,29,3387,4095,4.274,0.438,7.942,0.465,0.296,-0.313,1.176,-3.189,9.364,-0.021,0.01,0.032,sad
3.81,0,0,0,0,340,0,0,102,104,363,1881,1869,1769,11,3399,4095,4.633,2.528,9.673,0.511,0.41,-0.276,1.671,-3.23,9.038,0.013,0.064,0.048,sad
3.82,0,0,0,0,450,0,112,256,91,475,1937,1983,1651,25,3263,4095,4.99,1.719,7.901,0.556,0.688,-0.163,1.18,-3.278,9.345,-0.014,-0.009,0.033,sad
3.83,0,0,0,0,771,0,380,1053,85,455,1988,2065,1739,25,3251,4095,2.002,1.31,8.961,0.871,0.539,-0.207,1.13,-3.28,9.515,-0.008,-0.061,0.026,sad
3.84,0,0,0,0,799,0,764,1679,107,575,2034,2147,1801,29,3199,4095,1.532,4.106,13.683,0.909,1.005,-0.702,1.156,-3.393,9.534,-0.01,-0.043,0.02,sad
3.85,0,88,0,0,1009,0,1210,2161,174,712,2070,2286,1737,37,2911,4078,3.565,1.867,8.698,0.74,1.146,-0.583,1.243,-3.237,9.378,-0.058,0.001,0.043,sad
3.86,0,368,0,0,1378,0,1615,2435,319,813,2085,2361,1542,0,2490,4027,1.441,3.069,9.536,0.694,1.101,-0.521,1.197,-3.249,9.364,-0.087,0.002,0.054,sad
3.87,0,754,0,0,1602,0,1951,2614,412,799,2080,2335,1372,49,2133,3997,1.851,3.508,9.938,0.487,0.832,-0.345,1.128,-3.326,9.373,-0.104,-0.006,0.049,sad
3.88,0,982,0,0,1855,0,2091,2734,587,804,2101,2409,1215,51,1683,3899,1.551,3.457,10.195,0.354,0.683,-0.251,1.159,-3.357,9.407,-0.085,0.001,0.03,sad
3.89,0,1421,0,0,1931,0,2175,2877,911,889,2106,2407,1113,47,1275,3765,1.733,3.455,9.797,0.264,0.463,-0.23,1.188,-3.373,9.373,-0.104,0.005,0.029,sad
3.9,0,1676,0,0,2082,0,2320,2943,1037,949,2111,2375,973,48,1289,3694,1.832,3.098,9.534,0.151,0.368,-0.24,1.19,-3.412,9.424,-0.11,0.013,0.023,sad
3.91,0,1854,0,0,2276,0,2415,3042,1145,1085,2121,2373,758,51,907,3360,1.628,3.215,9.524,0.135,0.283,-0.181,1.247,-3.357,9.325,-0.137,0.013,0.032,sad
3.92,0,1953,0,0,2426,0,2531,3141,1557,2620,1451,2459,2544,1687,1590,3092,1.642,3.285,9.558,0.097,0.221,-0.121,1.19,-3.383,9.39,-0.157,0.095,0.009,sad
3.93,0,2078,0,0,2446,0,2602,3206,1549,2572,1453,2457,2456,1691,1595,3091,1.69,3.259,9.495,0.059,0.166,-0.04,1.142,-3.443,9.357,-0.167,0.103,0.006,sad
3.94,0,2138,0,0,2545,0,2674,3266,1533,2551,1461,2453,2539,1695,1597,3097,1.554,3.201,9.562,0.045,0.057,-0.021,0.97,-3.771,9.175,-0.235,0.16,-0.016,sad
3.95,32,2253,0,0,2636,0,2756,3319,1551,2579,1492,2457,2453,1693,1596,3093,1.69,3.208,9.383,0.039,0.05,-0.013,1.281,-3.644,9.294,-0.289,0.16,-0.054,sad
3.96,49,2240,0,0,2688,0,2783,3344,1563,2586,1543,2473,2571,1719,1609,3101,1.568,3.065,9.335,0.025,0.036,0.005,1.209,-3.637,9.203,-0.321,0.153,-0.072,sad
3.97,80,2300,0,0,2768,0,2832,3362,1523,2596,1522,2454,2543,1739,1629,3093,1.741,3.168,9.493,0.018,0.052,0.001,1.087,-3.682,9.316,-0.372,0.156,-0.086,sad
3.98,0,2359,0,0,2863,0,2897,3407,1592,2588,1563,2485,2532,1779,1613,3090,1.638,2.938,9.242,0.044,0.026,0.008,1.211,-3.701,9.184,-0.436,0.217,-0.127,sad
3.99,1,2358,0,0,2864,0,2926,3407,1541,2585,1497,2447,2532,1737,1611,3135,1.561,3.026,9.402,0.042,0.013,-0.008,1.125,-3.809,9.297,-0.489,0.262,-0.159,sad
4,69,2445,0,0,2891,0,2962,3390,1533,2589,1463,2447,2527,1709,1599,3089,1.611,2.998,9.366,0.114,0.05,-0.034,1.305,-3.955,9.249,-0.469,0.37,-0.111,sad
4.01,143,2523,0,0,2944,0,2992,3436,1532,2537,1461,2446,2534,1710,1615,3089,1.599,3.043,9.404,0.119,0.015,-0.036,1.19,-4.202,9.196,-0.509,0.356,-0.102,sad
4.02,236,2559,0,0,2975,0,3028,3428,1529,2589,1446,2445,2533,1711,1566,3055,1.652,3.108,9.354,0.127,0.002,-0.045,1.164,-4.19,9.1,-0.538,0.395,-0.073,sad
4.03,272,2640,0,0,3018,0,3053,3442,1531,2596,1307,2444,2534,1752,1613,3089,1.635,3.117,9.333,0.145,0.021,-0.042,1.204,-4.283,9.143,-0.618,0.456,-0.03,sad
4.04,265,2695,0,0,3057,0,3093,3445,1529,2590,1118,2445,2533,1711,1613,3091,1.537,3.225,9.395,0.12,0.002,-0.043,1.046,-4.47,9.043,-0.719,0.52,0.017,sad
4.05,325,2739,0,0,3066,0,3097,3441,1529,2590,1046,2449,2539,1711,1615,3089,1.621,3.081,9.376,0.116,0.019,-0.044,0.965,-4.47,8.514,-0.802,0.466,0.059,sad
4.06,432,2800,0,0,3146,0,3137,3433,1527,2581,0,2445,2535,1714,1618,3091,1.609,3.096,9.278,0.165,0.005,-0.062,0.864,-4.642,8.904,-0.897,0.547,0.233,sad
4.07,531,2863,0,0,3179,0,3172,3450,1544,2582,0,2450,2539,1703,1607,3091,1.523,3.232,9.297,0.152,-0.007,-0.056,0.812,-4.903,8.94,-1.003,0.601,0.477,sad
4.08,511,2861,0,0,3103,0,2994,3424,1545,2583,0,2449,2541,1709,1603,3090,1.714,3.299,9.258,0.151,0.002,-0.048,0.534,-5.136,9.005,-1.084,0.544,0.628,sad
4.09,684,2979,32,0,3229,0,3216,3432,1543,2582,0,2456,2541,1699,1603,3095,1.602,3.213,9.278,0.151,-0.001,-0.048,0.555,-5.617,9.064,-1.178,0.45,0.961,sad
4.1,775,3018,64,0,3277,0,3227,3433,1545,2583,0,2471,2525,1757,1597,3092,1.578,3.199,9.251,0.211,0.001,-0.08,0.656,-5.885,9.256,-1.26,0.532,1.296,sad
4.11,838,3065,359,0,3283,0,3230,3399,1543,2583,0,2452,2542,1700,1593,3093,1.573,3.278,9.163,0.222,0.019,-0.095,0.532,-6.388,9.653,-1.361,0.547,1.509,sad
4.12,955,3082,774,0,3329,0,3249,3333,1553,2579,0,2457,2543,1693,1596,3092,1.578,3.361,9.246,0.273,0.017,-0.116,0.321,-6.337,8.437,-1.199,0.72,1.809,sad
4.13,1070,3198,1233,0,3398,0,3270,3365,1540,2579,0,2459,2547,1699,1597,3087,1.69,3.527,9.203,0.278,0.041,-0.127,-0.709,-7.446,8.61,-0.8,0.86,2.031,sad
4.14,1168,3248,1637,0,3402,0,3263,3322,1561,2623,0,2468,2556,1688,1583,3098,1.623,3.496,9.227,0.243,0.023,-0.11,-0.608,-7.159,9.541,-0.181,1.175,2.235,sad
4.15,1298,3303,1910,77,3443,0,3274,3296,1592,2549,0,2486,2577,1669,1571,3102,1.556,3.673,9.222,0.193,0.012,-0.076,1.348,-2.892,11.569,1.021,1.311,2.135,sad
4.16,1367,3354,2092,354,3485,0,3280,3294,1572,2555,0,2478,2570,1675,1576,3100,1.599,3.637,9.17,0.167,0.023,-0.066,3.029,-0.603,9.483,1.083,0.101,0.355,sad
4.17,1411,3379,2192,599,3470,0,3249,3239,1518,2549,0,2479,2575,1672,1573,3101,1.53,3.757,9.172,0.143,0.005,-0.046,2.006,-0.302,8.485,1.071,-0.165,-0.055,sad
4.18,1469,3437,2288,761,3493,0,3247,3216,1588,2552,0,2477,2579,1673,1572,3176,1.611,3.742,9.199,0.095,0.025,-0.033,0.029,-0.567,10.319,1.229,-0.528,-0.277,sad
4.19,1520,3476,2357,875,3511,0,3251,3229,1589,2552,0,2589,2575,1671,1573,3094,1.614,3.646,9.165,0.087,0.023,-0.029,-1.003,-0.634,10.42,1.513,-0.895,-0.285,sad
4.2,1559,3505,2458,944,3517,0,3248,3190,1483,2611,0,2567,2519,1885,1681,3151,1.614,3.689,9.105,0.075,0.013,-0.029,-1.223,-0.644,10.24,1.626,-1.101,-0.229,sad
4.21,1589,3525,2512,993,3501,0,3236,3207,1591,2570,15,2496,2591,1587,1573,3119,1.537,3.735,9.131,0.08,0.012,-0.025,-1.353,-0.936,10.434,1.745,-1.244,-0.177,sad
4.22,1618,3577,2559,1078,3539,0,3248,3229,0,0,0,0,0,0,0,219,1.585,3.63,9.11,0.076,0.022,-0.029,-0.783,-1.53,11.025,1.778,-1.448,-0.268,sad
4.23,1646,3583,2629,1123,3533,0,3227,3220,0,0,0,0,0,0,0,247,1.556,3.759,9.134,0.068,0.02,-0.018,-0.723,-1.76,11.346,1.82,-1.46,-0.373,sad
4.24,1665,3573,2670,1199,3526,0,3223,3222,0,0,0,0,0,0,25,201,1.583,3.718,9.184,0.055,0.028,-0.017,-0.778,-2.286,11.734,1.847,-1.484,-0.579,sad
4.25,1640,3555,2679,1235,3494,0,3141,3183,1589,2555,0,2487,2581,1675,1575,3111,1.568,3.687,9.108,0.055,0.021,-0.02,-0.864,-1.937,9.333,1.416,-1.476,-0.761,sad
4.26,1719,3606,2745,1296,3526,0,3213,3210,0,0,0,0,0,0,0,115,1.58,3.637,9.112,0.06,0.018,-0.016,-0.414,-2.248,8.768,1.04,-1.532,-0.796,sad
4.27,1766,3632,2790,1329,3553,0,3227,3233,1579,2555,0,2479,2571,1677,1576,3101,1.561,3.773,9.136,0.059,0.016,-0.025,0.239,-4.034,10.233,0.338,-1.447,-1.048,sad
4.28,1791,3655,2791,1317,3564,0,3216,3246,1583,2553,0,2483,2555,1675,1574,3102,1.492,3.773,9.215,0.053,0.004,-0.019,0.089,-6.06,11.712,0.026,-1.353,-1.139,sad
4.29,1785,3653,2817,1200,3556,0,3198,3233,1587,2553,0,2463,2577,1674,1567,3103,1.587,3.733,9.127,0.048,0,-0.017,-0.036,-7.525,12.615,0.135,-1.305,-1.073,sad
4.3,1808,3649,2845,1168,3555,0,3217,3237,1589,2553,0,2483,2575,1672,1567,3104,1.604,3.639,9.074,0.068,-0.017,-0.02,-0.836,-9.505,12.002,0.749,-1.15,-0.95,sad
4.31,1818,3659,2816,1167,3555,0,3200,3232,1589,2553,0,2483,2575,1669,1568,3103,1.542,3.687,9.175,0.094,-0.033,-0.029,-2.916,-9.316,8.267,0.981,-0.974,-0.764,sad
4.32,1825,3670,2880,1201,3568,0,3184,3215,1589,2551,0,2483,2579,1671,1509,3107,1.626,3.711,9.151,0.104,-0.023,-0.031,-2.83,-10.178,6.574,0.941,-0.79,-0.631,sad
4.33,1887,3666,2928,1249,3571,0,3175,3125,1591,2550,0,2485,2577,1669,1591,3103,1.635,3.704,9.139,0.112,-0.039,-0.04,-3.694,-12.124,0.357,0.181,0.069,-0.204,sad
4.34,1954,3712,2986,1412,3583,0,3147,3111,1591,2550,0,2486,2579,1671,1583,3123,1.647,3.723,9.019,0.154,-0.05,-0.038,1.769,-4.985,4.86,-0.527,1.248,-0.13,sad
4.35,1931,3546,2815,1355,3503,0,2840,2802,1589,2551,0,2485,2579,1673,1573,3102,1.748,3.747,9.084,0.173,-0.055,-0.054,5.605,-3.728,16.307,-0.286,0.892,-0.515,sad
4.36,2128,3708,3017,1642,3526,0,2837,2795,0,0,0,9,0,1,0,975,1.755,3.713,9.091,0.206,-0.049,-0.062,-4.889,2.737,4.621,-1.301,-0.451,0.13,sad
4.37,2274,3695,3024,1786,3511,0,2630,2337,1546,2579,0,2471,2549,1699,1595,3095,1.688,3.809,9.062,0.254,-0.05,-0.059,1.073,-5.076,12.352,-1.197,-0.254,0.327,sad
4.38,2504,3726,3071,1941,3425,0,2378,1630,1510,2574,0,2461,2551,1691,1597,3096,1.839,4.099,9.064,0.243,-0.018,-0.058,2.717,-1.844,7.465,-1.306,-0.486,0.182,sad
4.39,2672,3728,3107,2038,3337,0,1925,1077,1556,2573,0,2463,2549,1691,1590,3096,1.678,4.008,9.007,0.208,-0.006,-0.049,3.831,-4.286,8.851,-0.304,0.762,0.319,sad
4.4,2827,3759,3138,2118,3245,0,1568,237,0,2786,0,2375,2681,1,2063,3271,1.815,3.962,9.036,0.218,0.034,-0.025,1.748,-3.345,9.802,-0.244,1.085,0.499,sad
4.41,2931,3767,3190,2151,3071,0,971,0,1531,2573,0,2455,2599,1702,1607,3095,1.599,4.135,8.892,0.251,0.048,-0.038,1.07,-3.06,9.826,-0.356,1.152,0.502,sad
4.42,3008,3753,3197,2147,2755,0,416,0,1545,2581,5,2457,2541,1696,1604,3095,1.609,3.962,8.988,0.274,0.056,-0.051,1.592,-3.596,9.74,-0.404,0.315,0.224,sad
4.43,3047,3728,3169,2053,2369,0,151,0,1587,2550,15,2476,2569,1677,1579,3015,2.059,3.809,8.875,0.292,0.016,-0.169,1.669,-3.608,9.404,-0.253,0.135,0.145,sad
4.44,3107,3718,3165,1920,1746,0,0,0,1583,2553,25,2475,2525,1659,1577,3099,1.525,4.501,9.06,0.42,-0.005,-0.066,1.444,-3.555,9.558,-0.208,0.196,0.13,sad
4.45,3140,3693,3145,1750,1605,0,0,0,1586,2569,53,2483,2549,1688,1590,3096,1.75,4.164,8.756,0.465,0.051,-0.03,1.293,-3.326,9.325,-0.194,0.183,0.134,sad
4.46,3183,3647,3007,1638,1485,0,0,0,1555,2579,0,2459,2543,1695,1599,3093,1.659,4.41,8.748,0.485,0.092,-0.018,1.13,-3.536,9.534,-0.179,0.069,0.093,sad
4.47,3165,3563,2927,1474,1234,0,0,0,1558,2571,135,2459,2544,1695,1605,3095,1.626,4.456,8.626,0.515,0.154,0.002,1.226,-3.371,9.388,-0.185,0.053,0.101,sad
4.48,3159,3453,2826,1266,1104,0,0,0,1583,2552,46,2472,2557,1677,1579,3096,1.676,4.554,8.863,0.549,0.192,0.045,1.393,-3.567,9.699,-0.076,0.142,0.078,sad
4.49,3126,3347,2528,1067,880,0,0,0,1594,2553,53,2479,2633,1677,1579,3015,1.432,4.434,8.66,0.583,0.189,0.055,1.259,-3.575,9.309,-0.082,0.154,0.109,sad
4.5,3154,3154,2553,960,672,0,0,0,1592,2551,30,2476,2568,1675,1576,3097,1.513,5.145,8.432,0.783,0.167,0.028,1.022,-3.67,9.232,-0.063,0.096,0.117,sad
4.51,3141,2905,2300,746,561,0,0,0,1595,2551,0,2477,2567,1659,1577,3099,1.803,4.798,8.564,0.773,0.164,-0.03,1.188,-3.73,9.464,-0.073,0.082,0.074,sad
4.52,3101,2547,2032,567,527,0,0,0,203,319,58,1215,990,7,2579,3445,1.458,5.016,8.578,0.861,0.122,-0.084,1.211,-3.577,9.33,-0.039,0.023,0.068,sad
4.53,2739,2019,1610,302,376,0,0,0,293,311,28,1271,1015,9,2629,3463,1.659,4.841,8.483,0.97,0.122,-0.252,1.171,-3.689,9.349,-0.011,0.039,0.076,sad
4.54,2624,1728,976,268,326,0,0,0,295,127,15,1306,1076,7,2687,3488,2.248,5.449,8.712,1.078,0.059,-0.428,1.243,-3.548,9.254,-0.044,-0.022,0.049,sad
4.55,2416,1261,0,183,107,0,0,0,727,183,92,1355,2440,2092,2207,3771,1.966,5.818,9.385,1.221,-0.063,-0.684,1.161,-3.582,9.333,-0.061,-0.028,0.046,sad
4.56,2109,880,0,0,98,0,0,0,413,365,56,1677,1365,3,3034,3966,1.997,5.82,8.801,1.484,-0.027,-0.885,1.245,-3.642,9.244,-0.045,-0.032,0.036,sad
4.57,1793,464,0,0,0,0,0,0,416,441,299,1817,1627,31,3090,3928,1.954,6.495,8.868,1.66,0.163,-1.166,1.135,-3.637,9.268,-0.032,-0.048,0.015,sad
4.58,1569,171,0,0,0,0,0,0,343,471,1328,1867,1775,52,2985,3691,1.235,7.865,8.578,1.697,0.474,-1.368,1.231,-3.601,9.29,-0.048,-0.016,0.028,sad
4.59,1206,45,0,0,122,0,0,0,441,476,1430,1992,1946,47,3276,4094,1.671,6.431,8.835,1.341,0.852,-1.606,1.233,-3.618,9.306,-0.046,-0.019,0.023,sad
4.6,385,0,0,0,114,0,0,0,484,711,1594,2041,2019,54,3261,3999,2.38,5.435,10.704,0.596,0.878,-1.47,1.235,-3.699,9.337,-0.014,0.035,0.02,sad
4.61,0,0,0,0,118,0,0,0,628,807,1896,2123,2079,51,3275,3957,6.103,1.535,8.528,0.072,0.607,-0.757,1.25,-3.668,9.349,0.012,0.063,0.022,sad
4.62,0,0,0,0,162,0,0,0,635,889,1847,2215,2147,47,3368,4095,4.173,1.937,9.603,-0.251,0.133,-0.08,1.298,-3.673,9.395,0.019,0.06,0.021,sad
4.63,0,0,0,0,64,0,0,0,687,888,1891,2240,2159,47,3383,4056,1.815,1.896,8.617,-0.481,0.011,0.404,1.298,-3.656,9.306,0.002,0.025,0.016,sad
4.64,0,0,0,0,0,0,0,0,685,909,1737,2269,2183,47,3400,4095,0.718,2.054,9.562,-0.742,-0.262,0.398,1.243,-3.68,9.261,0.009,0.016,0.014,sad
4.65,0,0,0,0,0,0,0,0,665,1033,1996,2269,2205,59,3406,4095,0.259,2.15,9.79,-1.047,-0.309,0.386,1.247,-3.639,9.294,0.004,-0.008,0.005,sad
4.66,0,0,0,0,0,0,0,0,659,956,2019,2279,2351,50,3417,4095,-0.737,2.401,9.632,-1.408,-0.582,0.196,1.176,-3.642,9.21,0.001,-0.018,0.005,sad
4.67,0,0,0,0,14,0,0,0,649,1087,2014,2359,2424,45,3389,4092,-0.749,3.146,9.833,-1.706,-0.793,-0.055,1.305,-3.673,9.318,0.013,-0.006,0.005,sad
4.68,0,0,0,0,0,0,0,0,712,1069,2019,2287,2468,52,3399,4055,-0.589,3.828,9.984,-1.954,-0.89,-0.264,1.314,-3.63,9.23,0.007,-0.021,0.003,sad
4.69,0,0,0,0,26,0,0,0,806,1108,2034,2335,2581,48,3403,4014,-0.019,4.252,9.931,-2.083,-0.859,-0.352,1.312,-3.649,9.309,-0.001,-0.022,0.003,sad
4.7,0,0,0,0,0,0,0,0,557,1133,2067,2443,2629,51,3421,4030,1.302,4.788,10.24,-2.086,-0.798,-0.092,1.283,-3.651,9.352,0.007,-0.011,0.004,sad
4.71,0,0,0,0,29,0,0,0,658,1132,2055,2425,2659,51,3439,3981,2.184,5.231,10.116,-1.994,-0.618,0.427,1.295,-3.68,9.218,0.017,0,0.012,sad
4.72,0,0,0,0,0,0,0,0,755,1307,2065,2451,2672,50,3434,4011,2.624,5.368,9.984,-1.842,-0.425,0.989,1.286,-3.62,9.287,0.033,0.041,0.022,sad
4.73,0,0,0,0,0,0,0,0,703,1293,1906,2473,2712,55,3465,4053,2.468,5.255,9.622,-1.739,-0.296,1.274,1.247,-3.709,9.345,0.032,0.039,0.018,sad
4.74,0,0,0,0,3,0,0,0,853,1253,2101,2523,2728,47,3471,4061,1.81,4.894,8.825,-1.555,-0.134,1.469,1.243,-3.596,9.309,0.034,0.051,0.02,sad
4.75,0,0,0,0,0,0,0,0,894,1229,2106,2536,2735,53,3449,4053,1.111,4.408,7.98,-1.288,-0.039,1.525,1.326,-3.666,9.306,0.035,0.053,0.02,sad
4.76,0,0,0,0,0,0,0,0,907,1300,2111,2573,2733,50,3452,4056,0.328,4.731,8.724,-0.97,-0.107,1.5,1.267,-3.632,9.251,0.043,0.05,0.025,sad
4.77,0,0,0,0,0,0,0,0,966,1333,2239,2597,2735,47,3468,4056,0.565,5.239,9.349,-0.792,-0.221,1.439,1.269,-3.603,9.292,0.044,0.061,0.025,sad
4.78,0,0,0,0,0,0,0,0,941,1261,2152,2617,2710,5,3405,4041,0.577,5.329,9.507,-0.631,-0.286,1.337,1.257,-3.589,9.196,0.043,0.066,0.029,sad
4.79,0,0,0,0,0,0,0,0,997,1295,2157,2645,2699,47,3382,4025,0.388,5.859,9.931,-0.502,-0.394,1.213,1.267,-3.673,9.383,0.051,0.069,0.029,sad
4.8,0,0,0,0,0,0,0,0,1103,1273,2034,2679,2669,63,3355,4008,0.182,6.019,9.632,-0.432,-0.499,1.066,1.29,-3.531,9.254,0.046,0.061,0.026,sad
4.81,0,0,0,0,0,0,0,0,1123,1215,2178,2711,2603,47,3322,4013,0.098,6.242,8.772,-0.245,-0.558,0.666,1.271,-3.572,9.345,0.042,0.066,0.027,sad
4.82,0,0,0,0,0,0,0,0,1229,1266,2060,2714,2569,0,3282,4013,0.067,6.474,7.839,-0.022,-0.753,0.319,0.687,-3.412,9.395,0.023,0.065,0.019,sad
4.83,0,0,0,0,0,0,0,0,1184,1198,2175,2772,2463,47,3243,4047,0.242,7.125,8.171,0.093,-0.856,0.213,1.24,-3.62,9.318,0.044,0.07,0.029,sad
4.84,0,0,0,0,0,0,0,0,1143,1225,2167,2803,2395,47,3208,3983,0.893,9.795,11.514,0,-1.088,0.257,1.267,-3.606,9.33,0.037,0.048,0.026,sad
4.85,0,0,0,0,0,0,0,0,1293,1294,2188,2805,2300,51,3193,3887,2.923,10.484,10.815,-1.034,-0.343,0.559,1.259,-3.606,9.27,0.035,0.038,0.023,sad
4.86,0,0,0,0,0,0,0,0,1427,1286,2198,2856,2201,47,3193,4025,-0.702,7.345,5.262,-1.215,0.617,0.379,1.369,-3.594,9.251,0.042,0.055,0.019,sad
4.87,0,0,0,0,0,0,0,0,1415,1259,2188,2861,2130,47,3181,4027,-0.824,6.773,4.604,-0.691,0.322,0.037,1.259,-3.67,9.311,0.034,0.045,0.025,sad
4.88,0,0,0,0,0,0,0,0,1591,1359,2208,2936,2043,47,3150,4024,0.402,5.964,3.019,-0.071,0.203,-0.168,1.185,-3.543,9.373,0.03,0.032,0.017,sad
4.89,0,0,0,0,175,0,0,0,1640,1309,2357,2971,2103,45,3124,4013,3.57,4.343,11.791,-0.051,0.677,-0.221,1.211,-3.618,9.352,0.032,0.021,0.016,sad
4.9,0,0,0,0,377,0,0,0,1661,1339,2226,3000,2187,51,3099,3977,2.696,-0.958,9.225,-0.133,0.327,-0.008,1.226,-3.558,9.309,0.034,0.015,0.015,sad
4.91,0,0,0,0,249,0,0,0,1801,1306,2229,2969,2207,98,3015,3992,0.905,0.702,8.471,0.423,-0.088,-0.105,1.219,-3.615,9.313,0.065,0.033,0.008,sad
4.92,0,0,0,0,184,0,0,426,1769,1463,2231,2987,2151,50,2856,3967,1.75,2.286,10.187,0.519,-0.278,0.094,1.173,-3.484,9.316,0.122,0.017,-0.012,sad
4.93,0,0,0,0,323,0,15,1143,1703,1624,2234,3021,2220,47,2706,3958,1.247,1.961,9.931,0.657,-0.232,0.136,1.152,-3.462,9.38,0.106,-0.05,-0.016,sad
4.94,0,0,0,0,350,0,272,1677,1689,1688,2234,3068,2303,50,2603,3917,2.449,2.784,9.479,0.54,-0.346,0.04,1.092,-3.46,9.366,0.084,-0.039,-0.014,sad
4.95,0,0,0,0,460,0,405,1946,1565,1737,2239,3092,2312,47,2367,3875,2.849,2.614,9.409,0.541,-0.538,-0.054,1.3,-3.421,9.378,0.06,0.039,0.014,sad
4.96,0,0,0,0,541,0,855,2391,1456,1787,2275,3089,1927,47,2055,3835,2.847,2.885,9.534,0.49,-0.452,-0.04,1.286,-3.45,9.342,0.035,0.062,0.02,sad
4.97,0,0,0,0,626,0,1091,2614,1387,1779,2244,3117,1749,51,1915,3810,3.373,2.737,9.057,0.447,-0.374,0.015,1.233,-3.412,9.357,0.021,0.04,0.013,sad
4.98,0,0,0,0,794,0,1436,2800,1487,1885,2249,3176,1494,47,1709,3746,5.59,4.324,9.11,0.513,-0.09,-0.036,1.238,-3.445,9.354,0.005,0.034,0.017,sad
4.99,0,159,0,0,891,0,1773,2897,1455,1871,2242,3221,1421,47,1610,3673,3.974,2.856,8.904,0.321,0.232,-0.136,1.245,-3.462,9.345,0.004,0.036,0.021,sad
5,0,458,0,0,939,0,2026,2982,1391,1816,2244,3238,1365,47,1659,3627,2.404,2.978,9.347,0.22,0.203,-0.058,1.24,-3.45,9.311,-0.006,0.042,0.023,sad
5.01,0,666,0,0,1277,0,2225,3123,1428,1591,2244,3240,1084,51,1357,3533,2.629,2.887,9.084,0.177,0.201,-0.077,1.18,-3.452,9.364,-0.013,0.048,0.023,sad
5.02,0,945,0,0,1398,0,2295,3177,1386,1433,2190,3251,857,47,1021,3416,2.662,2.931,9.127,0.14,0.182,-0.083,1.542,-3.438,9.117,-0.015,0.061,0.023,sad
5.03,0,1185,0,0,1640,0,2401,3279,1301,1309,2244,3241,816,53,939,3343,2.43,3.031,9.39,0.118,0.171,-0.075,1.326,-3.467,9.321,-0.028,0.055,0.024,sad
5.04,0,1445,0,0,1857,0,2493,3344,1191,1199,2244,3220,721,48,825,3153,2.682,2.856,9.172,0.122,0.209,-0.075,1.173,-3.436,9.294,-0.031,0.048,0.028,sad
5.05,0,1563,0,0,1933,0,2556,3387,1126,1261,2234,3148,624,47,410,2915,2.272,3.117,9.469,0.081,0.154,-0.044,1.006,-2.964,8.732,-0.097,0.017,0.022,sad
5.06,0,1707,0,0,2018,0,2672,3414,1158,1275,2234,3113,543,45,275,2731,2.538,2.976,9.098,0.082,0.185,-0.035,1.259,-3.407,9.345,-0.094,0.022,0.02,sad
5.07,0,1717,0,0,2173,0,2767,3477,1589,2553,1510,2475,2567,1671,1578,3099,2.437,3.069,9.488,0.076,0.21,-0.075,1.508,-3.278,9.828,-0.126,0.087,0.023,sad
5.08,0,1778,0,0,2282,0,2798,3495,1583,2556,1527,2474,2565,1673,1578,3031,2.5,2.971,9.196,0.031,0.16,-0.059,1.207,-3.438,9.577,-0.22,0.104,-0.021,sad
5.09,0,1842,0,0,2366,0,2823,3499,1583,2556,1522,2475,2565,1674,1579,3101,2.502,2.825,8.952,0.047,0.242,-0.072,1.504,-3.27,9.222,-0.195,0.092,0.025,sad
5.1,0,1917,0,0,2482,0,2897,3538,1583,2555,1522,2471,2556,1674,1577,3087,2.334,2.966,9.143,0.08,0.369,-0.111,1.025,-3.706,9.342,-0.327,0.094,-0.051,sad
5.11,0,1895,0,0,2523,0,2890,3527,1588,2506,1527,2472,2557,1676,1580,3096,2.227,2.909,9.11,0.077,0.4,-0.122,1.092,-3.718,9.335,-0.402,0.138,-0.117,sad
5.12,0,1975,0,0,2609,0,2911,3521,1587,2557,1538,2471,2557,1647,1579,3096,2.138,2.923,8.954,0.107,0.56,-0.154,1.709,-3.474,9.613,-0.456,0.217,-0.122,sad
5.13,0,2047,0,0,2698,0,2955,3559,1583,2556,1497,2471,2553,1684,1581,3095,1.666,3.364,9.984,0.108,0.468,-0.144,1.374,-3.85,9.29,-0.55,0.246,-0.161,sad
5.14,0,2103,0,0,2704,0,2934,3536,1485,2556,1533,2479,2566,1679,1583,3096,1.81,3.108,9.591,0.078,0.346,-0.09,1.293,-3.984,9.16,-0.612,0.288,-0.154,sad
5.15,0,2158,0,0,2736,0,2949,3542,1565,2557,1538,2473,2633,1673,1581,3097,1.915,3.096,9.419,0.042,0.157,-0.03,1.46,-4.168,9.177,-0.658,0.284,-0.155,sad
5.16,0,2276,0,0,2810,0,3024,3570,1581,2554,1502,2472,2553,1675,1581,3095,1.702,3.108,9.483,0.043,0.119,-0.027,1.585,-4.202,9.237,-0.725,0.444,-0.146,sad
5.17,0,2334,0,0,2818,0,3036,3542,1577,2565,1384,2477,2556,1679,1581,3087,1.745,3.021,9.335,0.044,0.111,-0.023,1.518,-4.434,9.335,-0.911,0.61,-0.09,sad
5.18,0,2434,9,0,2862,0,3067,3562,1575,2557,1128,2472,2556,1681,1582,3096,1.753,3.065,9.278,0.061,0.131,-0.043,1.046,-4.312,8.466,-1.039,0.684,-0.023,sad
5.19,0,2516,0,0,2933,0,3136,3611,1574,2557,0,2472,2557,1688,1580,3096,1.697,3.115,9.419,0.049,0.118,-0.037,0.962,-4.681,9.215,-1.302,0.654,0.215,sad
5.2,0,2551,33,0,2966,0,3156,3609,1576,2556,0,2471,2565,1675,1583,3096,1.599,3.084,9.407,0.041,0.095,-0.019,1.305,-5.581,8.799,-1.399,0.66,0.625,sad
5.21,0,2606,47,0,2988,0,3161,3583,1580,2556,25,2475,2565,1669,1663,3097,1.681,3.072,9.318,0.038,0.086,-0.026,1.077,-5.48,9.167,-1.422,0.706,0.799,sad
5.22,0,2672,52,0,3038,0,3206,3583,1563,2556,0,2519,2565,1741,1577,3113,1.657,3.05,9.426,0.033,0.086,-0.026,0.891,-6.036,8.653,-1.46,0.829,1.124,sad
5.23,0,2677,42,0,3040,0,3197,3600,1576,2556,0,2507,2567,1675,1579,3097,1.647,3.014,9.369,0.047,0.067,-0.027,0.792,-6.227,8.224,-1.436,0.976,1.445,sad
5.24,0,2725,45,0,3054,0,3184,3583,1576,2555,0,2471,2569,1684,1577,3097,1.638,3.024,9.397,0.076,0.065,-0.035,0.335,-6.227,8.09,-1.439,1.025,1.576,sad
5.25,0,2785,85,0,3115,0,3258,3631,1571,2611,0,2475,2567,1678,1598,3098,1.595,3.112,9.414,0.095,0.053,-0.031,-0.457,-6.766,8.09,-1.439,1.183,1.82,sad
5.26,0,2804,128,0,3129,0,3263,3612,1576,2555,0,2476,2554,1675,1583,3099,1.638,3.091,9.347,0.094,0.043,-0.033,-0.828,-6.893,8.169,-1.312,1.321,2.095,sad
5.27,0,2855,240,0,3158,0,3278,3625,1590,2553,0,2483,2575,1669,1571,3102,1.618,3.096,9.433,0.09,0.037,-0.029,-0.883,-6.316,8.521,-0.991,1.339,2.217,sad
5.28,0,2891,322,0,3196,0,3293,3629,1587,2573,0,2479,2573,1663,1573,3100,1.566,3.105,9.354,0.085,0.031,-0.023,4.911,-3.9,12.869,0.377,0.61,1.544,sad
5.29,0,2928,399,0,3200,0,3295,3607,1545,2569,0,2469,2553,1689,1584,3111,1.686,3.175,9.309,0.093,0.032,-0.029,6.764,-2.588,9.883,1.125,0.034,-1.269,sad
5.3,0,2955,486,0,3200,0,3277,3581,1561,2569,0,2469,2555,1689,1589,3099,1.666,3.165,9.285,0.099,0.026,-0.021,2.239,-2.219,8.801,1.145,-0.157,-1.829,sad
5.31,0,3016,649,0,3251,0,3319,3613,1593,2557,0,2485,2581,1669,1591,3103,1.652,3.191,9.404,0.102,0.011,-0.025,-3.191,-1.305,10.214,1.459,-0.804,-1.355,sad
5.32,0,3044,784,0,3280,0,3318,3609,1591,2552,0,2485,2557,1671,1571,3103,1.666,3.179,9.287,0.096,0.024,-0.021,-3.644,-1.688,10.47,1.882,-0.976,-0.278,sad
5.33,0,3034,877,0,3269,0,3300,3569,1493,2585,0,2455,2530,1718,1612,3090,1.638,3.127,9.249,0.086,0.015,-0.025,-2.816,-1.733,10.072,1.988,-1.075,0.078,sad
5.34,0,3100,959,0,3298,0,3323,3599,123,0,17,0,0,7,0,118,1.664,3.23,9.273,0.105,0.021,-0.037,-0.637,-2.349,10.053,2.109,-1.245,0.15,sad
5.35,0,3098,1005,0,3312,0,3323,3573,0,0,0,0,0,0,0,159,1.712,3.093,9.242,0.108,0.025,-0.037,-0.309,-2.528,10.254,2.142,-1.311,-0.027,sad
5.36,0,3136,1120,0,3343,0,3333,3583,1589,2507,0,2489,2615,1677,1579,3111,1.674,3.194,9.23,0.124,0.025,-0.045,-0.34,-2.581,10.341,2.137,-1.32,-0.22,sad
5.37,47,3151,1245,0,3330,0,3305,3559,1591,2508,0,2486,2577,1670,1572,3107,1.578,3.249,9.448,0.114,0.018,-0.041,-0.448,-2.895,10.834,2.021,-1.354,-0.503,sad
5.38,80,3136,1349,0,3303,0,3267,3503,1591,2549,0,2479,2621,1643,1572,3103,1.662,3.249,9.311,0.1,0.022,-0.037,-0.239,-3.316,11.636,2.026,-1.275,-0.597,sad
5.39,123,3225,1492,12,3378,0,3333,3563,1592,2549,0,2487,2568,1669,1571,3101,1.635,3.235,9.311,0.108,0.025,-0.035,-0.11,-3.584,11.121,2.014,-1.091,-0.806,sad
5.4,151,3249,1602,7,3391,0,3282,3557,1589,2551,0,2483,2569,1678,1575,3098,1.607,3.16,9.256,0.12,0.026,-0.049,0.563,-4.367,11.425,1.849,-0.808,-1.208,sad
5.41,176,3287,1766,11,3401,0,3318,3541,1581,2554,0,2478,2572,1676,1577,3099,1.635,3.314,9.297,0.142,0.022,-0.057,0.278,-4.901,11.88,1.794,-0.672,-1.442,sad
5.42,248,3251,1885,0,3307,0,3325,3489,1571,2554,0,2482,2572,1669,1577,3151,1.645,3.328,9.234,0.142,0.028,-0.062,-0.809,-5.782,11.796,1.608,-0.72,-1.651,sad
5.43,359,3312,2006,0,3403,0,3292,3495,1583,2553,0,2481,2573,1675,1575,3101,1.63,3.39,9.304,0.137,0.018,-0.064,-1.262,-7.69,11.435,1.41,-0.659,-1.344,sad
5.44,371,3360,2147,63,3429,0,3287,3503,1583,2555,0,2482,2572,1675,1575,3143,1.645,3.354,9.232,0.137,0.008,-0.066,-2.102,-8.535,10.585,1.388,-0.712,-1.164,sad
5.45,340,3189,2076,304,3238,0,3098,3370,1588,2552,0,2480,2577,1673,1572,3101,1.614,3.304,9.218,0.139,0.012,-0.073,-2.44,-9.208,6.467,1.021,-0.695,-0.734,sad
5.46,431,3412,2363,399,3454,0,3280,3445,1587,2604,0,2487,2579,1673,1574,3103,1.592,3.338,9.131,0.167,0.025,-0.106,-4.068,-10.487,3.268,0.483,-0.555,-0.102,sad
5.47,501,3376,2479,573,3408,0,3245,3344,1590,2551,0,2484,2577,1671,1573,3101,1.547,3.338,9.246,0.193,0.022,-0.136,-3.306,-11.193,2.16,0.14,-0.981,0.154,sad
5.48,627,3490,2653,796,3470,0,3229,3378,0,3,0,0,0,0,0,7,1.595,3.517,9.352,0.225,-0.002,-0.156,4.336,-8.653,0.57,-0.802,1.23,-0.173,sad
5.49,635,3515,2742,942,3472,0,3201,3339,1587,2565,0,2484,2577,1675,1575,3103,1.666,3.601,9.21,0.245,-0.025,-0.15,0.939,-2.406,14.626,-0.559,0.871,-0.437,sad
5.5,816,3525,2801,1173,3451,0,3120,3189,1584,2551,0,2483,2571,1672,1574,3103,1.697,3.587,9.163,0.233,-0.043,-0.122,-1.164,5.308,9.807,-0.649,0.376,-0.322,sad
5.51,1023,3561,2893,1389,3440,0,2998,2961,1583,2554,0,2463,2568,1673,1575,3101,1.678,3.517,9.134,0.23,-0.063,-0.111,-3.847,1.051,4.906,-1.413,0.164,-0.034,sad
5.52,1223,3632,3021,1628,3445,0,2886,2661,1581,2555,0,2493,2575,1676,1575,3103,1.532,3.498,9,0.226,-0.056,-0.065,-3.218,-2.057,12.919,-1.192,-0.568,0.057,sad
5.53,1408,3637,3098,1895,3387,0,2645,2204,0,0,0,0,0,0,119,2361,1.693,3.627,9.098,0.256,-0.072,-0.054,3.979,-3.366,9.838,-1.377,-0.962,0.142,sad
5.54,1607,3665,3159,2055,3326,0,2417,1665,0,0,0,0,0,43,343,2451,1.705,3.768,9.134,0.281,-0.043,-0.057,4.18,-3.642,10.197,-1.246,-0.828,0.085,sad
5.55,1875,3720,3271,2209,3275,0,2101,1082,0,0,0,0,0,0,875,3021,1.611,3.9,9.086,0.259,-0.026,-0.026,4.429,-2.88,9.766,-1.097,-0.421,0.167,sad
5.56,1981,3718,3283,2272,3131,0,1676,270,1571,2567,0,2471,2557,1684,1583,3096,1.59,3.864,9.086,0.257,-0.009,-0.033,2.184,-2.732,8.076,-0.401,0.862,0.408,sad
5.57,2129,3724,3327,2297,2992,0,994,0,1575,2557,0,2463,2502,1683,1581,3096,1.59,4.164,9.237,0.315,-0.004,-0.023,0.141,-3.706,11.487,-0.258,0.542,0.281,sad
5.58,2171,3691,3338,2308,2769,0,482,0,0,0,5,1,167,0,1757,3627,1.417,3.946,9.091,0.301,0.002,-0.052,1.171,-3.357,10.218,-0.17,0.468,0.269,sad
5.59,2241,3733,3351,2237,2494,0,159,0,1605,2557,69,2476,2573,1679,1581,3087,1.453,3.862,9.407,0.161,0.023,-0.187,1.231,-2.741,9.73,-0.127,0.491,0.243,sad
5.6,2190,3758,3367,2107,1872,0,106,0,1575,2553,0,2470,2551,1663,1577,3100,1.942,3.828,8.712,0.467,0.002,-0.064,1.542,-3.249,9.797,-0.121,0.385,0.207,sad
5.61,2128,3719,3313,1942,1616,0,0,0,1583,2575,15,2475,2568,1685,1502,3100,1.602,4.089,9.009,0.458,0.038,-0.071,1.662,-3.206,9.467,-0.167,0.29,0.134,sad
5.62,2185,3695,3259,1869,1607,0,0,0,1575,2556,94,2476,2557,1677,1582,3089,1.609,3.989,8.808,0.528,0.03,-0.08,1.499,-3.249,9.531,-0.127,0.184,0.088,sad
5.63,2217,3664,3197,1761,1433,0,0,0,1581,2556,17,2476,2568,1679,1565,3101,1.709,4.405,8.729,0.53,0.07,-0.057,1.554,-3.215,9.495,-0.13,0.181,0.056,sad
5.64,2255,3633,3140,1706,1300,0,0,0,1588,2553,43,2475,2568,1676,1579,3099,2.21,4.293,8.775,0.569,0.107,-0.02,1.487,-3.215,9.459,-0.084,0.176,0.073,sad
5.65,2240,3568,3123,1659,995,0,0,0,1597,2551,43,2484,2569,1673,1575,3099,1.65,4.736,8.765,0.634,0.084,0.019,1.199,-3.079,9.515,-0.086,0.19,0.085,sad
5.66,2331,3510,3120,1535,754,0,0,0,1597,2551,35,2483,2573,1672,1575,3103,1.695,4.709,8.696,0.647,0.139,0.071,1.377,-3.132,9.479,-0.109,0.134,0.1,sad
5.67,2386,3423,3146,1531,745,0,0,0,1596,2551,30,2479,2479,1673,1575,3091,1.781,4.616,8.751,0.758,0.15,0.067,1.358,-3.17,9.44,-0.209,0.182,0.16,sad
5.68,2419,3233,3104,1486,723,0,0,0,1597,2549,43,2478,2569,1676,1575,3100,1.664,4.899,8.547,0.895,0.279,-0.011,1.195,-3.297,9.505,-0.346,0.238,0.298,sad
5.69,2511,2864,2999,1394,511,0,0,0,1597,2551,35,2476,2575,1674,1575,3099,1.585,5.009,8.552,1.07,0.333,-0.027,1.307,-3.661,9.56,-0.303,0.251,0.266,sad
5.7,2410,2342,2559,1232,329,0,0,0,1622,2551,58,2479,2568,1672,1576,3099,1.58,5.171,8.59,1.15,0.381,-0.145,1.276,-3.62,9.397,-0.261,0.208,0.222,sad
5.71,2707,2116,2352,1157,318,0,0,0,1597,2549,51,2478,2571,1672,1575,3099,1.741,5.569,8.815,1.319,0.242,-0.287,1.233,-3.656,9.285,-0.105,0.16,0.108,sad
5.72,2755,1505,1417,831,146,0,0,0,283,268,58,1490,843,5,2963,4091,1.456,5.906,9.163,1.477,0.176,-0.489,1.264,-3.682,9.321,-0.057,0.083,0.092,sad
5.73,2733,1096,371,403,0,0,0,0,351,287,0,1671,924,4,2995,4095,1.927,6.201,8.887,1.674,0.254,-0.78,1.274,-3.663,9.285,-0.043,0.02,0.067,sad
5.74,2591,712,0,105,0,0,0,0,412,327,12,1709,989,3,3033,4095,1.683,6.51,8.444,1.793,0.378,-1.067,1.216,-3.608,9.285,-0.044,-0.011,0.039,sad
5.75,2304,189,0,0,0,0,0,0,354,355,2,1821,1144,4,3125,4095,1.329,6.687,8.064,1.905,0.509,-1.328,1.176,-3.634,9.206,-0.035,-0.036,0.027,sad
5.76,1776,94,0,0,0,0,0,0,369,443,5,1931,1311,4,3326,4095,1.235,8.633,8.418,1.945,0.567,-1.482,1.233,-3.646,9.304,0.005,-0.049,0.002,sad
5.77,1382,0,0,0,0,0,0,0,345,471,5,1947,1479,22,3261,4095,1.274,7.841,8.15,1.753,0.777,-1.707,1.252,-3.575,9.354,0,-0.045,0.001,sad
5.78,1126,0,0,0,0,0,0,0,379,493,17,1951,1548,8,3207,4095,1.336,8.377,7.233,1.479,1.027,-1.808,1.231,-3.565,9.294,0.003,-0.047,0.007,sad
5.79,662,0,0,0,101,0,0,0,375,541,17,2019,1684,3,3317,4095,1.02,7.369,9.792,1.002,1.137,-1.88,1.257,-3.637,9.29,0.003,-0.048,0.001,sad
5.8,255,0,0,0,130,0,0,0,331,503,5,2041,1835,3,3347,4095,2.526,5.588,11.504,0.221,0.962,-1.729,1.283,-3.62,9.165,0.002,-0.069,-0.002,sad
5.81,121,0,0,0,141,0,0,0,318,520,1430,2071,2027,51,3411,4095,5.971,4.997,11.825,-0.805,1.077,-0.702,1.271,-3.625,9.268,0.015,-0.067,-0.001,sad
5.82,163,0,0,0,134,0,0,0,309,589,1492,2089,2085,47,3403,4095,2.612,2.409,8.588,-0.895,-0.014,0.123,1.267,-3.606,9.378,0.008,-0.049,0.008,sad
5.83,49,0,0,0,80,0,0,0,276,654,1571,2117,2203,38,3512,4095,0.338,2.241,9.924,-1.304,-0.493,0.257,1.221,-3.637,9.34,0.001,-0.007,0.009,sad
5.84,0,0,0,0,32,0,0,0,275,683,1548,2079,2237,46,3363,3885,-0.508,2.097,9.019,-1.666,-0.845,0.188,1.314,-3.591,9.258,-0.001,-0.007,0.011,sad
5.85,0,0,0,0,0,0,0,0,314,850,1620,2108,2283,47,3375,3945,-0.675,2.535,9.311,-1.755,-1.026,-0.004,1.293,-3.644,9.258,0.004,-0.013,0.013,sad
5.86,0,0,0,0,0,0,0,0,311,911,1768,2087,2298,47,3271,3787,-0.965,3.366,10.168,-2.025,-1.233,-0.116,1.279,-3.584,9.239,0.004,-0.037,0.002,sad
5.87,0,0,0,0,0,0,0,0,361,979,1891,2239,2493,51,3545,4095,-1.12,3.986,10.025,-2.223,-1.341,-0.102,1.334,-3.62,9.297,0.009,-0.05,0.005,sad
5.88,0,0,0,0,28,0,0,0,365,919,1986,2237,2557,51,3511,4051,0.373,4.322,10.005,-2.248,-1.127,0.116,1.355,-3.567,9.299,-0.003,-0.043,0.003,sad
5.89,0,0,0,0,0,0,0,0,295,1016,2019,2301,2716,48,3544,4085,1.001,4.42,10.027,-2.157,-0.871,0.757,1.343,-3.613,9.273,-0.015,-0.029,0.011,sad
5.9,0,0,0,0,8,0,0,0,340,1165,2003,2269,2679,46,3515,4041,0.989,5.107,11.076,-2.047,-0.536,1.442,1.336,-3.584,9.337,-0.024,-0.041,0.003,sad
5.91,0,0,0,0,0,0,0,0,383,1174,2019,2310,2749,50,3559,4040,0.352,5.356,10.903,-2.045,-0.249,1.839,1.415,-3.67,9.325,-0.01,-0.025,0.014,sad
5.92,0,0,0,0,0,0,0,0,599,1175,2024,2327,2830,14,3594,4067,-0.905,4.214,8.234,-1.69,0.01,1.926,1.429,-3.677,9.282,-0.002,-0.008,0.011,sad
5.93,0,0,0,0,0,0,0,0,632,1267,2055,2318,2877,51,3592,4095,-1.044,4.032,7.788,-0.931,-0.088,1.737,1.444,-3.764,9.321,-0.004,-0.013,0.013,sad
5.94,0,0,0,0,0,0,0,0,679,1269,2067,2348,2905,50,3601,4041,-0.529,5.557,9.893,-0.396,-0.233,1.401,1.393,-3.608,9.282,0.004,-0.008,0.014,sad
5.95,0,0,0,0,0,0,0,0,687,1315,2067,2397,2968,61,3621,4062,-0.486,6.577,10.139,-0.14,-0.55,0.998,1.52,-3.649,9.239,0.011,-0.004,0.012,sad
5.96,0,0,0,0,0,0,0,0,731,1371,2106,2383,2989,48,3620,4056,0.438,8.231,11.171,-0.153,-0.646,0.462,1.48,-3.661,9.268,0.019,0.002,0.015,sad
5.97,0,0,0,0,0,0,0,0,677,1467,2073,2329,2923,47,3455,3879,1.082,10.357,12.91,-0.766,-0.537,0.09,1.47,-3.666,9.246,0.036,-0.001,0.011,sad
5.98,0,0,0,0,0,0,0,0,723,1587,2144,2387,2996,47,3555,3949,0.369,11.576,12.969,-1.832,-0.668,-0.072,1.458,-3.725,9.299,0.069,0.02,0.004,sad
5.99,0,0,0,0,0,0,0,0,591,1599,2167,2389,3017,51,3487,3913,-0.17,8.739,6.067,-2.369,-0.57,-0.27,1.432,-3.673,9.294,0.134,0.041,-0.011,sad
6,0,0,0,0,0,0,0,0,600,1619,2016,2376,2967,31,3359,3802,-0.251,6.936,1.458,-1.669,-0.493,-0.572,1.374,-3.565,9.407,0.155,0.056,-0.011,sad
6.01,0,0,0,0,131,0,0,0,616,1627,2057,2383,2853,51,3179,3555,0.864,7.846,2.595,-0.781,-0.74,-0.657,1.446,-3.505,9.316,0.117,0.053,-0.001,sad
6.02,0,0,0,0,119,0,0,0,979,1710,2101,2503,2925,42,3235,3687,6.706,6.972,-0.843,0.542,0.18,0.052,1.554,-3.534,9.299,0.084,0.038,0.007,sad
6.03,0,0,0,0,296,0,0,0,1272,1880,2224,2675,3110,47,3417,3932,3.244,2.368,12.208,0.343,0.705,0.446,1.422,-3.445,9.278,0.072,0.015,-0.001,sad
6.04,0,0,0,0,310,0,0,0,1391,1877,2236,2701,3133,52,3347,3910,2.138,-2.061,9.323,0.443,0.506,0.867,1.468,-3.436,9.29,0.038,0.013,0.007,sad
6.05,0,0,0,0,240,0,0,34,1703,1967,2229,2706,3125,53,3223,3858,-1.721,0.972,9.266,1.08,0.061,1.035,1.468,-3.424,9.266,0.041,0.024,0.007,sad
6.06,0,0,0,0,275,0,0,944,1861,2007,2234,2782,3127,47,3087,3827,-5.037,1.475,11.887,1.109,-0.253,0.545,1.451,-3.469,9.337,0.033,0.035,0.016,sad
6.07,0,0,0,0,439,0,84,1607,1971,1939,2152,2722,2909,51,2581,3499,0.611,2.82,10.815,1.048,-0.662,0.015,1.465,-3.445,9.313,-0.015,0.043,0.018,sad
6.08,0,0,0,0,502,0,368,2133,2213,2121,2218,2903,2943,47,2156,3567,4.458,2.648,9.227,0.791,-0.684,-0.064,1.434,-3.524,9.316,-0.037,0.05,0.027,sad
6.09,0,0,0,0,645,0,852,2425,2341,2141,2224,2968,2876,56,1911,3496,3.687,2.638,9.273,0.606,-0.475,-0.336,1.448,-3.476,9.34,-0.036,0.062,0.032,sad
6.1,0,0,0,0,877,0,1183,2628,2439,2137,2239,3100,2615,45,1605,3251,3.34,2.72,9.172,0.577,-0.383,-0.161,1.501,-3.596,9.459,-0.053,0.082,0.035,sad
6.11,0,0,0,0,906,0,1507,2781,2584,2197,2242,3153,2315,51,1379,3063,2.14,3.426,11.281,0.617,0.322,-0.276,1.379,-3.433,9.278,-0.113,0.065,0.033,sad
6.12,0,265,0,0,921,0,1716,2898,2683,2197,2234,3212,1660,47,804,2612,2.952,3.045,9.143,0.517,0.558,-0.226,1.384,-3.534,9.275,-0.13,0.072,0.03,sad
6.13,0,719,0,0,1158,0,2002,2983,2595,1875,2103,2971,1113,43,239,1909,1.568,3.419,9.685,0.395,0.562,-0.137,1.437,-3.51,9.366,-0.132,0.1,0.049,sad
6.14,0,1168,0,0,1456,0,2198,3071,2605,1693,2098,3043,803,7,7,1699,2.648,3.232,9.294,0.263,0.573,-0.225,1.48,-3.613,9.21,-0.254,0.127,0.011,sad
6.15,0,1630,0,0,1701,0,2272,3171,2797,1774,2247,3294,635,41,3,1676,2.04,3.323,9.548,0.205,0.603,-0.268,1.683,-3.223,9.266,-0.243,0.129,0.045,sad
6.16,0,1821,0,0,1911,0,2374,3237,2899,1465,2416,3357,327,5,5,1611,1.736,3.275,9.61,0.144,0.564,-0.234,1.156,-3.706,9.301,-0.343,0.175,-0.063,sad
6.17,0,1963,0,0,2067,0,2409,3274,2943,1450,2259,3380,149,5,1,1381,1.97,3.282,9.574,0.153,0.577,-0.174,1.271,-3.783,9.189,-0.404,0.176,-0.095,sad
6.18,0,2085,0,0,2125,0,2471,3313,2934,1331,2142,3364,127,3,3,1361,1.571,3.407,9.515,0.091,0.435,-0.093,1.298,-3.68,9.165,-0.446,0.165,-0.105,sad
6.19,0,2210,0,0,2171,0,2541,3361,1589,2578,1540,2491,2540,1699,1598,2957,1.444,3.366,9.634,0.062,0.341,-0.031,1.616,-3.936,9.218,-0.515,0.267,-0.136,sad
6.2,0,2247,0,0,2283,0,2559,3371,1581,2571,1548,2459,2539,1700,1603,3091,1.539,3.237,9.407,0.035,0.192,-0.014,1.403,-4.216,9.177,-0.534,0.328,-0.146,sad
6.21,0,2331,19,0,2379,0,2662,3422,1579,2581,1548,2453,2525,1701,1605,3078,1.403,3.175,9.448,-0.007,0.103,0.005,1.19,-4.185,8.969,-0.569,0.307,-0.15,sad
6.22,0,2416,112,0,2510,0,2746,3463,1571,2582,1563,2454,2630,1702,1607,3093,1.377,3.139,9.443,0,0.051,0.025,1.41,-4.401,9.158,-0.595,0.363,-0.135,sad
6.23,0,2403,112,0,2559,0,2795,3471,1559,2585,1527,2447,2491,1705,1609,3089,1.453,3.074,9.383,0,0.031,0.032,1.233,-4.345,9.091,-0.689,0.419,-0.117,sad
6.24,0,2514,181,0,2655,0,2862,3511,1554,2585,1507,2446,2606,1705,1609,3087,1.525,3.086,9.385,0.028,0.026,0.022,1.281,-4.367,9.084,-0.788,0.426,-0.093,sad
6.25,0,2559,236,0,2715,0,2938,3549,1533,2588,1379,2446,2532,1710,1612,3089,1.511,3.06,9.325,0.024,0.011,0.019,1.085,-4.604,8.995,-0.981,0.434,-0.008,sad
6.26,0,2598,283,0,2737,0,2951,3537,1530,2592,1167,2455,2533,1709,1613,3091,1.501,3.086,9.359,0.054,0.018,-0.002,1.178,-4.745,9.017,-1.211,0.372,0.143,sad
6.27,0,2672,421,0,2805,0,2999,3555,1519,2591,2,2444,2531,1721,1618,3091,1.458,3.168,9.412,0.066,0.016,-0.022,0.639,-4.695,9.675,-1.334,0.222,0.291,sad
6.28,0,2755,567,0,2876,0,3083,3577,1509,2596,28,2391,2525,1715,1618,3180,1.47,3.16,9.44,0.039,-0.022,-0.001,1.448,-5.514,9.21,-1.405,0.211,0.644,sad
6.29,0,2831,686,0,2953,0,3133,3607,1485,2613,0,2427,2518,1721,1629,3083,1.583,2.947,9.27,0.061,-0.003,-0.001,1.381,-6.088,8.878,-1.467,0.392,1.019,sad
6.3,0,2879,849,0,3023,0,3169,3613,1471,2612,0,2423,2516,1741,1639,3087,1.607,3.029,9.254,0.096,0.002,-0.023,1.346,-6.316,8.509,-1.512,0.349,1.206,sad
6.31,0,2935,1010,0,3088,0,3214,3623,1495,2581,0,2438,2523,1727,1574,3091,1.607,3.168,9.436,0.079,-0.011,-0.017,0.723,-7.494,8.475,-1.46,0.474,1.542,sad
6.32,0,2978,1100,0,3130,0,3229,3620,1501,2599,0,2441,2527,1719,1622,3090,1.504,3.187,9.44,0.058,0.002,0.001,0.567,-6.922,7.74,-1.274,0.721,1.932,sad
6.33,0,2859,1039,0,2967,0,3051,3410,1510,2596,0,2444,2535,1719,1615,3089,1.482,3,9.299,0.072,0.009,-0.006,0.546,-6.522,8.629,-0.956,0.787,2.153,sad
6.34,0,3045,1299,0,3211,0,3270,3627,1553,2557,0,2475,2602,1689,1583,3147,1.516,3.141,9.337,0.087,-0.001,-0.012,2.856,-4.434,11.253,0.223,0.715,2.13,sad
6.35,0,3050,1383,0,3200,0,3255,3583,1587,2551,0,2485,2577,1669,1575,3103,1.561,3.203,9.316,0.086,0,-0.01,6.797,-3.661,11.732,1.464,0.102,0.002,sad
6.36,0,3098,1506,0,3245,0,3286,3600,1589,2553,0,2483,2579,1671,1637,3102,1.559,3.146,9.369,0.087,0.006,-0.014,3.929,-2.342,8.892,1.801,0.018,-0.516,sad
6.37,0,3128,1587,0,3274,0,3298,3600,1594,2549,0,2536,2577,1668,1567,3102,1.554,3.132,9.27,0.088,0.003,-0.017,-0.417,-0.292,6.06,1.55,-0.473,-0.492,sad
6.38,0,3134,1653,0,3274,0,3284,3581,1593,2511,0,2488,2580,1669,1571,3103,1.614,3.112,9.323,0.104,-0.004,-0.021,0.713,-1.784,9.737,1.548,-0.64,-0.302,sad
6.39,0,3178,1744,0,3325,0,3305,3574,1593,2547,0,2487,2579,1661,1571,3103,1.528,3.297,9.371,0.096,-0.003,-0.013,0.285,-1.721,9.756,1.601,-0.745,-0.4,sad
6.4,0,3221,1850,0,3354,0,3328,3539,1565,2555,0,2489,2579,1671,1573,3108,1.604,3.366,9.407,0.092,-0.009,-0.007,0.462,-2.545,10.127,1.685,-0.89,-0.574,sad
6.41,0,3199,1861,0,3344,0,3302,3540,1593,2553,0,2490,2581,1671,1571,3109,1.652,3.239,9.345,0.071,0.001,-0.007,-0.017,-2.552,10.386,1.746,-1.005,-0.658,sad
6.42,0,3250,1911,0,3387,0,3328,3546,1593,2551,0,2486,2578,1681,1568,3103,1.659,3.201,9.306,0.076,0.008,-0.013,0.261,-2.777,10.74,1.729,-1.063,-0.678,sad
6.43,0,3275,1970,0,3391,0,3344,3536,1593,2567,0,2489,2577,1670,1563,3101,1.623,3.223,9.311,0.08,-0.012,-0.025,1.142,-3.632,12.287,1.803,-1.049,-0.925,sad
6.44,0,3271,1978,0,3395,0,3319,3504,1593,2491,0,2507,2579,1669,1566,3103,1.528,3.256,9.328,0.093,0.012,-0.022,0.551,-3.57,11.542,1.807,-0.736,-1.203,sad
6.45,0,3311,2017,0,3423,0,3335,3491,1592,2551,0,2486,2578,1670,1571,3106,1.666,3.211,9.321,0.092,-0.001,-0.023,0.122,-3.812,11.296,1.734,-0.563,-1.218,sad
6.46,0,3296,1995,0,3462,0,3295,3443,1591,2551,0,2439,2588,1669,1571,3102,1.635,3.247,9.309,0.091,0.001,-0.021,-0.711,-3.747,10.76,1.483,-0.222,-1.038,sad
6.47,0,3341,2032,0,3440,0,3317,3418,1587,2582,0,2484,2575,1670,1573,3101,1.597,3.244,9.309,0.106,-0.004,-0.024,-0.666,-4.709,11.188,1.053,-0.493,-0.775,sad
6.48,0,3373,2070,0,3469,0,3334,3346,1590,2551,0,2483,2578,1671,1571,3081,1.688,3.266,9.278,0.11,-0.005,-0.028,0.091,-5.246,10.93,0.937,-0.622,-0.727,sad
6.49,0,3397,2115,6,3479,0,3335,3327,1499,2551,0,2485,2571,1671,1571,3107,1.686,3.321,9.297,0.105,0.001,-0.032,0.512,-5.89,10.199,0.698,-0.562,-0.653,sad
6.5,0,3344,2097,0,3443,0,3277,3261,1591,2551,0,2484,2575,1673,1573,3102,1.683,3.309,9.215,0.11,-0.003,-0.035,0.464,-6.938,10.906,0.744,-0.168,-0.514,sad
6.51,0,3440,2214,0,3503,0,3321,3248,1591,2535,0,2483,2577,1669,1571,3101,1.753,3.23,9.153,0.147,-0.014,-0.043,0.014,-7.142,10.652,0.918,-0.034,-0.449,sad
6.52,6,3454,2307,0,3525,0,3310,3271,1591,2551,0,2485,2577,1671,1572,3103,1.709,3.333,9.182,0.153,-0.002,-0.049,-1.025,-6.246,8.207,0.905,-0.273,-0.321,sad
6.53,43,3474,2373,64,3521,0,3286,3248,1547,2553,0,2483,2578,1671,1573,3089,1.618,3.345,9.237,0.163,-0.014,-0.057,0.005,-6.043,6.519,0.666,-0.122,-0.164,sad
6.54,70,3502,2499,198,3537,0,3263,3231,1589,2551,0,2483,2577,1670,1572,3098,1.702,3.452,9.21,0.167,-0.007,-0.059,0.062,-6.112,5.988,0.493,-0.031,-0.071,sad
6.55,85,3531,2604,363,3542,0,3249,3215,1578,2552,0,2485,2574,1671,1567,3101,1.686,3.455,9.215,0.169,-0.008,-0.071,0.079,-6.258,6.79,0.234,-0.214,0.073,sad
6.56,277,3565,2671,489,3545,0,3210,3177,1590,2551,53,2484,2575,1671,1575,3101,1.731,3.359,9.201,0.179,0.008,-0.114,0.182,-5.65,6.184,0.037,-0.151,0.112,sad
6.57,385,3578,2740,688,3553,0,3191,3157,1589,2550,0,2583,2584,1671,1571,3117,1.537,3.582,9.349,0.206,0.022,-0.132,0.275,-5.509,6.328,-0.088,0.013,0.116,sad
6.58,495,3605,2819,848,3567,0,3184,3147,1589,2547,0,2484,2573,1671,1567,3101,1.523,3.74,9.266,0.151,-0.006,-0.076,0.101,-5.32,6.979,-0.301,0.253,0.175,sad
6.59,616,3607,2839,859,3559,0,3166,3124,1590,2551,0,2486,2577,1663,1567,3102,1.573,3.529,9.172,0.123,-0.016,-0.083,0.287,-5.121,7.369,-0.533,0.229,0.291,sad
6.6,858,3616,2911,920,3574,0,3178,3138,1617,2551,71,2485,2577,1673,1573,2979,1.709,3.572,9.141,0.14,-0.037,-0.082,0.481,-5.203,7.903,-0.59,0.24,0.327,sad
6.61,997,3632,2960,1052,3603,0,3154,3102,1583,2554,63,2478,2571,1673,1571,3099,1.772,3.618,9.048,0.151,-0.013,-0.052,9.795,3.072,15.493,-0.205,2.029,-0.219,sad
6.62,1083,3643,2999,1250,3601,0,3106,3041,1545,2571,0,2461,2548,0,0,871,1.805,3.663,9.232,0.136,-0.001,-0.055,-2.32,8.835,11.954,-0.478,0.364,-0.422,sad
6.63,1190,3650,3043,1362,3581,0,3002,2947,0,0,0,0,0,0,0,1076,1.69,3.651,9.148,0.14,0.006,-0.053,-5.811,4.022,-1.47,-1.519,0.652,0.301,sad
6.64,1250,3696,3121,1535,3600,0,2921,2879,1565,2551,0,2485,2578,1663,1619,3179,1.721,3.776,9.12,0.118,0.007,-0.034,-1.156,-7.901,19.613,-0.833,0.007,-0.012,sad
6.65,1291,3719,3152,1623,3568,0,2831,2751,1669,2552,0,2427,2557,1673,1571,3101,1.817,3.757,9.076,0.1,0.026,-0.029,0.129,-1.166,9.462,-0.669,-0.924,-0.042,sad
6.66,1274,3735,3202,1755,3542,0,2716,2594,0,0,30,0,0,0,307,2277,1.714,3.766,9.129,0.098,0.005,-0.019,2.444,-3.795,11.847,-0.602,-1.046,-0.028,sad
6.67,1234,3750,3239,1839,3502,0,2581,2397,1581,2549,0,2484,2603,1673,1575,3101,1.736,3.795,9.067,0.103,0.01,-0.005,3.876,-2.286,8.416,-0.396,-0.333,-0.009,sad
6.68,1194,3753,3248,1863,3438,0,2352,2066,1528,2579,0,2459,2547,1694,1595,3021,1.671,3.685,9.124,0.121,0.007,-0.011,2.444,-2.404,9.345,-0.44,-0.151,0.022,sad
6.69,1218,3772,3296,1890,3399,0,2139,1634,1555,2581,0,2463,2549,1699,1592,3095,1.7,3.771,9.141,0.138,0.027,-0.028,0.893,-2.581,9.845,-0.46,-0.276,-0.032,sad
6.7,1286,3785,3318,1898,3349,0,1882,1088,1574,2553,0,2476,2568,1676,1567,3096,1.681,3.718,9.115,0.131,0.032,-0.042,2.356,-2.825,9.246,-0.562,-0.095,0.031,sad
6.71,1195,3791,3343,1939,3287,0,1705,464,1583,2555,0,2477,2567,1677,1579,3101,1.678,3.84,9.088,0.161,0.051,-0.036,1.429,-3.352,9.855,-0.344,-0.016,0.07,sad
6.72,1199,3790,3350,1975,3214,0,1415,0,1583,2555,0,2479,2568,1677,1576,3117,1.664,3.898,9.136,0.177,0.041,-0.034,1.98,-2.986,9.515,-0.171,0.151,0.133,sad
6.73,1200,3805,3376,1969,3109,0,1065,0,1581,2558,0,2462,2568,1681,1581,3099,1.633,3.898,9.129,0.184,0.036,-0.027,2.143,-3.12,9.187,-0.042,0.208,0.111,sad
6.74,1267,3813,3397,1939,2979,0,715,0,1583,2565,0,2479,2570,1659,1581,3101,1.599,3.962,9.139,0.2,0.02,-0.026,1.846,-3.057,9.546,-0.081,0.219,0.085,sad
6.75,1278,3792,3399,1918,2746,0,383,0,1583,2557,0,2479,2569,1683,1587,3103,1.686,4.017,9.084,0.209,0.012,-0.047,1.69,-2.99,9.395,-0.07,0.224,0.08,sad
6.76,1287,3814,3414,1851,2559,0,122,0,1585,2554,0,2475,2568,1677,1577,3096,1.726,3.929,9.148,0.206,-0.022,-0.118,1.757,-2.974,9.452,-0.048,0.193,0.06,sad
6.77,1252,3805,3397,1752,1840,0,110,0,1587,2555,0,2479,2568,1679,1579,3098,1.482,4.293,9.206,0.362,-0.026,-0.059,1.772,-2.911,9.426,-0.049,0.187,0.04,sad
6.78,1074,3601,3230,1579,1518,0,0,0,1587,2553,0,2473,2553,1679,1579,3031,1.542,3.998,9.009,0.409,-0.001,-0.041,1.836,-2.969,9.507,-0.028,0.159,0.05,sad
6.79,1321,3814,3367,1647,1693,0,0,0,1595,2552,0,2472,2572,1679,1575,3099,1.645,4.209,8.921,0.43,-0.008,-0.018,1.453,-2.983,9.555,-0.025,0.135,0.019,sad
6.8,1391,3797,3327,1513,1374,0,0,0,1597,2551,2,2503,2572,1673,1574,3100,2.368,4.005,9.086,0.439,-0.017,0.013,1.614,-3.067,9.541,-0.017,0.084,0.004,sad
6.81,1438,3777,3305,1435,1339,0,0,0,1597,2557,0,2479,2517,1672,1575,3100,1.736,4.221,8.863,0.483,0.028,0.018,1.59,-2.962,9.471,-0.009,0.059,-0.004,sad
6.82,1386,3776,3323,1345,1195,0,0,0,1599,2551,5,2410,2571,1677,1575,3107,1.846,4.341,8.701,0.551,0.042,0.038,1.714,-2.974,9.39,-0.014,0.076,0.01,sad
6.83,1431,3732,3297,1239,994,0,0,0,1517,2551,0,2484,2575,1673,1577,3100,1.975,4.489,8.801,0.603,0.072,0.043,1.709,-3.029,9.433,-0.015,0.116,0.013,sad
6.84,1615,3664,3234,1174,722,0,0,0,1605,2550,10,2479,2571,1673,1576,3101,2.516,4.432,8.99,0.677,0.087,0.047,1.638,-3.026,9.445,-0.01,0.119,0.017,sad
6.85,1741,3475,3137,1072,710,0,0,0,1607,2549,12,2477,2573,1761,1575,3095,1.841,4.544,8.792,0.793,0.179,0.057,1.662,-2.959,9.392,-0.002,0.1,0.01,sad
6.86,1730,3126,2905,839,495,0,0,0,1609,2552,0,2483,2572,1673,1575,3103,2.03,4.391,8.768,1.005,0.176,0.022,1.671,-3.089,9.493,-0.009,0.122,0.021,sad
6.87,1694,2619,2586,560,460,0,0,0,1607,2551,17,2484,2568,1674,1576,3101,1.705,4.92,8.866,1.24,0.222,0.019,1.695,-2.976,9.347,-0.012,0.142,0.023,sad
6.88,1616,2146,2117,412,256,0,0,0,1609,2541,23,2483,2571,1673,1578,3100,1.81,5.349,8.93,1.406,0.292,-0.102,1.568,-2.993,9.488,0.009,0.149,0.018,sad
6.89,1554,1482,889,165,80,0,0,0,1619,2581,30,2521,2633,1783,1625,3125,1.604,5.476,8.571,1.593,0.227,-0.254,1.578,-2.895,9.4,-0.016,0.16,0.043,sad
6.9,1520,1165,6,80,0,0,0,0,1619,2584,0,2524,2645,1831,1688,3125,1.618,6.065,7.937,1.695,0.178,-0.449,1.405,-2.942,9.555,-0.027,0.15,0.063,sad
6.91,1475,785,0,0,0,0,0,0,1609,2551,15,2484,2573,1675,1655,3104,1.599,6.596,7.669,1.627,0.236,-0.613,1.439,-3.093,9.531,-0.032,0.159,0.066,sad
6.92,1428,471,0,0,0,0,0,0,9,40,12,615,1824,1,2989,3477,1.223,7.108,7.673,1.576,0.331,-0.707,1.535,-2.978,9.443,-0.012,0.084,0.047,sad
6.93,1429,273,0,0,0,0,0,0,0,5,12,653,1833,0,3036,3554,1.288,7.099,7.4,1.529,0.32,-0.819,1.542,-2.969,9.498,-0.019,0.084,0.061,sad
6.94,1371,225,0,0,0,0,0,0,0,0,0,683,1820,0,3080,3612,1.338,7.168,7.228,1.448,0.37,-0.897,1.48,-3.136,9.574,-0.011,0.082,0.047,sad
6.95,1158,84,0,0,0,0,0,0,0,0,0,711,1765,0,3111,3646,1.76,6.941,8.085,1.236,0.482,-1.016,1.482,-3.048,9.558,0.006,0.088,0.039,sad
6.96,847,0,0,0,0,0,0,0,0,0,0,739,1719,0,3195,3835,1.245,6.328,8.277,1.067,0.617,-1.093,1.477,-2.945,9.373,0.004,0.092,0.044,sad
6.97,623,5,0,0,0,0,0,0,0,0,2,885,1769,0,3415,4095,1.463,6.452,8.358,0.843,0.694,-1.119,1.429,-2.988,9.409,-0.003,0.087,0.041,sad
6.98,336,0,0,0,0,0,0,0,1,0,0,851,1752,0,3475,4095,1.252,6.105,9.115,0.454,0.685,-1.111,1.427,-3.005,9.388,-0.005,0.071,0.044,sad
6.99,139,0,0,0,0,0,0,0,0,0,2,866,1707,0,3471,4095,1.439,5.375,8.171,0.105,0.571,-1.084,1.415,-3.072,9.455,-0.001,0.062,0.046,sad
7,0,0,0,0,0,0,0,0,0,0,0,841,1708,0,3548,4095,1.762,4.475,8.035,-0.127,0.398,-1.015,1.403,-3.033,9.459,-0.001,0.06,0.052,sad
7.01,0,0,0,0,0,0,0,0,0,0,0,927,1718,0,3432,4095,2.16,4.041,9.16,-0.405,0.239,-0.892,1.47,-3,9.395,-0.006,0.054,0.044,sad
7.02,0,0,0,0,0,0,0,0,4,27,0,935,1689,0,3358,4015,3.1,3.412,9.641,-0.71,0.094,-0.679,1.413,-3.017,9.402,-0.011,0.049,0.042,sad
7.03,0,0,0,0,0,0,0,0,12,0,0,1033,1751,0,3503,4095,3.144,3.634,8.593,-0.903,-0.005,-0.307,1.575,-3.086,9.419,-0.012,0.067,0.045,sad
7.04,0,0,0,0,0,0,0,0,0,0,143,1143,1755,0,3541,4095,2.289,2.847,8.882,-1.082,-0.245,0.009,1.396,-3,9.522,-0.011,0.062,0.049,sad
7.05,0,0,0,0,0,0,0,0,30,0,0,1132,1724,0,3332,3925,2.042,3.438,9.175,-1.192,-0.365,0.238,1.386,-3.132,9.476,-0.009,0.06,0.047,sad
7.06,0,0,0,0,0,0,0,0,7,23,33,1129,1821,0,3353,3964,1.628,3.44,9.402,-1.374,-0.399,0.382,1.403,-3.103,9.483,-0.013,0.059,0.049,sad
7.07,0,0,0,0,0,0,0,0,2,8,30,1252,1814,0,3416,4017,0.984,3.45,9.28,-1.474,-0.417,0.463,1.36,-3.06,9.457,-0.009,0.054,0.047,sad
7.08,0,0,0,0,0,0,0,0,6,0,931,1259,1869,0,3414,4007,0.745,3.563,9.546,-1.544,-0.452,0.502,1.36,-3.079,9.481,-0.007,0.051,0.042,sad
7.09,0,0,0,0,0,0,0,0,12,3,970,1337,1989,0,3621,4095,0.9,3.759,9.67,-1.621,-0.475,0.533,1.398,-3.074,9.498,-0.01,0.056,0.047,sad
7.1,0,0,0,0,0,0,0,0,12,0,954,1363,1963,1,3416,4003,0.996,3.962,10.142,-1.709,-0.464,0.555,1.343,-3.019,9.402,-0.016,0.064,0.051,sad
7.11,0,0,0,0,0,0,0,0,25,1,1005,1380,2013,1,3477,4063,1.008,4.075,10.42,-1.818,-0.442,0.584,1.391,-3.108,9.541,-0.01,0.061,0.053,sad
7.12,0,0,0,0,0,0,0,0,22,0,1036,1421,2055,0,3517,4095,0.912,4.034,10.376,-1.896,-0.434,0.605,1.355,-3.165,9.503,-0.004,0.062,0.048,sad
7.13,0,0,0,0,0,0,0,0,13,23,1077,1405,2059,0,3480,4062,0.855,3.898,10.293,-1.95,-0.443,0.602,1.374,-3.048,9.462,-0.006,0.05,0.04,sad
7.14,0,0,0,0,0,0,0,0,47,1,1128,1413,2056,0,3433,3999,0.972,3.886,10.108,-1.979,-0.448,0.599,1.369,-3.079,9.448,-0.009,0.041,0.038,sad
7.15,0,0,0,0,0,0,0,0,22,11,1179,1336,2065,1,3419,3963,1.142,3.95,10.137,-1.96,-0.427,0.601,1.31,-3.06,9.491,-0.007,0.044,0.041,sad
7.16,0,0,0,0,0,0,0,0,19,11,1236,1416,2044,0,3385,3915,1.25,4.12,10.448,-1.962,-0.464,0.607,1.279,-3.033,9.436,-0.007,0.05,0.046,sad
7.17,0,0,0,0,0,0,0,0,17,18,1289,1451,2095,2,3448,3995,1.331,4.326,10.824,-1.981,-0.525,0.611,1.281,-3.16,9.5,-0.009,0.051,0.043,sad
7.18,0,0,0,0,0,0,0,0,12,99,1353,1438,2149,5,3547,4095,1.384,4.384,10.57,-2.002,-0.535,0.592,1.353,-3.062,9.5,-0.014,0.042,0.05,sad
7.19,0,0,0,0,0,0,0,0,27,260,1333,1439,2141,9,3487,4037,1.252,3.943,9.491,-1.957,-0.465,0.542,1.336,-3.11,9.45,-0.009,0.031,0.041,sad
7.2,0,0,0,0,0,0,0,0,21,274,1307,1354,2060,9,3277,3801,0.929,3.579,8.495,-1.764,-0.353,0.43,1.362,-3.036,9.438,-0.003,0.037,0.045,sad
7.21,0,0,0,0,0,0,0,0,41,371,1402,1367,2130,13,3321,3914,0.74,3.565,8.27,-1.459,-0.296,0.286,1.31,-3.019,9.333,-0.036,0.016,0.054,sad
7.22,0,0,0,0,0,0,0,0,28,415,1563,1379,2207,21,3511,4069,0.812,4.331,9.074,-1.193,-0.372,0.187,1.334,-3.239,9.529,-0.034,0.027,0.056,sad
7.23,0,0,0,0,0,0,0,0,31,468,1650,1307,2216,11,3487,4012,1.166,5.198,10.123,-1.016,-0.495,0.151,1.29,-3.129,9.455,-0.021,0.02,0.043,sad
7.24,0,0,0,0,0,0,0,0,37,473,1650,1435,2207,11,3447,3963,1.314,6.112,10.695,-0.925,-0.643,0.167,1.279,-3.115,9.512,-0.017,0.017,0.039,sad
7.25,0,0,0,0,0,0,0,0,40,559,1584,1460,2247,13,3470,3989,1.259,6.503,10.568,-0.875,-0.752,0.206,1.305,-3.079,9.421,-0.019,0.015,0.037,sad
7.26,0,0,0,0,0,0,0,0,53,573,1625,1467,2293,18,3534,4053,1.128,7.039,10.379,-0.827,-0.857,0.263,1.295,-3.024,9.402,-0.025,0.018,0.044,sad
7.27,0,0,0,0,0,0,0,0,72,520,1676,1459,2331,21,3572,4095,0.965,7.776,11.018,-0.791,-1.064,0.309,1.343,-3.153,9.426,-0.032,0.012,0.051,sad
7.28,0,0,0,0,0,0,0,0,71,583,1707,1429,2373,19,3607,4095,0.776,9.335,12.364,-0.958,-1.498,0.462,1.293,-3.165,9.44,-0.035,0.011,0.049,sad
7.29,0,0,0,0,0,0,0,0,51,519,1548,1327,2136,23,3150,3605,1.252,9.424,10.597,-1.315,-1.638,0.642,1.35,-3.158,9.39,-0.027,0.014,0.043,sad
7.3,0,0,0,0,0,0,0,0,51,519,1548,1327,2136,23,3150,3605,0.974,8.289,7.367,-1.412,-1.321,0.712,1.35,-3.158,9.39,-0.027,0.014,0.043,sad
7.31,0,0,0,0,0,0,0,0,63,571,1753,1327,2282,0,3287,3703,0.182,7.707,5.418,-1.13,-1.091,0.764,1.365,-3.146,9.471,-0.02,0.002,0.036,sad
7.32,0,0,0,0,0,0,0,0,85,747,1786,1379,2349,20,3367,3781,-0.244,8.054,4.887,-0.836,-0.916,0.738,1.372,-3.203,9.483,-0.019,0.004,0.032,sad
7.33,0,0,0,0,0,0,0,0,123,789,1891,1471,2515,18,3628,4095,-0.065,8.509,4.671,-0.627,-0.693,0.611,1.3,-3.038,9.402,-0.028,-0.008,0.039,sad
7.34,0,0,0,0,0,0,0,0,99,763,1888,1401,2484,25,3494,3939,1.214,7.07,1.664,0.275,-0.404,0.593,1.283,-3.108,9.424,-0.037,-0.01,0.044,sad
7.35,0,0,0,0,0,0,0,0,91,739,1824,1440,2393,25,3303,3672,0.953,8.066,0.156,0.726,0.329,0.438,1.358,-3.117,9.488,-0.039,-0.014,0.05,sad
7.36,0,0,0,0,47,0,0,0,183,789,1876,1495,2495,35,3399,3795,2.059,4.712,8.207,0.617,0.763,0.302,1.188,-3.134,9.488,-0.047,-0.003,0.049,sad
7.37,0,0,0,0,135,0,0,0,122,813,1916,1419,2567,29,3431,3543,4.073,2.014,13.846,0.349,0.572,0.591,1.346,-3.247,9.402,-0.029,0.006,0.047,sad
7.38,0,0,0,0,253,0,0,0,1615,2589,1405,2484,2572,1671,1573,3101,1.544,-2.351,7.027,0.85,0.142,0.676,1.393,-3.074,9.321,-0.058,0.068,0.064,sad
7.39,0,0,0,0,167,0,62,75,123,1083,2070,1845,2751,41,3561,4071,1.087,2.629,10.786,1.089,-0.041,0.37,1.324,-3.156,9.412,-0.097,0.015,0.105,sad
7.4,0,0,0,0,533,0,368,1012,91,1151,2218,2005,2783,31,3533,4071,0.199,1.116,10.118,0.995,-0.236,0.128,1.343,-3.285,9.359,-0.098,0.019,0.097,sad
7.41,0,0,0,0,675,0,819,1834,199,1215,2065,2171,2861,43,3432,4079,2.816,2.595,9.416,1.098,-0.216,-0.257,1.458,-3.299,9.38,-0.092,0.025,0.074,sad
7.42,0,30,0,0,608,0,1272,2318,398,1289,2157,2333,2815,51,3192,4031,3.311,2.679,9.05,1.035,-0.348,-0.292,1.353,-3.232,9.428,-0.117,0.035,0.081,sad
7.43,0,34,0,0,784,0,1702,2615,457,1312,2178,2351,2761,51,2909,3961,5.071,5.351,12.428,0.732,0.378,-0.534,1.319,-3.349,9.433,-0.12,0.041,0.077,sad
7.44,0,522,0,0,1193,0,2013,2814,813,1367,2162,2479,2483,47,2083,3860,3.476,2.871,8.914,0.385,0.882,-0.463,1.334,-3.304,9.45,-0.139,0.037,0.054,sad
7.45,0,706,0,0,1318,0,2195,2933,1225,1653,2208,2693,1918,51,1439,3672,2.318,2.938,9.1,0.383,0.812,-0.394,1.283,-3.381,9.431,-0.169,0.034,0.053,sad
7.46,0,1082,0,0,1535,0,2258,3056,1431,1700,2226,2729,1643,83,1507,3427,2.435,3.328,9.39,0.314,0.85,-0.322,1.286,-3.4,9.433,-0.179,0.025,0.049,sad
7.47,67,1360,0,0,1855,0,2354,3166,1799,1890,2231,2927,1241,47,638,2845,2.404,3.266,9.182,0.245,0.84,-0.322,1.422,-3.582,9.419,-0.217,-0.014,0.021,sad
7.48,127,1681,0,0,1964,0,2446,3257,2255,2041,2234,3016,1123,38,155,2004,2.035,3.402,9.467,0.22,0.755,-0.322,1.302,-3.44,9.34,-0.234,0.013,0.023,sad
7.49,223,1875,0,0,2125,0,2512,3330,2298,2037,2203,2997,837,9,23,1681,2.1,3.476,9.409,0.22,0.801,-0.335,1.709,-3.182,9.541,-0.219,0.029,0.019,sad
7.5,260,2014,0,0,2133,0,2475,3334,2543,1879,2242,3111,710,0,39,1639,1.554,3.589,9.855,0.217,0.789,-0.286,1.3,-3.689,9.33,-0.425,0.12,-0.068,sad
7.51,439,2192,0,0,2300,0,2588,3409,2719,1511,2244,3163,308,3,5,1478,1.183,3.479,9.953,0.137,0.513,-0.175,1.132,-3.706,9.301,-0.456,0.144,-0.102,sad
7.52,527,2305,0,0,2371,0,2649,3436,2793,1369,2247,3176,164,4,6,1235,1.628,3.457,9.462,0.102,0.242,-0.066,1.176,-3.812,9.275,-0.499,0.153,-0.12,sad
7.53,539,2394,0,0,2384,0,2502,3434,2895,1279,2265,3239,35,3,0,1157,1.621,3.369,9.27,0.132,0.178,-0.056,1.228,-3.96,9.179,-0.584,0.164,-0.118,sad
7.54,711,2540,16,0,2514,0,2710,3447,2952,1321,2277,3261,0,0,0,978,1.53,3.352,9.239,0.16,0.109,-0.073,1.472,-3.972,9.23,-0.663,0.23,-0.135,sad
7.55,762,2669,113,0,2546,0,2761,3469,2987,1335,2275,3273,0,0,5,951,1.439,3.433,9.258,0.149,0.074,-0.063,1.288,-4.099,8.964,-0.734,0.267,-0.129,sad
7.56,795,2769,334,0,2603,0,2806,3471,3041,909,2265,3261,0,0,0,857,1.343,3.247,9.278,0.187,0.03,-0.085,1.997,-4.525,9.433,-0.84,0.354,-0.141,sad
7.57,894,2821,709,0,2668,0,2853,3431,1567,2577,1497,2461,2544,1695,1595,3090,1.417,3.517,9.342,0.214,-0.016,-0.08,1.537,-4.254,9.28,-1.06,0.529,-0.109,sad
7.58,937,2947,1033,0,2711,0,2896,3504,1562,2575,1471,2459,2543,1703,1589,3107,1.341,3.675,9.419,0.18,-0.037,-0.052,1.53,-4.525,9.273,-1.209,0.633,-0.064,sad
7.59,980,3014,1362,0,2765,0,2958,3530,1469,2543,954,2458,2543,1693,1597,3091,1.434,3.639,9.309,0.115,-0.03,-0.021,1.329,-4.523,9.249,-1.593,0.741,0.171,sad
7.6,1097,3066,1583,111,2839,0,3009,3555,1489,2575,0,2459,2543,1693,1595,3096,1.46,3.51,9.237,0.103,-0.04,-0.017,1.425,-5.37,10.072,-1.999,0.552,0.705,sad
7.61,1072,3139,1749,160,2955,0,3071,3583,1543,2577,0,2416,2543,1691,1686,3092,1.566,3.519,9.23,0.094,-0.052,-0.012,1.544,-5.976,10.913,-2.121,0.441,1.087,sad
7.62,1136,3184,1926,299,3019,0,3132,3583,1549,2577,58,2462,2548,1693,1609,3096,1.568,3.548,9.273,0.086,-0.039,-0.006,0.96,-6.546,9.333,-2.468,0.39,1.517,sad
7.63,1184,3216,2015,365,3071,0,3169,3609,1551,2577,0,2461,2549,1692,1639,3123,1.523,3.579,9.242,0.071,-0.01,-0.007,0.567,-7.451,8.21,-2.067,0.411,1.922,sad
7.64,1180,3231,2103,444,3101,0,3120,3543,1555,2675,0,2463,2533,1691,1594,3091,1.614,3.515,9.139,0.07,-0.005,-0.007,-0.134,-6.383,9.579,-1.497,0.385,2.183,sad
7.65,1219,3287,2223,592,3197,0,3213,3583,1577,2555,0,2503,2571,1676,1575,3099,1.578,3.546,9.22,0.089,-0.004,-0.018,1.69,-2.576,10.93,0.184,0.422,2.488,sad
7.66,1252,3307,2284,709,3216,0,3208,3599,1481,2659,0,2479,2573,1671,1571,3101,1.597,3.603,9.227,0.08,-0.002,-0.016,3.625,-0.625,10.329,1.091,0.003,1.488,sad
7.67,1310,3350,2351,806,3265,0,3215,3583,1587,2552,0,2480,2572,1691,1574,3101,1.549,3.651,9.249,0.076,-0.002,-0.008,3.754,-0.826,8.1,1.211,-0.084,1.1,sad
7.68,1328,3337,2422,794,3200,0,3182,3524,1588,2541,0,2484,2443,1673,1581,3101,1.544,3.594,9.127,0.082,0.002,-0.017,2.931,-1.556,9.369,1.463,-0.541,0.329,sad
7.69,1359,3412,2506,948,3312,0,3218,3567,1623,2589,0,2485,2469,1670,1568,3102,1.547,3.594,9.177,0.089,0.008,-0.017,1.152,-1.211,8.763,1.779,-0.899,-0.158,sad
7.7,1390,3449,2590,991,3341,0,3219,3569,1591,2552,0,2485,2577,1671,1571,3101,1.539,3.646,9.194,0.08,0.006,-0.018,0.338,-1.53,9.203,1.862,-1.028,-0.21,sad
7.71,1421,3473,2678,1079,3362,0,3237,3570,1561,2551,0,2485,2575,1669,1573,3093,1.573,3.666,9.127,0.074,0.011,-0.015,-0.069,-2.179,10.353,2.099,-1.185,-0.249,sad
7.72,1455,3487,2722,1117,3358,0,3219,3559,1593,2549,35,2486,2579,1663,1566,3107,1.551,3.663,9.225,0.061,0.01,-0.013,-0.048,-2.665,10.776,2.211,-1.289,-0.395,sad
7.73,1486,3508,2768,1207,3377,0,3233,3563,1591,2585,0,2485,2578,1671,1567,3103,1.578,3.63,9.175,0.07,0.015,-0.013,0.065,-2.928,11.104,2.215,-1.367,-0.534,sad
7.74,1525,3531,2822,1259,3406,0,3245,3561,1678,2547,0,2486,2579,1663,1572,3103,1.599,3.622,9.189,0.069,0.019,-0.017,0.024,-3.165,11.432,2.241,-1.24,-0.769,sad
7.75,1535,3543,2849,1323,3408,0,3221,3559,1587,2552,0,2480,2572,1674,1573,3101,1.583,3.651,9.057,0.084,0.01,-0.015,-0.783,-3.17,11.198,2.052,-0.9,-0.764,sad
7.76,1584,3564,2907,1389,3424,0,3231,3537,1587,2553,0,2483,2573,1673,1573,3103,1.583,3.57,9.153,0.107,0.001,-0.026,-0.797,-3.354,10.906,1.792,-0.983,-0.739,sad
7.77,1616,3583,2940,1466,3440,0,3210,3531,1560,2554,0,2479,2511,1675,1573,3101,1.532,3.656,9.163,0.124,-0.008,-0.025,0.711,-5.16,11.655,1.296,-1.165,-0.812,sad
7.78,1643,3604,2990,1575,3453,0,3216,3508,1575,2553,0,2483,2573,1673,1576,3107,1.547,3.627,9.055,0.122,-0.042,-0.033,1.525,-7.693,11.746,0.911,-1.259,-1.066,sad
7.79,1671,3623,3024,1632,3459,0,3186,3466,1599,2552,0,2483,2575,1673,1575,3101,1.611,3.728,9.177,0.118,-0.05,-0.025,2.48,-9.831,11.238,0.832,-1.2,-1.164,sad
7.8,1692,3632,3085,1678,3462,0,3174,3406,1589,2548,0,2486,2575,1719,1572,3101,1.626,3.73,9.048,0.13,-0.045,-0.021,-0.429,-11.89,8.736,0.897,-1.392,-1.261,sad
7.81,1750,3655,3115,1727,3487,0,3165,3349,1592,2551,0,2485,2577,1671,1571,3103,1.662,3.749,9.17,0.117,-0.033,-0.024,-2.452,-11.569,4.262,0.493,-1.675,-1.332,sad
7.82,1803,3665,3159,1739,3487,0,3130,3266,1591,2551,0,2486,2577,1671,1580,3101,1.688,3.836,9.079,0.122,-0.033,-0.022,-2.145,-12.651,2.765,0.169,-1.33,-1.4,sad
7.83,1858,3678,3214,1831,3504,0,3103,3150,1593,2551,0,2485,2579,1672,1575,3107,1.69,3.821,9.091,0.107,-0.017,-0.011,-1.856,-9.361,3.563,-0.245,-0.057,-1.076,sad
7.84,1904,3696,3243,1927,3504,0,3055,3059,1587,2553,0,2489,2573,1673,1575,3103,1.69,3.804,9.136,0.096,-0.014,-0.017,4.25,-3.685,15.658,-0.346,1.413,-0.812,sad
7.85,1965,3707,3277,1971,3503,0,2979,2917,1515,2568,2,2472,2557,1683,1581,3048,1.731,3.812,9.194,0.101,-0.008,-0.024,4.743,-0.158,13.283,0.038,1.259,-0.815,sad
7.86,1973,3746,3326,2000,3506,0,2887,2657,1549,2575,0,2457,2550,1692,1591,3096,1.767,3.812,9.141,0.111,-0.01,-0.029,-2.667,2.679,6.256,-1.123,0.87,0.044,sad
7.87,1925,3738,3342,1979,3472,0,2749,2256,1564,2568,0,2467,2556,1685,1589,3099,1.776,3.85,8.959,0.132,-0.009,-0.029,-4.25,-3.16,13.024,-1.399,-0.107,0.334,sad
7.88,1905,3751,3363,2017,3434,0,2580,1963,1575,2567,23,2473,2567,1680,1581,3097,1.738,3.871,9.11,0.14,0.003,-0.038,-0.46,-2.811,10.008,-1.331,-0.426,0.316,sad
7.89,1921,3785,3404,2030,3407,0,2309,1600,0,0,0,0,0,8,779,2606,1.82,3.85,9.019,0.169,0.019,-0.025,2.875,-3.412,9.237,-1.426,-0.821,0.166,sad
7.9,1872,3794,3407,2096,3299,0,1982,1034,0,1,0,0,53,0,1323,2914,1.829,3.857,9.275,0.133,0.047,-0.034,5.698,-2.624,6.567,-0.076,1.002,0.474,sad
7.91,1904,3787,3427,2118,3165,0,1456,43,0,0,0,0,139,0,1415,3140,1.628,3.778,9.148,0.194,0.074,-0.055,2.334,-4.743,11.437,-0.121,1.02,0.48,sad
7.92,1821,3792,3456,2126,3008,0,949,0,1523,2591,0,2437,2535,1709,1604,3095,1.664,4.037,8.954,0.219,0.074,-0.05,1.755,-3.548,10.288,-0.122,0.663,0.294,sad
7.93,1819,3792,3456,2059,2784,0,508,0,1589,2555,0,2483,2569,1673,1577,2968,1.484,3.936,9.024,0.226,0.068,-0.054,1.554,-3.112,9.668,-0.201,0.279,0.1,sad
7.94,1750,3805,3479,2032,2507,0,144,0,1595,2549,0,2479,2572,1669,1573,3103,1.444,4.046,9.06,0.239,0.054,-0.088,1.743,-3.29,9.699,-0.097,0.348,0.096,sad
7.95,1749,3799,3459,1970,2082,0,48,0,1519,2553,194,2477,2571,1675,1575,3100,1.599,3.814,8.921,0.292,0.016,-0.116,1.994,-3.474,9.641,-0.028,0.268,0.112,sad
7.96,1744,3785,3428,1820,1791,0,0,0,1597,2551,0,2483,2570,1684,1575,3098,1.822,4.051,9,0.363,0.009,-0.068,1.889,-3.134,9.443,0.011,0.278,0.069,sad
7.97,1718,3763,3392,1685,1553,0,0,0,1577,2525,12,2471,2584,1683,1583,3097,1.65,4.111,8.832,0.443,0.022,-0.041,1.611,-3.139,9.713,-0.046,0.085,-0.003,sad
7.98,1739,3568,3342,1452,1502,0,0,0,1583,2572,10,2473,2556,1677,1581,3099,1.652,4.223,8.825,0.472,0.055,-0.032,1.724,-3.074,9.483,-0.037,0.085,-0.029,sad
7.99,1858,3717,3274,1447,1321,0,0,0,1597,2549,15,2477,2535,1674,1575,3102,2.006,4.266,8.741,0.525,0.12,-0.009,1.791,-3.12,9.297,0.006,0.069,-0.023,sad
8,1876,3685,3248,1382,1191,0,0,0,1599,2549,15,2482,2572,1675,1567,3101,1.858,4.499,8.643,0.566,0.14,0.018,1.7,-3.081,9.395,0.026,0.063,-0.019,sad
8.01,1931,3627,3222,1329,933,0,0,0,1591,2550,0,2485,2607,1672,1573,3100,1.657,4.448,8.717,0.637,0.197,0.06,1.671,-3.163,9.397,0.014,0.043,-0.035,sad
8.02,2014,3490,3166,1282,839,0,0,0,1607,2547,17,2487,2601,1671,1573,3117,1.607,4.659,8.667,0.733,0.225,0.095,1.8,-3.005,9.309,-0.004,0.088,-0.012,sad
8.03,2101,3318,3086,1107,725,0,0,0,1608,2549,17,2479,2617,1671,1573,2989,1.69,4.889,8.674,0.804,0.221,0.075,1.767,-2.981,9.275,-0.009,0.138,0.01,sad
8.04,2128,3071,2928,976,593,0,0,0,1609,2421,17,2483,2572,1671,1575,3099,1.549,4.583,8.748,1.003,0.261,0.034,1.595,-2.993,9.383,-0.016,0.132,0.01,sad
8.05,2134,2585,2675,837,460,0,0,0,1610,2554,12,2478,2572,1670,1572,3101,2.282,5.44,9.177,1.139,0.294,-0.069,1.702,-3.177,9.318,0.038,-0.006,-0.025,sad
8.06,2160,2134,2279,589,547,0,0,0,1611,2549,17,2483,2573,1673,1575,3101,1.707,5.27,9.017,1.417,0.174,-0.216,1.779,-3.156,9.5,0.052,-0.072,-0.047,sad
8.07,2091,1597,1232,273,362,0,0,0,1618,2548,23,2475,2572,1659,1575,3065,1.547,5.394,9.428,1.702,-0.094,-0.412,1.678,-3.117,9.335,0.078,-0.107,-0.06,sad
8.08,2002,1102,59,0,153,0,0,0,1613,2584,33,2531,2651,1915,1629,3126,2.217,5.926,9.088,1.996,-0.059,-0.667,1.724,-3.235,9.577,0.114,-0.24,-0.085,sad
8.09,1859,637,0,0,164,0,0,0,7,667,23,37,2201,0,3439,3994,2.057,7.144,8.073,2.023,0.331,-0.953,1.827,-3.043,9.5,0.141,-0.297,-0.107,sad
8.1,1584,414,0,0,160,0,0,0,3,631,0,29,2200,0,3354,3845,1.3,7.132,8.543,1.966,0.347,-1.032,1.911,-3.01,9.409,0.136,-0.307,-0.111,sad
8.11,1251,181,0,0,161,0,0,0,0,649,5,6,2333,0,3495,4095,2.014,6.507,9.622,1.567,0.462,-1.184,1.978,-2.945,9.34,0.137,-0.3,-0.109,sad
8.12,593,27,0,0,149,0,0,0,0,584,0,2,2377,0,3615,4095,1.559,5.203,9.55,0.947,0.844,-1.328,2.045,-2.801,9.093,0.129,-0.257,-0.089,sad
8.13,348,0,0,0,207,0,0,0,0,547,0,0,2419,0,3661,4095,2.097,4.494,9.397,0.703,0.661,-1.11,2.179,-2.816,9.215,0.102,-0.23,-0.083,sad
8.14,83,0,0,0,217,0,0,0,0,499,0,0,2395,29,3693,4095,2.468,3.01,9.074,0.234,0.497,-1.012,1.99,-2.871,9.445,0.087,-0.226,-0.072,sad
8.15,0,0,0,0,258,0,0,0,0,489,0,0,2377,0,3678,4095,3.038,2.272,9.335,-0.152,0.335,-0.864,2.15,-2.784,9.163,0.07,-0.187,-0.066,sad
8.16,0,0,0,0,283,0,0,0,0,461,0,0,2403,0,3640,4031,3.845,2.976,8.921,-0.363,0.05,-0.483,2.195,-2.734,9.141,0.053,-0.15,-0.044,sad
8.17,0,0,0,0,253,0,0,0,1,456,15,0,2424,0,3675,3923,2.861,2.14,9.239,-0.762,-0.194,-0.247,2.03,-2.88,9.488,0.05,-0.148,-0.031,sad
8.18,0,0,0,0,196,0,0,0,1611,2550,0,2485,2577,1672,1579,3103,2.174,2.622,8.844,-0.969,-0.31,-0.05,2.097,-2.907,9.524,0.038,-0.112,-0.04,sad
8.19,0,0,0,0,208,0,0,0,4,373,15,8,2447,6,3592,3975,1.346,3.316,9.371,-1.353,-0.497,0.094,2.258,-2.717,9.227,0.04,-0.11,-0.029,sad
8.2,0,0,0,0,175,0,0,0,0,395,2,1,2520,0,3593,3955,1.444,3.713,9.378,-1.544,-0.535,0.155,2.337,-2.753,9.246,0.032,-0.066,-0.014,sad
8.21,0,0,0,0,160,0,0,0,5,362,20,7,2443,0,3429,3711,1.12,3.852,9.316,-1.687,-0.535,0.196,2.356,-2.823,9.165,0.034,-0.038,-0.013,sad
8.22,0,0,0,0,159,0,0,0,1614,2549,0,2488,2573,1662,1577,3101,0.939,4.128,9.098,-1.792,-0.555,0.236,2.423,-2.717,9.191,0.028,0.075,-0.007,sad
8.23,0,0,0,0,185,0,0,0,0,125,94,5,2723,0,3639,3862,0.821,4.662,9.716,-1.888,-0.632,0.278,2.552,-2.674,8.808,0.005,0.198,0.052,sad
8.24,0,0,0,0,146,0,0,0,0,150,0,1,2794,0,3821,4095,1.032,4.846,9.68,-1.928,-0.547,0.289,2.04,-2.947,9.893,-0.013,0.152,0.067,sad
8.25,0,0,0,0,11,0,0,0,0,231,0,0,2876,0,3822,4095,1.154,4.906,9.459,-1.927,-0.451,0.295,2.227,-2.89,9.419,0.015,0.105,0.038,sad
8.26,0,0,0,0,0,0,0,0,0,227,0,0,2915,35,3823,4095,1.444,4.97,9.419,-1.877,-0.445,0.341,2.14,-2.837,9.565,0.015,0.091,0.037,sad
8.27,0,0,0,0,0,0,0,0,0,279,0,0,2959,0,3833,4095,1.882,5.073,9.337,-1.799,-0.462,0.432,2.27,-2.784,9.261,0.01,0.102,0.038,sad
8.28,0,0,0,0,0,0,0,0,0,236,0,0,3007,46,3851,4095,2.306,5.318,9.84,-1.711,-0.504,0.571,2.294,-2.775,9.218,0.009,0.137,0.054,sad
8.29,0,0,0,0,0,0,0,0,0,188,0,0,3033,0,3852,4095,2.569,5.626,10.192,-1.67,-0.506,0.766,2.43,-2.746,8.983,-0.005,0.191,0.08,sad
8.3,0,0,0,0,0,0,0,0,0,306,0,0,3054,0,3861,4095,2.433,5.526,9.761,-1.626,-0.451,0.933,2.31,-2.739,9.148,-0.019,0.254,0.094,sad
8.31,0,0,0,0,0,0,0,0,0,509,0,0,3093,0,3849,4095,2.095,5.375,9.538,-1.527,-0.405,1.062,2.205,-2.701,8.99,-0.043,0.328,0.116,sad
8.32,0,0,0,0,0,0,0,0,0,598,0,0,3061,0,3811,4073,1.748,5.432,9.811,-1.424,-0.387,1.153,2.272,-2.763,9.041,-0.05,0.471,0.148,sad
8.33,0,0,0,0,0,0,0,0,0,569,0,0,3111,0,3878,4095,1.319,5.499,9.797,-1.357,-0.364,1.197,1.889,-2.873,9.531,-0.082,0.482,0.141,sad
8.34,0,0,0,0,0,0,0,0,0,533,0,0,3149,51,3871,4095,0.876,5.282,9.512,-1.269,-0.322,1.18,1.798,-2.861,9.725,-0.093,0.399,0.139,sad
8.35,0,0,0,0,0,0,0,0,0,651,0,41,3163,0,3879,4095,0.551,5.363,9.328,-1.171,-0.293,1.103,1.856,-2.931,9.601,-0.09,0.306,0.138,sad
8.36,0,0,0,0,0,0,0,0,0,687,0,40,3181,0,3884,4095,0.369,5.447,9.567,-1.051,-0.303,1.013,1.757,-3.014,9.596,-0.073,0.232,0.118,sad
8.37,0,0,0,0,0,0,0,0,0,687,0,40,3181,0,3884,4095,0.436,5.811,9.531,-0.991,-0.296,0.909,1.757,-3.014,9.596,-0.073,0.232,0.118,sad
8.38,0,0,0,0,0,0,0,0,11,795,0,150,3199,0,3827,4072,0.211,6.019,10.001,-0.949,-0.316,0.762,1.788,-2.952,9.457,-0.064,0.14,0.097,sad
