timestamp,L1,L2,L3,L4,L5,L6,L7,L8,R1,R2,R3,R4,R5,R6,R7,R8,acc_x_left,acc_y_left,acc_z_left,gyro_x_left,gyro_y_left,gyro_z_left,acc_x_right,acc_y_right,acc_z_right,gyro_x_right,gyro_y_right,gyro_z_right,mood
0.00,1488,3504,3306,2586,3203,0,3149,3568,1561,2573,0,2469,2553,1692,1592,3095,1.547,3.364,9.237,0.025,0.047,0.002,0.860,-3.749,9.797,0.086,0.026,-0.074,sad
0.01,1491,3494,3309,2559,3198,0,3153,3570,1560,2573,0,2469,2555,1690,1592,3097,1.513,3.378,9.263,0.034,0.039,0.005,0.656,-3.242,9.538,0.056,0.051,-0.089,sad
0.02,1498,3505,3311,2559,3191,0,3152,3569,1565,2573,69,2488,2555,1685,1591,3101,1.520,3.342,9.285,0.049,0.031,-0.000,0.807,-2.933,9.776,-0.070,0.046,-0.040,sad
0.03,1507,3506,3303,2559,3178,0,3152,3579,1559,2577,0,2468,2555,1692,1593,3097,1.700,3.340,9.232,0.056,0.010,-0.007,0.373,-2.897,9.725,-0.240,0.035,0.071,sad
0.04,1516,3519,3312,2559,3179,0,3162,3568,1559,2575,0,2463,2552,1691,1591,3099,1.611,3.352,9.206,0.052,0.026,-0.011,-0.014,-2.598,12.311,-0.184,0.433,0.732,sad
0.05,1523,3515,3312,2545,3177,0,3165,3568,1559,2565,0,2469,2555,1693,1591,3093,1.590,3.419,9.268,0.052,0.025,-0.010,1.422,-0.864,11.305,-0.146,0.476,0.595,sad
0.06,1535,3515,3321,2545,3167,0,3161,3568,0,0,0,0,0,0,0,792,1.597,3.405,9.194,0.058,0.040,-0.012,3.330,2.409,11.298,-0.080,0.414,0.392,sad
0.07,1535,3518,3306,2537,3163,0,3159,3570,0,0,130,0,0,0,0,787,1.607,3.397,9.175,0.050,0.031,-0.011,2.277,3.390,13.075,0.275,-0.134,0.006,sad
0.08,1558,3509,3312,2532,3152,0,3167,3559,0,0,0,0,0,0,0,766,1.590,3.302,9.203,0.056,0.046,-0.017,1.652,2.789,12.886,0.546,-0.399,0.023,sad
0.09,1527,3486,3265,2555,3137,0,3122,3552,0,1,12,0,0,0,0,725,1.604,3.376,9.220,0.068,0.042,-0.029,0.199,0.223,12.905,1.101,-0.407,0.153,sad
0.10,1575,3519,3325,2559,3140,0,3159,3568,0,15,0,0,0,0,0,681,1.607,3.304,9.141,0.089,0.043,-0.034,-0.860,-2.375,11.341,1.448,-0.542,0.565,sad
0.11,1565,3495,3226,2599,3098,0,3085,3558,0,0,0,0,0,0,0,695,1.494,3.553,9.122,0.093,0.027,-0.032,-0.752,-3.347,10.336,1.517,-0.649,0.796,sad
0.12,1644,3516,3344,2625,3119,0,3152,3562,0,0,0,0,0,0,0,606,1.475,3.426,9.294,0.101,0.031,-0.033,0.144,-5.042,8.519,1.428,-0.861,1.093,sad
0.13,1622,3504,3146,2661,3088,0,3043,3550,0,0,0,0,0,0,0,495,1.504,3.522,9.337,0.081,0.023,-0.038,1.372,-6.148,7.798,1.193,-0.868,1.015,sad
0.14,1594,3521,3375,2673,3097,0,3142,3550,1549,2577,0,2463,2551,1693,1583,3096,1.604,3.419,9.208,0.058,0.012,-0.036,1.836,-6.914,7.707,1.147,-0.603,0.624,sad
0.15,1581,3518,3356,2701,3062,0,3120,3535,1554,2577,0,2463,2551,1696,1595,3092,1.518,3.393,9.285,0.037,-0.001,-0.042,1.448,-6.381,6.182,1.049,-0.538,0.418,sad
0.16,1615,3520,3392,2706,3070,0,3123,3517,1555,2579,0,2463,2549,1695,1595,3095,1.537,3.448,9.371,0.050,0.003,-0.056,1.360,-6.989,6.076,0.612,-0.382,0.040,sad
0.17,1613,3519,3402,2704,3049,0,3102,3503,1555,2523,0,2463,2551,1694,1595,3097,1.623,3.484,9.278,0.091,0.018,-0.043,-0.069,-8.322,0.359,-0.348,-0.010,-0.528,sad
0.18,1584,3491,3411,2717,3024,0,3071,3472,1510,2579,110,2467,2554,1695,1577,3097,1.604,3.484,9.306,0.090,-0.002,-0.049,0.843,-4.168,5.109,-0.378,0.705,-0.278,sad
0.19,1602,3479,3414,2726,3002,0,3031,3429,0,0,0,0,0,0,0,441,1.607,3.407,9.285,0.118,0.031,-0.032,0.486,3.249,8.358,-0.260,-0.228,-0.374,sad
0.20,1648,3472,3418,2709,2951,0,2951,3369,1583,2557,0,2483,2567,1672,1615,3107,1.602,3.440,9.182,0.140,0.072,-0.045,-1.039,-3.500,11.995,-0.913,-0.228,0.137,sad
0.21,1622,3467,3419,2711,2913,0,2804,3255,1599,2555,0,2483,2573,1676,1577,3101,1.628,3.543,9.285,0.165,0.088,-0.046,0.254,-1.319,9.823,-0.959,-0.552,-0.013,sad
0.22,1717,3469,3410,2725,2863,0,2601,3115,1591,2558,0,2485,2575,1677,1573,3101,1.604,3.553,9.213,0.152,0.058,-0.047,3.893,-3.211,9.821,-1.107,-0.618,0.064,sad
0.23,1785,3468,3415,2719,2814,0,2357,2928,1007,2708,0,2611,2683,2093,2261,3221,1.554,3.546,9.151,0.181,0.037,-0.049,3.881,-3.168,9.752,-0.891,-0.047,0.114,sad
0.24,1867,3469,3418,2724,2727,0,2083,2678,1059,2729,0,2739,2701,2101,2292,3100,1.554,3.438,9.397,0.210,0.076,-0.071,3.381,-3.010,9.285,-0.840,0.094,0.145,sad
0.25,1983,3469,3405,2708,2612,0,1680,2373,1591,2539,0,2510,2509,1977,2126,3567,1.506,3.819,9.129,0.231,0.129,-0.077,12.182,-3.019,11.655,-0.845,0.347,0.159,sad
0.26,2019,3455,3380,2727,2402,0,1004,1904,0,0,0,0,0,0,1253,3045,1.767,3.776,9.155,0.183,0.213,-0.091,0.266,-3.780,11.056,-0.391,0.673,0.396,sad
0.27,2039,3426,3307,2721,2029,0,431,1159,0,0,0,0,0,0,1577,3173,1.484,3.687,9.270,0.204,0.242,-0.078,1.039,-3.005,9.766,-0.189,0.611,0.299,sad
0.28,2090,3399,3216,2719,1222,0,171,87,0,3,0,0,61,0,2021,3312,1.391,3.725,9.210,0.239,0.192,-0.062,1.298,-3.136,9.783,-0.162,0.503,0.216,sad
0.29,2109,3346,3185,2673,960,0,0,0,1596,2549,0,2484,2578,1673,1576,3093,1.348,3.443,8.938,0.371,0.141,-0.023,0.960,-3.421,9.740,-0.190,0.353,0.136,sad
0.30,2190,3306,3151,2534,787,0,0,0,1597,2537,2,2485,2579,1675,1575,3103,1.762,3.505,8.863,0.242,0.087,-0.177,1.353,-3.191,9.682,-0.226,0.258,0.136,sad
0.31,2203,3216,3098,2373,479,0,0,0,1573,2551,15,2485,2583,1673,1574,3103,1.595,3.783,9.017,0.408,0.129,-0.043,1.460,-3.428,9.668,-0.148,0.196,0.072,sad
0.32,2189,3039,2976,2196,241,0,0,0,1599,2549,23,2551,2573,1693,1573,3103,1.128,4.207,9.112,0.485,0.135,0.021,1.568,-3.445,9.507,-0.085,0.158,0.041,sad
0.33,2234,2992,2949,2055,90,0,0,0,1605,2549,20,2485,2552,1673,1573,3101,1.132,3.840,9.043,0.441,0.176,0.005,1.427,-3.203,9.407,-0.045,0.121,0.020,sad
0.34,2202,2834,2816,1825,0,0,0,0,1612,2552,0,2485,2573,1673,1574,3101,1.808,4.307,8.988,0.570,0.176,0.127,1.420,-3.249,9.371,-0.046,0.093,0.028,sad
0.35,2032,2596,2601,1639,0,0,0,0,1607,2550,58,2457,2569,1661,1573,3119,1.609,4.377,9.084,0.494,0.390,0.026,1.290,-3.215,9.385,-0.038,0.083,0.029,sad
0.36,1793,2041,2067,1293,0,0,0,0,1607,2551,58,2482,2573,1672,1563,3033,1.875,4.480,9.225,0.570,0.525,-0.139,1.381,-3.203,9.385,-0.057,0.078,0.042,sad
0.37,1519,1163,465,591,0,0,0,0,1593,2549,61,2487,2571,1671,1573,3101,1.729,4.630,9.275,0.636,0.387,-0.468,1.460,-3.390,9.584,0.004,0.037,0.003,sad
0.38,1173,541,0,0,0,0,0,0,137,581,138,882,1355,12,3224,3983,3.735,5.148,9.122,0.524,0.733,-1.044,1.489,-3.218,9.359,0.063,-0.064,-0.023,sad
0.39,567,80,0,0,0,0,0,0,110,485,104,918,1526,12,3323,4007,1.221,5.959,9.615,0.366,1.161,-1.470,1.338,-3.203,9.419,0.071,-0.072,-0.029,sad
0.40,0,0,0,0,0,0,0,0,120,479,199,765,1699,21,3417,4028,4.659,5.107,8.030,0.343,1.186,-1.438,1.393,-3.100,9.364,0.112,-0.092,-0.052,sad
0.41,0,0,0,0,0,0,0,0,151,589,601,701,1788,35,3434,4041,5.499,6.469,9.086,0.163,0.383,-0.441,1.539,-3.038,9.278,0.095,-0.093,-0.046,sad
0.42,0,0,0,0,0,0,0,0,202,504,1062,487,1813,71,3453,4023,5.100,4.465,8.150,0.064,0.328,-0.070,1.405,-3.256,9.474,0.089,-0.134,-0.050,sad
0.43,0,0,0,0,0,0,0,0,115,461,1131,411,1833,30,3485,4057,2.940,3.445,7.101,0.303,0.517,0.269,1.384,-3.203,9.627,0.111,-0.218,-0.092,sad
0.44,0,0,0,0,0,0,0,0,93,379,1123,216,1916,28,3509,4029,1.702,3.876,7.966,0.446,0.200,0.566,1.599,-2.911,9.148,0.098,-0.255,-0.082,sad
0.45,0,0,0,0,0,0,0,0,61,427,1118,254,2011,16,3538,4025,1.544,3.967,8.712,0.505,0.209,0.636,1.472,-2.995,9.421,0.062,-0.249,-0.052,sad
0.46,0,0,0,0,0,0,0,0,43,655,1133,191,2133,13,3539,3967,0.979,3.900,8.952,0.483,0.104,0.662,1.427,-3.175,9.371,0.075,-0.291,-0.065,sad
0.47,0,0,0,0,0,0,0,0,4,919,1103,135,2264,3,3541,3946,0.778,3.598,8.832,0.518,0.084,0.594,1.554,-2.998,9.392,0.051,-0.295,-0.068,sad
0.48,0,0,0,0,0,0,0,0,5,965,1118,163,2478,9,3463,3963,0.546,3.488,8.614,0.555,0.108,0.650,1.745,-2.986,9.199,0.023,-0.259,-0.050,sad
0.49,0,0,0,0,0,0,0,0,2,988,1103,93,2491,5,3533,3871,0.362,3.498,8.954,0.520,0.044,0.640,1.925,-3.007,9.134,0.009,-0.213,-0.032,sad
0.50,0,0,0,0,0,0,0,0,1,1098,1248,89,2568,2,3507,3813,0.579,3.579,9.182,0.447,0.028,0.600,1.700,-2.945,9.301,-0.009,-0.230,-0.034,sad
0.51,0,0,0,0,0,0,0,0,0,1119,1338,1,2638,0,3503,3730,0.503,3.737,9.637,0.307,-0.042,0.544,1.733,-3.120,9.792,-0.034,-0.349,-0.056,sad
0.52,0,0,0,0,0,0,0,0,0,1221,1389,23,2815,1,3613,3813,0.271,3.232,9.275,0.241,0.040,0.531,2.057,-2.856,8.976,-0.063,-0.355,-0.079,sad
0.53,0,0,0,0,0,0,0,0,1,1425,1415,113,2914,1,3657,3794,0.242,3.309,9.359,0.182,-0.088,0.568,2.148,-2.895,8.978,-0.107,-0.240,-0.029,sad
0.54,0,0,0,0,0,0,0,0,0,1571,1410,0,2955,0,3638,3631,0.661,3.666,9.471,0.089,-0.118,0.592,2.207,-3.067,9.079,-0.123,-0.102,0.017,sad
0.55,0,0,0,0,0,0,0,0,0,1785,1430,4,3056,0,3718,3707,1.022,3.905,9.565,-0.028,-0.061,0.661,2.128,-3.261,9.136,-0.088,0.000,0.080,sad
0.56,0,0,0,0,0,0,0,0,1,1821,1353,55,3123,2,3741,3689,1.331,3.752,8.849,-0.120,0.072,0.732,2.016,-3.017,9.079,-0.120,0.046,0.082,sad
0.57,0,0,0,0,0,0,0,0,0,1907,1748,92,3181,2,3743,3672,1.480,3.701,8.629,-0.139,0.129,0.865,2.447,-3.055,8.997,-0.148,0.138,0.138,sad
0.58,0,0,0,0,0,0,0,0,47,1967,1829,213,3215,17,3751,3658,1.884,3.903,8.770,-0.161,0.155,1.026,1.887,-3.381,9.323,-0.128,0.169,0.130,sad
0.59,0,0,0,0,0,0,0,0,103,2035,2014,295,3243,29,3753,3683,1.817,4.197,9.306,-0.204,0.212,1.210,1.697,-3.436,9.725,-0.110,0.131,0.108,sad
0.60,0,0,0,0,0,0,0,0,117,2077,2029,409,3271,31,3763,3704,1.463,4.111,9.210,-0.284,0.271,1.348,1.767,-3.503,9.505,-0.036,0.085,0.082,sad
0.61,0,0,0,0,0,0,0,0,139,2035,2157,473,3294,39,3771,3717,1.228,4.013,9.127,-0.329,0.292,1.423,1.856,-3.256,9.452,-0.026,0.054,0.072,sad
0.62,0,0,0,0,0,0,0,0,123,2057,2157,531,3359,30,3785,3729,1.130,4.149,9.515,-0.388,0.274,1.477,1.958,-3.376,9.397,0.008,0.067,0.072,sad
0.63,0,0,0,0,0,0,0,0,118,2027,2080,558,3335,29,3787,3737,1.204,4.190,9.898,-0.486,0.254,1.522,1.903,-3.223,9.347,0.024,0.084,0.081,sad
0.64,0,0,0,0,0,0,0,0,153,1804,2080,722,3347,38,3789,3813,1.314,4.013,9.656,-0.582,0.302,1.547,1.863,-3.376,9.282,0.055,0.128,0.089,sad
0.65,0,0,0,0,0,0,0,0,151,1784,2083,790,3368,36,3803,3759,1.199,3.941,9.694,-0.641,0.317,1.549,1.657,-3.541,9.773,0.082,0.161,0.090,sad
0.66,0,0,0,0,0,0,0,0,127,1693,2065,783,3325,31,3811,3782,1.475,4.003,9.536,-0.708,0.321,1.592,1.607,-3.014,9.210,0.041,0.206,0.109,sad
0.67,0,0,0,0,0,0,0,0,123,1528,2073,683,3237,6,3753,3817,1.381,3.845,9.416,-0.753,0.331,1.617,2.193,-3.172,9.045,-0.001,0.352,0.163,sad
0.68,0,0,0,0,0,0,0,0,99,1317,2067,739,3118,25,3724,3861,1.597,3.955,9.409,-0.807,0.335,1.675,2.045,-3.354,9.117,0.000,0.412,0.177,sad
0.69,0,0,0,0,0,0,0,0,126,1123,2039,780,2969,35,3693,3887,1.808,4.085,9.728,-0.864,0.345,1.755,1.786,-3.359,9.335,-0.006,0.435,0.165,sad
0.70,0,0,0,0,0,0,0,0,198,973,2096,909,2803,39,3670,4040,2.215,4.065,9.888,-0.909,0.367,1.847,0.912,-3.146,10.609,-0.070,0.344,0.163,sad
0.71,0,0,0,0,0,0,0,0,205,1011,2065,1100,2611,43,3639,3951,2.207,4.092,9.699,-0.920,0.389,1.933,1.609,-3.560,9.795,-0.024,0.266,0.133,sad
0.72,0,0,0,0,0,0,0,0,221,1007,2065,1189,2521,43,3577,3979,2.236,4.135,9.536,-0.904,0.410,1.992,1.372,-3.115,9.596,-0.027,0.179,0.105,sad
0.73,0,0,0,0,0,0,0,0,221,1093,2067,1263,2549,43,3640,3997,2.282,4.463,9.708,-0.888,0.411,2.045,1.597,-3.412,9.431,-0.033,0.132,0.096,sad
0.74,0,0,0,0,0,0,0,0,239,1151,2070,1288,2531,43,3643,4007,2.184,4.693,9.780,-0.885,0.438,2.076,1.528,-3.397,9.438,0.004,0.108,0.074,sad
0.75,0,0,0,0,0,0,0,0,243,1195,2078,1429,2572,75,3653,4012,2.045,4.788,9.369,-0.873,0.446,2.095,1.508,-3.299,9.479,0.004,0.077,0.058,sad
0.76,0,0,0,0,0,0,0,0,261,1214,2067,1481,2588,43,3691,4030,1.829,4.762,8.885,-0.803,0.460,2.072,1.520,-3.294,9.330,0.007,0.073,0.047,sad
0.77,0,0,0,0,0,0,0,0,283,1239,2078,1589,2611,47,3644,4009,1.537,4.750,8.583,-0.676,0.430,2.046,1.508,-3.314,9.404,0.009,0.064,0.040,sad
0.78,0,0,0,0,0,0,0,0,292,1306,2080,1689,2632,47,3641,3927,1.432,5.138,8.859,-0.542,0.357,2.008,1.413,-3.292,9.380,0.009,0.058,0.034,sad
0.79,0,0,0,0,0,0,0,0,301,1254,2083,1671,2652,51,3641,4022,1.460,5.641,9.400,-0.500,0.318,1.939,1.437,-3.314,9.369,0.005,0.050,0.032,sad
0.80,0,0,0,0,0,0,0,0,316,1291,2080,1715,2671,47,3644,4015,1.092,5.777,9.268,-0.498,0.328,1.824,1.453,-3.254,9.416,0.013,0.040,0.035,sad
0.81,0,0,0,0,0,0,0,0,341,1275,2085,1726,2700,51,3655,4009,0.043,6.081,9.577,-0.588,0.013,1.651,1.480,-3.280,9.392,-0.002,0.030,0.037,sad
0.82,0,0,0,0,0,0,0,0,361,1279,2080,1765,2725,47,3624,4024,0.034,5.988,9.218,-0.513,0.090,1.397,1.456,-3.127,9.330,-0.019,0.021,0.050,sad
0.83,0,0,0,0,0,0,0,0,412,1239,2075,1757,2751,52,3662,4075,-0.048,5.930,8.662,-0.540,-0.050,1.158,1.458,-3.244,9.369,-0.046,0.020,0.072,sad
0.84,0,0,0,0,0,0,0,0,427,1359,2083,1735,2783,50,3663,4007,0.005,5.818,8.073,-0.436,-0.065,0.686,1.453,-3.163,9.330,-0.077,0.009,0.083,sad
0.85,0,0,0,0,0,0,0,0,663,1425,2106,1917,2844,56,3679,4008,0.601,5.339,8.291,-0.376,-0.027,0.314,1.425,-3.378,9.340,-0.073,0.006,0.069,sad
0.86,0,0,0,0,0,0,0,0,1055,1651,2108,2023,2925,48,3675,3988,1.609,5.164,9.038,-0.452,-0.165,0.159,1.458,-3.266,9.388,-0.116,-0.023,0.067,sad
0.87,0,0,0,0,0,0,0,0,1287,1711,2101,2053,2958,51,3669,3977,2.069,4.573,8.061,-0.466,-0.035,0.171,1.492,-3.426,9.352,-0.112,-0.016,0.067,sad
0.88,0,0,0,0,0,0,0,0,1815,1871,2162,2131,3048,47,3647,3833,2.377,4.187,7.379,-0.298,0.014,0.275,1.446,-3.407,9.268,-0.096,-0.001,0.045,sad
0.89,0,0,0,0,0,0,0,0,2133,2067,2178,2259,3061,48,3608,3915,2.236,4.274,7.106,-0.074,0.038,0.409,1.542,-3.627,9.589,-0.068,0.013,0.035,sad
0.90,0,0,0,0,0,0,0,0,2270,2035,2180,2247,3109,51,3577,3895,1.966,4.494,7.020,0.153,0.050,0.497,1.468,-3.591,9.354,-0.054,0.010,0.042,sad
0.91,0,0,0,0,0,0,0,0,2463,2235,2180,2278,3113,46,3561,3875,1.676,4.812,6.843,0.302,0.070,0.532,1.415,-3.488,9.325,-0.021,0.010,0.023,sad
0.92,0,0,0,0,0,0,0,0,2536,2247,2257,2349,3132,53,3559,3863,1.312,4.887,6.778,0.460,0.078,0.505,1.451,-3.508,9.278,-0.017,0.009,0.023,sad
0.93,0,0,0,0,0,0,0,0,2536,2247,2257,2349,3132,53,3559,3863,1.190,4.954,6.986,0.598,0.055,0.440,1.451,-3.508,9.278,-0.017,0.009,0.023,sad
0.94,0,0,0,0,0,0,0,0,2605,2255,2195,2363,3141,47,3549,3851,3.500,3.194,7.676,0.778,0.485,0.499,1.501,-3.498,9.385,-0.013,0.018,0.021,sad
0.95,0,0,0,0,0,0,0,0,2719,2323,2193,2463,3175,47,3515,3828,2.286,1.575,11.334,0.681,0.573,0.576,1.405,-3.546,9.321,-0.006,0.020,0.024,sad
0.96,0,0,0,0,0,0,0,0,2749,2339,2203,2459,3191,50,3509,3821,1.877,0.601,11.219,0.670,0.586,0.770,1.389,-3.457,9.359,-0.011,0.010,0.018,sad
0.97,0,0,0,0,0,0,0,0,2811,2415,2208,2474,3209,48,3445,3796,-1.013,2.090,9.895,0.855,0.184,0.486,1.477,-3.464,9.285,-0.009,0.027,0.017,sad
0.98,0,0,0,0,0,0,0,418,2840,2421,2208,2519,3218,47,3385,3775,-2.552,2.315,10.807,0.828,-0.058,0.068,1.496,-3.491,9.359,-0.015,0.025,0.023,sad
0.99,0,0,0,0,0,0,0,997,2847,2427,2218,2571,3241,47,3193,3733,0.721,2.282,9.589,0.831,-0.215,-0.162,1.525,-3.457,9.242,-0.030,0.027,0.033,sad
1.00,0,0,0,0,0,0,205,1382,2908,2527,2224,2575,3219,51,2910,3672,2.897,3.620,9.859,0.685,-0.274,-0.245,1.463,-3.472,9.290,-0.028,0.028,0.037,sad
1.01,0,0,0,0,195,0,464,1713,2922,2536,2229,2597,3165,47,2595,3592,3.218,2.634,8.497,0.704,-0.344,-0.111,1.456,-3.512,9.357,-0.037,0.057,0.045,sad
1.02,0,224,0,0,656,0,702,1984,2910,2543,2265,2632,3117,48,2429,3526,0.905,3.603,9.124,0.175,0.471,-0.169,1.484,-3.522,9.318,-0.035,0.066,0.048,sad
1.03,0,529,0,0,688,0,891,2173,2877,2588,2229,2633,2913,51,2190,3383,2.337,2.904,8.940,0.150,0.769,-0.259,1.401,-3.522,9.299,-0.027,0.045,0.039,sad
1.04,0,981,0,0,839,0,1008,2271,2905,2587,2229,2616,2716,51,1973,3289,0.912,3.227,10.072,0.311,0.602,-0.298,1.422,-3.510,9.392,-0.024,0.032,0.027,sad
1.05,0,1472,0,0,933,0,1217,2393,2971,2623,2229,2598,2186,47,1555,2974,1.549,3.826,9.720,0.197,0.559,-0.239,1.410,-3.577,9.297,-0.032,0.009,0.016,sad
1.06,0,1688,0,0,1118,0,1328,2457,3031,2657,2234,2651,2007,47,1395,2611,1.305,3.819,10.192,0.151,0.204,-0.030,1.444,-3.500,9.330,-0.055,-0.017,0.003,sad
1.07,32,1951,49,0,1381,0,1597,2605,3082,2783,2239,2701,1931,47,1031,2263,1.178,3.433,9.524,0.091,0.034,-0.042,1.482,-3.548,9.297,-0.097,-0.002,0.003,sad
1.08,144,2153,289,0,1532,0,1728,2682,3091,2771,2259,2712,1789,47,919,2079,1.537,3.033,9.333,0.082,0.066,-0.066,1.470,-3.608,9.318,-0.106,0.019,0.014,sad
1.09,287,2352,690,142,1616,0,1943,2756,3094,2760,2224,2669,1500,47,414,1639,1.547,3.175,9.222,0.205,0.041,-0.102,1.420,-3.677,9.239,-0.124,0.036,0.019,sad
1.10,438,2482,1225,466,1678,0,2077,2801,3132,2773,2229,2728,1277,45,287,1516,1.326,3.479,9.371,0.115,-0.095,-0.060,1.063,-3.120,9.349,-0.184,0.054,0.019,sad
1.11,560,2579,1501,574,1835,0,2160,2858,3153,2725,2213,2751,1123,19,47,1354,1.305,3.505,9.538,0.087,-0.065,0.014,1.159,-3.697,9.474,-0.186,0.057,0.046,sad
1.12,592,2640,1786,637,1985,0,2265,2900,3245,2517,2344,2828,780,7,9,1255,1.470,3.084,9.210,0.104,-0.024,-0.046,1.417,-3.548,9.294,-0.264,0.107,-0.003,sad
1.13,765,2691,1951,733,2100,0,2335,2928,3401,2133,2203,2834,443,5,1,909,1.264,3.237,9.335,0.207,-0.036,-0.074,1.348,-3.766,8.990,-0.337,0.108,-0.034,sad
1.14,882,2752,2160,912,2213,0,2385,2960,3327,2100,2190,2799,461,5,3,746,1.434,3.531,9.421,0.099,-0.096,-0.066,1.393,-3.857,9.189,-0.339,0.127,-0.037,sad
1.15,927,2832,2305,1012,2229,0,2437,2981,3368,1909,2180,2743,185,0,0,397,1.528,3.476,9.342,0.101,-0.029,0.017,1.480,-3.967,9.194,-0.377,0.099,-0.031,sad
1.16,981,2867,2382,1130,2329,0,2480,3009,3450,1817,2216,2772,88,0,3,397,1.559,3.354,9.196,0.096,-0.007,-0.010,1.377,-4.008,9.182,-0.379,0.108,-0.034,sad
1.17,1040,2879,2448,1255,2369,0,2522,3051,3438,1525,2198,2707,43,5,0,349,1.477,3.472,9.294,0.065,-0.068,0.013,1.279,-4.039,8.990,-0.470,0.105,-0.047,sad
1.18,1071,2910,2496,1294,2448,0,2582,3090,3532,1261,2208,2707,0,0,0,233,1.437,3.440,9.117,0.041,-0.053,0.042,1.539,-4.190,9.306,-0.496,0.213,-0.087,sad
1.19,1080,2945,2544,1269,2477,0,2657,3141,3538,1236,2188,2643,0,1,0,187,1.690,3.376,9.239,0.018,-0.057,0.046,1.413,-4.106,9.079,-0.555,0.187,-0.077,sad
1.20,1050,2965,2545,1200,2492,0,2649,3097,3594,1087,2188,2540,0,1,9,163,1.683,3.452,9.342,0.019,-0.027,0.039,1.642,-4.559,9.210,-0.629,0.223,-0.033,sad
1.21,1007,3035,2641,1281,2642,0,2755,3254,3563,741,2042,2363,0,5,0,135,1.551,3.409,9.385,-0.040,-0.105,0.010,1.116,-4.429,8.844,-0.699,0.192,0.167,sad
1.22,1008,3065,2669,1298,2723,0,2800,3301,3573,569,1896,2295,0,1,0,127,1.585,3.397,9.261,0.022,-0.054,0.014,1.144,-4.503,8.703,-0.771,-0.037,0.538,sad
1.23,1045,3071,2722,1319,2768,0,2842,3325,3483,269,1307,2009,0,0,61,119,1.580,3.299,9.287,0.041,-0.017,-0.010,1.475,-4.903,8.818,-0.828,-0.216,0.753,sad
1.24,1088,2922,2767,1318,2677,0,2896,3152,2986,0,0,1325,29,0,0,93,1.690,3.395,9.158,0.060,-0.001,-0.018,1.441,-5.157,9.045,-0.864,-0.622,1.163,sad
1.25,1164,3118,2797,1392,2875,0,2923,3382,2631,0,0,969,0,0,0,109,1.731,3.345,9.232,0.083,0.027,-0.019,1.551,-5.102,8.921,-0.977,-0.893,1.384,sad
1.26,1219,3135,2825,1479,2911,0,2954,3378,2233,0,0,409,0,0,0,71,1.571,3.292,9.227,0.072,0.009,-0.020,1.726,-4.714,9.134,-0.920,-1.501,1.877,sad
1.27,1248,3152,2849,1602,2939,0,2970,3387,1580,2585,0,2479,2573,1683,1579,3102,1.707,3.440,9.278,0.061,-0.010,-0.016,2.195,-5.215,8.705,-0.610,-1.584,2.107,sad
1.28,1301,3168,2873,1667,2977,0,2992,3398,1589,2553,0,2483,2577,1672,1574,2981,1.642,3.393,9.227,0.062,-0.004,-0.009,2.186,-3.934,10.877,0.341,-1.019,2.446,sad
1.29,1319,3190,2902,1718,2992,0,3001,3401,1591,2552,0,2479,2577,1672,1573,3103,1.647,3.448,9.275,0.060,0.007,0.003,1.535,-2.370,10.338,0.819,-0.690,2.535,sad
1.30,1340,3211,2923,1761,3019,0,3008,3396,1565,2569,0,2473,2568,1687,1587,3097,1.666,3.452,9.335,0.030,0.017,0.008,2.988,-0.826,9.503,1.299,-0.593,2.466,sad
1.31,1350,3226,2948,1789,3051,0,3023,3411,1557,2575,0,2468,2571,1695,1594,3099,1.630,3.335,9.254,0.019,0.022,0.005,4.338,-1.329,8.985,1.514,-0.544,1.693,sad
1.32,1337,3227,2980,1729,3012,0,3001,3402,1557,2575,2,2479,2553,1691,1592,3039,1.611,3.326,9.278,0.034,0.004,-0.003,3.385,-1.381,8.823,1.510,-0.642,1.361,sad
1.33,1359,3265,2997,1826,3089,0,3033,3413,1557,2577,0,2469,2553,1692,1583,3097,1.683,3.383,9.227,0.060,0.018,-0.003,2.018,-1.956,9.627,1.470,-0.945,0.978,sad
1.34,1371,3289,2827,1747,3121,0,2962,3407,1558,2584,0,2469,2552,1691,1591,3099,1.590,3.388,9.242,0.059,0.027,-0.017,0.706,-2.210,10.209,1.590,-1.083,0.838,sad
1.35,1380,3295,3048,1886,3133,0,3039,3406,1576,2568,99,2431,2567,1753,1583,3097,1.693,3.381,9.254,0.054,0.025,-0.009,-0.115,-2.188,9.855,1.605,-1.043,0.867,sad
1.36,1393,3312,3067,1932,3136,0,3054,3409,1556,2573,0,2469,2552,1690,1592,3096,1.686,3.400,9.232,0.052,0.033,-0.013,-0.989,-2.397,10.032,1.555,-0.715,1.155,sad
1.37,1404,3319,3062,1967,3143,0,3043,3408,1546,2597,0,2462,2548,1702,1599,3097,1.587,3.397,9.239,0.061,0.031,-0.017,-1.571,-2.631,10.683,1.555,-0.563,1.336,sad
1.38,1424,3331,3119,2006,3163,0,3056,3415,1551,2577,0,2468,2552,1699,1593,3095,1.609,3.419,9.268,0.057,0.029,-0.011,-1.999,-3.639,11.832,1.553,-0.651,1.697,sad
1.39,1455,3324,3121,2030,3166,0,3057,3414,1557,2577,0,2467,2571,1689,1592,3079,1.640,3.357,9.266,0.054,0.037,-0.014,-2.952,-4.221,11.495,1.541,-0.955,1.989,sad
1.40,1479,3357,3136,2063,3171,0,3057,3408,1559,2575,0,2471,2493,1691,1592,3097,1.678,3.462,9.263,0.063,0.035,-0.008,-3.472,-3.907,9.301,1.281,-0.907,2.499,sad
1.41,1449,3341,3136,2098,3134,0,3005,3403,1577,2556,0,2476,2569,1682,1581,3099,1.626,3.431,9.232,0.064,0.030,-0.008,-4.846,-4.606,9.124,1.074,-0.945,2.837,sad
1.42,1520,3381,3168,2134,3177,0,3056,3414,1574,2565,0,2575,2568,1683,1579,3101,1.628,3.409,9.218,0.049,0.035,-0.010,-2.523,-6.086,8.909,0.661,-1.144,2.975,sad
1.43,1535,3365,3174,2155,3178,0,3055,3414,0,0,0,0,0,7,0,0,1.616,3.405,9.268,0.054,0.040,-0.007,-1.240,-5.875,9.019,0.584,-0.948,2.362,sad
1.44,1535,3374,3185,2186,3184,0,3056,3409,1589,2568,0,2489,2584,1691,1583,3110,1.592,3.436,9.230,0.064,0.021,-0.007,-1.468,-6.275,6.716,0.456,-0.493,1.977,sad
1.45,1562,3383,3210,2222,3179,0,3059,3407,1587,2555,0,2479,2573,1679,1575,3103,1.539,3.395,9.273,0.078,0.011,-0.010,-0.812,-6.972,5.902,-0.116,0.133,0.975,sad
1.46,1575,3393,3221,2241,3191,0,3057,3401,1586,2567,0,2483,2575,1679,1577,3103,1.674,3.412,9.230,0.100,0.014,-0.004,-0.637,-4.293,9.349,-0.379,0.425,0.279,sad
1.47,1597,3406,3243,2281,3174,0,3015,3395,1591,2553,0,2480,2573,1673,1577,3102,1.678,3.376,9.254,0.097,0.016,-0.011,1.808,-3.086,11.808,-0.260,0.092,0.133,sad
1.48,1452,3376,3216,2309,3102,0,2859,3355,1583,2555,0,2483,2573,1673,1576,3103,1.681,3.419,9.237,0.101,-0.018,-0.025,4.446,-1.501,7.281,-0.613,-0.114,0.229,sad
1.49,1652,3418,3289,2338,3184,0,2986,3317,1583,2549,0,2479,2571,1675,1576,3103,1.755,3.443,9.244,0.121,0.033,-0.028,-2.782,-2.059,11.428,-0.377,-0.053,0.153,sad
1.50,1679,3435,3317,2374,3152,0,2918,3223,1593,2555,217,2479,2572,1717,1577,3101,1.633,3.426,9.275,0.127,0.022,-0.039,0.103,-2.993,9.756,-0.315,-0.050,0.105,sad
1.51,1713,3441,3325,2401,3113,0,2805,3069,1587,2557,0,2492,2571,1721,1575,3102,1.688,3.481,9.311,0.142,0.008,-0.027,1.322,-2.796,9.515,-0.330,-0.077,0.043,sad
1.52,1729,3447,3338,2431,3067,0,2636,2864,1585,2554,0,2479,2572,1659,1576,3102,1.635,3.539,9.256,0.176,0.017,-0.025,1.188,-3.235,9.694,-0.283,-0.021,0.082,sad
1.53,1777,3461,3316,2452,3020,0,2426,2594,1587,2555,0,2485,2571,1676,1575,3101,1.511,3.567,9.203,0.179,0.023,-0.039,0.874,-3.242,9.486,-0.231,-0.001,0.028,sad
1.54,1812,3469,3344,2454,2965,0,2219,2209,1591,2554,0,2473,2459,1671,1575,3117,1.755,3.587,9.134,0.189,0.014,-0.039,1.056,-3.230,9.440,-0.223,-0.033,0.005,sad
1.55,1855,3477,3344,2461,2896,0,1907,1535,1590,2555,12,2482,2571,1673,1639,3103,1.640,3.656,9.143,0.188,0.008,-0.023,1.192,-3.311,9.515,-0.157,-0.002,0.019,sad
1.56,1962,3480,3347,2434,2822,0,1520,778,1589,2553,28,2479,2571,1671,1575,3113,1.602,3.529,9.270,0.198,0.010,-0.043,1.381,-3.225,9.433,-0.153,0.049,0.058,sad
1.57,2045,3482,3338,2428,2703,0,964,134,1593,2551,48,2483,2581,1671,1568,3103,1.595,3.757,9.184,0.241,0.041,-0.059,1.252,-3.426,9.419,-0.158,0.096,0.078,sad
1.58,2145,3487,3317,2421,2526,0,542,0,1595,2553,53,2483,2572,1671,1573,3103,1.583,3.946,8.921,0.305,0.040,-0.030,1.267,-3.395,9.459,-0.116,0.082,0.027,sad
1.59,2209,3472,3301,2390,2225,0,241,0,1607,2551,0,2477,2571,1669,1572,3103,1.614,3.955,9.029,0.260,0.032,-0.034,1.338,-3.452,9.445,-0.106,0.068,0.026,sad
1.60,2256,3472,3294,2404,1658,0,70,0,1595,2505,130,2485,2586,1676,1573,3100,1.719,4.022,9.086,0.317,0.048,-0.011,1.192,-3.407,9.424,-0.055,0.107,0.039,sad
1.61,2262,3426,3270,2303,976,0,0,0,1588,2551,53,2483,2571,1671,1574,3125,1.568,3.936,9.153,0.431,0.071,0.032,1.305,-3.474,9.340,-0.099,0.140,0.092,sad
1.62,2375,3436,3245,2346,731,0,0,0,1597,2552,58,2485,2571,1671,1544,3123,1.255,3.912,8.940,0.453,0.134,0.043,1.281,-3.407,9.366,-0.092,0.139,0.082,sad
1.63,2393,3385,3094,2304,553,0,0,0,1597,2549,58,2483,2573,1671,1575,3101,1.494,4.130,8.964,0.414,0.140,0.044,1.269,-3.457,9.431,-0.066,0.115,0.052,sad
1.64,2448,3322,3159,2271,565,0,0,0,1597,2551,58,2484,2571,1671,1575,3100,1.508,4.178,8.983,0.378,0.161,0.064,1.034,-3.323,9.421,-0.109,0.153,0.090,sad
1.65,2494,3216,3091,2194,432,0,0,0,1597,2549,53,2477,2573,1672,1589,3101,1.748,4.228,9.041,0.424,0.191,0.067,1.338,-3.503,9.342,-0.133,0.177,0.121,sad
1.66,2534,3022,2992,2055,150,0,0,0,1592,2551,46,2475,2571,1673,1575,3099,1.721,4.262,8.930,0.440,0.230,0.077,1.173,-3.491,9.261,-0.092,0.146,0.086,sad
1.67,2581,2847,2889,1936,0,0,0,0,1597,2551,795,2482,2572,1673,1573,3098,1.475,4.288,9.127,0.423,0.287,0.073,1.154,-3.603,9.309,-0.057,0.104,0.062,sad
1.68,2615,2704,2747,1776,0,0,0,0,1599,2552,918,2479,2616,1673,1575,3095,1.750,4.348,9.036,0.499,0.295,0.067,1.149,-3.649,9.378,-0.031,0.091,0.040,sad
1.69,2627,2375,2432,1383,0,0,0,0,1599,2554,929,2509,2573,1673,1575,3103,1.726,4.283,8.801,0.594,0.370,0.033,1.161,-3.608,9.208,-0.019,0.024,-0.003,sad
1.70,2589,1696,2007,1270,0,0,0,0,1598,2551,1016,2479,2570,1673,1575,3101,1.487,4.195,9.354,0.737,0.414,0.003,1.243,-3.608,9.309,-0.001,0.082,-0.003,sad
1.71,2440,1055,1201,929,0,0,0,0,1599,2551,1041,2476,2543,1672,1576,3103,1.336,4.793,9.637,1.065,0.276,-0.137,1.135,-3.555,9.347,0.013,0.095,0.004,sad
1.72,1776,679,0,547,0,0,0,0,1607,2551,1057,2483,2569,1672,1577,3103,1.458,5.054,9.819,1.193,0.264,-0.291,1.058,-3.541,9.294,0.021,0.060,0.000,sad
1.73,1386,332,0,48,0,0,0,0,1605,2551,1118,2479,2570,1670,1574,3100,0.879,5.109,9.347,1.197,0.516,-0.487,1.123,-3.563,9.349,0.024,0.043,-0.002,sad
1.74,1127,85,0,0,0,0,0,0,1635,2550,1246,2484,2570,1671,1671,3103,1.587,3.132,10.690,0.741,1.109,-0.770,1.156,-3.529,9.330,0.023,0.027,-0.006,sad
1.75,469,7,0,0,0,0,0,0,1607,2550,1128,2447,2571,1672,1575,3102,3.505,2.066,10.111,0.406,1.061,-0.442,1.180,-3.567,9.357,0.027,0.046,-0.003,sad
1.76,0,0,0,0,0,0,0,0,1607,2551,1144,2487,2568,1673,1577,3101,5.423,1.283,9.345,0.101,1.029,0.303,1.178,-3.472,9.285,0.019,0.048,-0.005,sad
1.77,0,0,0,0,0,0,0,0,1607,2553,1195,2479,2569,1671,1576,3101,4.451,0.713,9.062,-0.334,0.751,1.075,1.274,-3.558,9.366,0.022,0.045,0.002,sad
1.78,0,0,0,0,0,0,0,0,1607,2548,1256,2445,2569,1670,1576,3099,3.867,1.391,9.503,-0.606,0.544,1.407,1.293,-3.582,9.421,0.033,0.008,-0.002,sad
1.79,0,0,0,0,0,0,0,0,1609,2539,1292,2479,2569,1672,1579,3101,3.855,1.788,9.213,-0.747,0.647,1.598,1.216,-3.512,9.395,0.023,-0.013,-0.005,sad
1.80,0,0,0,0,0,0,0,0,1609,2547,1297,2483,2570,1671,1577,3100,3.804,2.732,9.278,-0.852,0.633,1.737,1.267,-3.531,9.369,0.019,0.020,0.001,sad
1.81,0,0,0,0,0,0,0,0,1609,2549,1328,2478,2589,1671,1576,3100,3.912,3.651,9.548,-0.977,0.620,1.902,1.233,-3.527,9.342,0.027,0.039,0.010,sad
1.82,0,0,0,0,0,0,0,0,521,691,1748,2297,1455,58,2963,3481,4.140,4.587,9.680,-1.086,0.547,2.147,1.281,-3.527,9.246,0.011,-0.035,0.019,sad
1.83,0,0,0,0,0,0,0,0,463,733,1748,2231,1500,92,2891,3354,4.089,4.769,9.388,-1.076,0.580,2.274,1.259,-3.534,9.378,0.016,-0.036,0.019,sad
1.84,0,0,0,0,0,0,0,0,1617,2551,1369,2487,2477,1725,1577,3109,3.850,4.961,9.045,-1.036,0.614,2.389,1.216,-3.472,9.278,0.019,0.013,0.011,sad
1.85,0,0,0,0,0,0,0,0,1615,2549,1384,2485,2573,1663,1574,3100,3.888,5.126,8.825,-0.918,0.632,2.529,1.259,-3.438,9.359,0.011,0.021,0.012,sad
1.86,0,0,0,0,0,0,0,0,628,842,1860,2265,1862,63,3001,3369,3.831,5.160,8.887,-0.758,0.653,2.660,1.293,-3.488,9.263,0.009,-0.025,0.027,sad
1.87,0,0,0,0,0,0,0,0,595,939,1799,2323,1807,157,3021,3531,4.202,5.294,8.906,-0.669,0.680,2.761,1.305,-3.440,9.342,0.006,-0.013,0.026,sad
1.88,0,0,0,0,0,0,0,0,686,1014,1957,2468,2100,51,3305,3811,4.257,5.643,9.225,-0.563,0.698,2.879,1.341,-3.500,9.347,0.003,-0.018,0.028,sad
1.89,0,0,0,0,0,0,0,0,686,933,1906,2327,1999,55,3141,3413,4.302,5.590,8.909,-0.472,0.717,3.013,1.317,-3.510,9.282,-0.000,-0.014,0.026,sad
1.90,0,0,0,0,0,0,0,0,791,880,1978,2451,2157,48,3317,3727,4.439,5.523,8.193,-0.322,0.767,3.140,1.365,-3.474,9.337,-0.008,-0.003,0.031,sad
1.91,0,0,0,0,0,0,0,0,813,943,1988,2447,2227,51,3339,3759,4.369,5.337,7.233,-0.106,0.927,3.219,1.338,-3.519,9.301,-0.007,-0.008,0.034,sad
1.92,0,0,0,0,0,0,0,0,894,1053,2001,2511,2277,55,3427,3912,4.300,5.313,6.395,0.136,1.026,3.308,1.300,-3.424,9.225,-0.012,-0.017,0.026,sad
1.93,0,0,0,0,0,0,0,0,937,1121,2024,2508,2355,51,3465,3891,4.204,5.509,6.464,0.424,1.070,3.439,1.362,-3.479,9.313,0.007,0.006,0.024,sad
1.94,0,0,0,0,0,0,0,0,947,1105,1978,2420,2299,73,3327,3667,4.599,6.706,8.416,0.621,0.964,3.672,1.216,-3.505,9.278,-0.001,0.056,0.038,sad
1.95,0,0,0,0,0,0,0,0,984,1179,2039,2475,2349,45,3412,3823,5.236,7.436,8.617,0.578,1.082,3.984,2.370,-3.886,9.304,0.035,0.114,0.046,sad
1.96,0,0,0,0,0,0,0,0,1004,1172,2029,2455,2363,45,3444,3893,4.106,8.255,7.906,0.729,1.230,4.328,1.398,-3.508,9.227,0.017,0.102,0.039,sad
1.97,10,0,0,0,0,0,0,0,1017,1150,2055,2425,2340,50,3447,3801,3.716,9.155,7.319,0.706,1.397,4.457,1.214,-3.467,9.234,0.019,0.081,0.030,sad
1.98,41,0,0,0,0,0,0,0,1051,1148,2060,2359,2330,48,3448,3913,3.139,8.064,7.853,0.625,1.530,4.415,1.235,-3.515,9.330,0.023,0.062,0.031,sad
1.99,48,0,0,0,0,0,0,0,1049,1081,2080,2261,2343,13,3444,3836,1.199,7.676,8.147,0.622,1.534,4.281,1.614,-3.031,8.497,0.012,0.039,0.028,sad
2.00,100,0,0,0,0,0,0,0,1108,1209,2062,2219,2385,51,3470,3915,0.362,7.257,8.001,0.645,1.283,4.004,1.353,-3.553,9.258,0.037,0.014,0.019,sad
2.01,64,0,0,0,0,0,0,0,1039,1123,2208,2213,2517,13,3548,3967,0.426,6.891,8.878,0.582,0.696,3.365,1.425,-3.407,9.316,0.033,-0.012,0.021,sad
2.02,64,0,0,0,0,0,0,0,1075,1177,2073,2221,2537,51,3557,3959,1.451,6.594,8.102,0.230,0.483,2.463,1.899,-3.208,8.576,0.037,0.044,0.027,sad
2.03,66,0,0,0,0,0,0,0,1148,1210,2088,2239,2583,42,3544,3949,2.184,6.256,7.846,0.204,0.623,2.015,1.501,-3.249,8.935,0.006,0.011,0.033,sad
2.04,70,0,0,0,0,0,0,0,1243,1241,2101,2189,2577,51,3537,3942,3.393,6.378,7.853,0.128,0.448,1.789,0.960,-3.349,9.041,0.015,0.041,0.029,sad
2.05,43,0,0,0,0,0,0,0,1433,1166,2108,2223,2591,51,3529,3939,4.195,6.278,7.707,0.027,0.372,1.716,1.056,-3.553,9.613,0.029,0.021,0.027,sad
2.06,79,0,0,0,0,0,0,0,1461,1271,2106,2215,2602,47,3511,3935,4.096,5.638,7.116,-0.051,0.242,1.800,1.310,-3.510,9.333,0.034,0.024,0.026,sad
2.07,128,24,0,0,0,0,0,0,1646,1401,2165,2293,2611,52,3471,3924,4.276,5.816,6.393,-0.002,0.205,1.927,1.094,-3.560,9.651,0.064,0.009,0.025,sad
2.08,82,47,0,0,0,0,0,0,1737,1378,2142,2195,2604,51,3423,3897,3.596,7.618,4.401,1.108,-0.098,2.402,1.247,-3.455,9.340,0.090,0.021,0.015,sad
2.09,0,1,0,0,0,0,0,0,1653,1349,2144,2184,2585,48,3431,3893,2.351,10.515,4.774,1.430,-0.075,2.029,1.276,-3.455,9.313,0.091,0.012,0.013,sad
2.10,0,16,0,0,153,0,0,270,1726,1515,2147,2181,2509,51,3352,3868,0.869,8.090,9.263,1.146,0.716,1.350,1.386,-3.347,9.306,0.088,0.041,0.008,sad
2.11,0,26,0,0,327,0,214,941,1771,1628,2101,2253,2239,49,3248,3847,-7.728,4.077,12.984,0.517,0.944,0.039,1.317,-3.359,9.328,0.051,0.041,0.015,sad
2.12,183,123,0,0,443,0,287,1699,1813,1577,2152,2275,2105,47,3134,3829,5.100,3.862,6.634,0.071,0.594,-0.615,1.372,-3.316,9.409,0.034,0.045,0.025,sad
2.13,383,585,0,0,661,0,554,2061,1977,1613,2152,2389,1829,51,2860,3783,-0.555,4.063,11.104,-0.148,0.460,-0.513,1.372,-3.299,9.304,0.004,0.053,0.029,sad
2.14,400,967,0,0,807,0,816,2058,2215,1571,2157,2440,1477,47,2301,3708,2.447,3.326,8.674,0.100,0.484,-0.100,1.312,-3.352,9.390,-0.029,0.062,0.039,sad
2.15,432,1451,0,0,923,0,1049,2384,2317,1581,2265,2424,1389,46,2137,3671,1.724,3.639,9.713,0.115,0.524,-0.019,1.286,-3.376,9.349,-0.043,0.073,0.034,sad
2.16,469,1840,0,0,1290,0,1333,2527,2463,1455,2160,2511,1098,47,1653,3588,1.437,3.428,9.345,0.110,0.124,-0.017,1.286,-3.378,9.378,-0.066,0.067,0.033,sad
2.17,542,2156,9,0,1446,0,1610,2455,2550,1336,2180,2567,870,47,1317,3413,1.551,3.615,9.572,0.034,0.048,-0.027,1.209,-3.359,9.383,-0.071,0.074,0.044,sad
2.18,576,2250,46,0,1616,0,1926,2782,2619,1267,2183,2605,777,47,1190,3323,1.140,3.431,9.345,0.012,-0.108,-0.003,1.250,-3.443,9.287,-0.085,0.075,0.045,sad
2.19,578,2352,80,0,1821,0,2177,2877,2717,1115,2285,2711,617,55,875,3004,1.544,3.541,9.565,0.005,-0.155,0.001,1.226,-3.479,9.421,-0.101,0.101,0.048,sad
2.20,563,2393,210,0,1953,0,2327,2811,2859,1002,2190,2805,371,47,679,2620,1.774,3.158,9.117,0.025,-0.098,-0.006,1.259,-3.385,9.361,-0.153,0.088,0.057,sad
2.21,592,2391,267,0,2128,0,2481,3040,2939,969,2188,2853,249,30,503,2286,1.925,3.338,9.129,0.094,-0.071,-0.013,1.116,-3.464,9.361,-0.182,0.088,0.058,sad
2.22,665,2519,418,0,2240,0,2590,3111,2980,988,2178,2859,137,31,253,1581,1.946,3.302,9.088,0.132,-0.044,-0.047,0.481,-3.998,9.934,-0.223,0.077,0.062,sad
2.23,733,2591,698,0,2303,0,2666,2969,3033,1095,2178,2855,67,3,3,1501,1.776,3.474,9.155,0.064,-0.051,-0.059,0.101,-3.412,9.608,-0.230,0.082,0.200,sad
2.24,800,2672,931,0,2399,0,2723,3203,3097,967,2183,2863,104,4,3,1508,1.369,3.685,9.299,0.038,-0.027,-0.064,0.261,-3.847,10.003,-0.096,-0.058,0.466,sad
2.25,908,2731,1264,0,2494,0,2768,3251,3159,1007,2162,3001,18,1,0,1715,1.676,3.280,9.222,0.082,0.036,-0.059,1.271,-3.941,9.503,0.093,-0.600,1.630,sad
2.26,999,2793,1534,0,2559,0,2814,3103,1524,2350,1781,1707,2555,2135,2254,1325,1.726,3.481,9.232,0.113,0.039,-0.064,1.061,-3.529,8.914,0.236,-0.917,2.455,sad
2.27,1047,2822,1735,144,2559,0,2829,3319,1605,2555,1443,2483,2570,1673,1577,3102,1.695,3.572,9.311,0.081,0.087,-0.051,1.686,-4.901,9.167,0.421,-0.887,2.648,sad
2.28,1088,2839,1873,258,2623,0,2858,3344,1603,2552,1410,2479,2571,1671,1575,3101,1.616,3.373,9.213,0.091,0.041,-0.031,0.584,-4.034,9.096,0.292,-0.986,2.641,sad
2.29,1169,2869,1990,276,2665,0,2877,3199,1595,2554,1356,2479,2569,1675,1577,3097,1.530,3.637,9.199,0.067,0.013,-0.034,1.053,-3.697,9.084,0.300,-0.725,2.080,sad
2.30,1183,2884,2041,435,2651,0,2851,3347,1592,2555,1292,2475,2568,1673,1579,3103,1.695,3.452,9.218,0.071,0.037,-0.050,1.094,-3.718,9.558,0.265,-0.584,1.772,sad
2.31,1245,2924,1971,574,2651,0,2810,3414,1583,2556,1205,2476,2569,1674,1581,3101,1.566,3.555,9.232,0.104,0.042,-0.066,1.049,-3.622,9.184,0.256,-0.463,1.302,sad
2.32,1331,2957,2288,572,2653,0,2929,3180,1589,2555,1021,2467,2569,1672,1577,3101,1.499,3.589,9.222,0.133,0.040,-0.048,0.613,-3.728,9.357,0.334,-0.359,1.127,sad
2.33,1424,2944,2384,803,2606,0,2930,3443,1587,2553,0,2479,2571,1673,1576,3093,1.623,3.639,9.234,0.058,0.085,-0.044,0.807,-4.154,9.649,0.490,-0.359,1.194,sad
2.34,1461,2960,2437,912,2620,0,2939,3456,1584,2556,0,2482,2571,1674,1576,3103,1.614,3.630,9.210,0.072,0.065,0.011,-0.816,-3.450,9.960,0.699,-0.596,1.775,sad
2.35,1491,2979,2418,1045,2646,0,2918,3498,1583,2553,0,2489,2569,1673,1573,3107,1.602,3.500,9.268,0.000,0.026,0.011,-4.252,-4.252,9.857,0.736,-0.569,2.394,sad
2.36,1498,2959,2545,1165,2668,0,2951,3475,1566,2553,0,2483,2575,1675,1575,3103,1.499,3.546,9.335,0.032,0.055,0.035,-8.167,-5.265,10.561,0.934,-0.527,3.138,sad
2.37,1520,2961,2587,1199,2678,0,2944,3499,1575,2557,0,2473,2565,1679,1579,3098,1.633,3.555,9.244,0.026,0.078,0.024,-12.914,-5.909,12.201,1.340,-0.620,4.366,sad
2.38,1523,2971,2608,1103,2731,0,2956,3344,1580,2557,0,2479,2571,1683,1582,3099,1.547,3.570,9.273,0.008,0.064,0.008,-2.993,-5.942,8.059,1.331,-1.841,4.366,sad
2.39,1481,2746,2589,1161,2559,0,2940,3319,1583,2567,0,2580,2567,1701,1580,3099,1.484,3.560,9.290,-0.013,0.061,0.011,0.357,-5.636,7.841,1.218,-1.689,4.366,sad
2.40,1462,2768,2559,1207,2718,0,2923,3440,1572,2557,0,2473,2568,1683,1597,3099,1.468,3.515,9.263,-0.021,0.074,0.039,4.434,-5.119,7.056,0.807,-0.824,4.366,sad
2.41,1391,2885,2517,987,2738,0,2917,3344,1506,2577,0,2379,2439,1699,1595,3096,1.587,3.515,9.199,-0.054,0.068,0.034,3.302,-4.092,6.155,0.137,-0.547,3.453,sad
2.42,1277,2841,2387,963,2741,0,2879,3536,1567,2567,0,2472,2566,1687,1587,3099,1.571,3.426,9.222,-0.044,0.060,0.038,3.409,-4.326,7.503,-0.126,-0.410,2.943,sad
2.43,1168,2838,2389,857,2768,0,2905,3567,1565,2565,0,2469,2556,1683,1583,3097,1.456,3.259,9.261,-0.005,0.054,0.027,2.011,-4.130,9.134,-0.204,-0.022,2.003,sad
2.44,1118,2839,2375,656,2775,0,2919,3381,1573,2567,0,2447,2568,1685,1581,3101,1.566,3.304,9.218,0.030,0.048,-0.013,0.567,-4.460,9.541,-0.183,0.044,1.509,sad
2.45,1038,2830,2384,1039,2777,0,2901,3555,1575,2557,0,2476,2568,1683,1581,3100,1.618,3.354,9.194,0.047,0.057,-0.024,-0.876,-4.532,9.534,-0.107,-0.030,1.573,sad
2.46,1084,2837,2416,1175,2779,0,2906,3559,1579,2557,0,2477,2581,1577,1579,3107,1.513,3.361,9.242,0.068,0.047,-0.028,-1.944,-4.956,9.538,0.095,-0.206,2.230,sad
2.47,1198,2871,2480,1303,2812,0,2911,3583,1579,2557,0,2473,2569,1679,1580,3131,1.537,3.407,9.148,0.082,0.036,-0.018,-1.413,-5.152,8.820,0.193,-0.345,3.024,sad
2.48,1251,2846,2512,1431,2784,0,2903,3562,1581,2509,0,2477,2568,1678,1578,3099,1.599,3.443,9.237,0.095,0.061,-0.016,-0.685,-5.227,8.248,0.157,-0.373,3.324,sad
2.49,1314,2849,2559,1506,2778,0,2886,3568,1577,2557,0,2477,2569,1677,1579,3101,1.501,3.417,9.172,0.084,0.064,-0.001,1.765,-5.909,7.760,0.026,-0.584,3.406,sad
2.50,1360,2864,2635,1446,2785,0,2903,3408,1577,2557,0,2495,2569,1694,1579,3101,1.482,3.496,9.278,0.070,0.078,-0.011,-5.720,-0.630,13.692,-0.244,-1.708,3.107,sad
2.51,1378,2845,2625,1682,2738,0,2871,3565,1575,2557,0,2476,2567,1674,1581,2981,1.468,3.496,9.242,0.055,0.077,-0.011,7.324,-4.338,9.376,-0.011,-1.571,2.361,sad
2.52,1450,2845,2661,1745,2695,0,2878,3566,1097,63,0,22,2431,2074,2175,595,1.379,3.354,9.292,0.077,0.069,-0.022,11.705,3.460,11.073,-0.465,-1.283,0.664,sad
2.53,1530,2867,2723,1697,2658,0,2869,3381,1587,2556,0,2483,2575,1669,1575,3107,1.484,3.443,9.268,0.086,0.109,-0.036,-0.994,-2.593,10.855,-1.120,-1.059,0.062,sad
2.54,1610,2832,2728,1956,2579,0,2800,3535,1582,2555,0,2478,2569,1676,1579,3103,1.422,3.462,9.258,0.111,0.115,-0.042,1.144,-7.381,12.455,-0.533,-0.049,0.153,sad
2.55,1707,2851,2768,2073,2470,0,2727,3505,1587,2553,0,2485,2573,1611,1574,3100,1.482,3.421,9.234,0.121,0.122,-0.052,-0.486,-1.841,9.325,-0.334,-0.004,0.042,sad
2.56,1870,2868,2822,1946,2366,0,2618,3309,304,0,0,761,0,0,205,2394,1.429,3.493,9.268,0.130,0.147,-0.051,0.132,-3.749,9.474,-0.307,-0.148,0.042,sad
2.57,1999,2853,2846,2240,2304,0,2414,3380,230,0,0,887,0,0,361,2495,1.326,3.596,9.270,0.122,0.132,-0.046,0.508,-3.405,9.438,-0.213,-0.157,0.008,sad
2.58,1909,2690,2834,2294,1962,0,2073,3246,1596,2551,0,2486,2577,1669,1572,3107,1.245,3.563,9.215,0.130,0.136,-0.041,0.972,-3.519,9.426,-0.167,-0.043,0.021,sad
2.59,2219,2867,2911,2177,2021,0,2023,3031,1588,2552,2,2480,2570,1673,1575,3100,1.276,3.539,9.251,0.135,0.128,-0.048,1.015,-3.716,9.385,-0.050,0.053,0.039,sad
2.60,2259,2832,2896,2415,1768,0,1876,3118,1587,2553,0,2478,2555,1671,1575,3099,1.290,3.603,9.292,0.114,0.131,-0.057,0.917,-3.563,9.270,-0.057,0.039,0.003,sad
2.61,2307,2636,2838,2351,1494,0,1616,2797,539,1,0,1545,0,0,989,3245,1.255,3.610,9.184,0.125,0.124,-0.048,0.917,-3.685,9.421,-0.063,-0.012,0.004,sad
2.62,2401,2833,2896,2515,1402,0,1425,2919,662,0,0,1751,0,0,1046,3366,1.228,3.637,9.139,0.118,0.092,-0.053,0.953,-3.567,9.459,-0.042,0.003,0.029,sad
2.63,2431,2801,2870,2527,1253,0,1071,2771,671,1,0,1831,0,0,1041,3417,1.243,3.670,9.242,0.120,0.104,-0.052,0.804,-3.565,9.292,-0.034,0.002,0.029,sad
2.64,2469,2772,2849,2550,1113,0,661,2629,807,30,0,1914,0,0,1047,3420,1.185,3.706,9.256,0.129,0.104,-0.047,0.903,-3.608,9.352,-0.038,0.007,0.007,sad
2.65,2510,2777,2834,2361,950,0,431,2288,864,1,0,1973,45,0,1083,3493,1.164,3.701,9.158,0.146,0.110,-0.043,0.821,-3.654,9.436,-0.050,0.011,0.008,sad
2.66,2516,2719,2785,2579,849,0,228,2261,1085,0,1205,2098,55,3,1116,3497,1.207,3.680,9.184,0.136,0.124,-0.050,0.874,-3.663,9.306,-0.039,0.016,0.012,sad
2.67,2526,2685,2747,2606,794,0,208,1962,1093,3,1507,2237,29,1,1177,3611,1.097,3.725,9.220,0.126,0.122,-0.065,0.857,-3.649,9.304,-0.004,0.018,0.020,sad
2.68,2539,2650,2723,2369,599,0,99,1456,1269,77,1489,2346,109,18,1334,3623,1.085,3.687,9.105,0.127,0.102,-0.055,0.927,-3.639,9.402,0.005,0.045,0.023,sad
2.69,2527,2608,2671,2595,415,0,0,1254,1391,135,1607,2367,111,25,1335,3642,0.936,3.783,9.428,0.187,0.101,-0.031,0.883,-3.757,9.474,-0.003,0.048,0.001,sad
2.70,2520,2559,2644,2559,242,0,0,854,1641,229,1707,2550,174,37,1555,3665,1.247,3.821,9.184,0.168,0.127,-0.037,1.027,-3.675,9.352,-0.027,0.001,-0.008,sad
2.71,2475,2515,2622,2287,15,0,0,448,1708,397,1799,2615,233,45,1837,3695,1.130,3.874,9.124,0.171,0.163,-0.036,0.927,-3.591,9.337,-0.001,-0.003,0.000,sad
2.72,2427,2410,2559,2442,0,0,0,0,1703,443,1896,2653,319,47,1896,3699,1.123,3.876,9.184,0.181,0.152,-0.025,0.917,-3.639,9.321,-0.001,-0.005,0.000,sad
2.73,2407,2274,2519,2362,0,0,0,0,1783,415,1911,2696,395,53,2069,3709,0.883,3.919,9.067,0.169,0.146,-0.031,0.931,-3.601,9.306,0.002,-0.031,-0.006,sad
2.74,2403,2107,2461,2067,0,0,0,0,1883,341,1942,2743,563,47,2235,3729,0.895,3.960,9.191,0.152,0.160,-0.029,0.958,-3.644,9.306,0.007,-0.037,-0.007,sad
2.75,2350,1910,2366,2177,0,0,0,0,1949,381,1957,2760,623,53,2280,3709,0.989,3.941,9.100,0.164,0.213,-0.025,0.996,-3.687,9.440,0.013,-0.036,-0.010,sad
2.76,2304,1650,2255,2139,0,0,0,0,1607,2549,1353,2483,2573,1671,1577,3101,1.070,4.063,9.191,0.126,0.228,-0.029,1.020,-3.567,9.335,0.017,0.019,-0.018,sad
2.77,2307,1243,2070,1900,0,0,0,0,1865,735,1978,2731,875,45,2495,3622,0.675,4.111,9.098,0.103,0.254,-0.038,1.013,-3.563,9.222,0.017,-0.054,-0.009,sad
2.78,2234,876,1647,2035,0,0,0,0,1816,762,1986,2728,871,46,2570,3609,0.802,4.063,9.122,0.096,0.335,-0.045,1.118,-3.594,9.199,0.017,-0.089,-0.016,sad
2.79,2171,483,1037,1889,0,0,0,0,1507,829,2032,2766,1109,51,2751,3727,0.785,4.152,9.220,0.052,0.439,-0.061,1.142,-3.591,9.369,0.028,-0.161,-0.042,sad
2.80,1781,86,442,1402,0,0,0,0,1208,959,2101,2712,1191,48,2844,3743,1.180,4.243,9.407,-0.013,0.543,-0.072,1.135,-3.675,9.342,0.047,-0.146,-0.050,sad
2.81,1648,0,131,1161,0,0,0,0,877,1131,2039,2661,1545,47,2955,3787,1.432,4.264,9.548,-0.042,0.755,-0.118,1.142,-3.587,9.311,0.067,-0.099,-0.054,sad
2.82,1299,0,0,841,0,0,0,0,696,1245,2055,2632,1801,37,3099,3833,1.279,4.056,9.110,-0.037,0.890,-0.246,1.168,-3.541,9.357,0.074,-0.048,-0.030,sad
2.83,976,0,0,304,0,0,0,0,568,1292,2055,2556,1875,51,3192,3859,2.784,5.602,10.254,-0.149,1.237,-0.415,1.228,-3.591,9.254,0.066,-0.025,-0.023,sad
2.84,402,0,0,0,0,0,0,0,489,1271,2029,2518,1938,48,3239,3869,2.322,5.476,10.180,-0.663,2.489,-0.262,1.070,-3.500,9.357,0.066,-0.029,-0.019,sad
2.85,171,0,0,0,0,0,0,0,463,1187,2060,2475,2054,33,3263,3859,7.005,4.839,6.847,-0.488,2.357,0.889,1.166,-3.508,9.333,0.071,-0.011,-0.024,sad
2.86,0,0,0,0,0,0,0,0,343,1145,2055,2427,2125,51,3355,3915,10.987,9.215,9.486,-0.242,1.169,3.817,1.168,-3.476,9.359,0.092,-0.007,-0.031,sad
2.87,0,0,0,0,0,0,0,0,218,1096,2062,2454,2087,43,3385,3919,1.846,6.778,7.556,-0.163,1.245,5.058,1.135,-3.474,9.345,0.098,-0.005,-0.038,sad
2.88,0,0,0,0,0,0,0,0,91,1163,2060,2296,2063,57,3431,3942,-0.515,4.894,7.266,0.372,1.324,4.999,1.255,-3.431,9.373,0.101,0.005,-0.039,sad
2.89,0,0,0,0,0,0,0,0,148,1159,2065,2251,2035,37,3413,3945,-2.301,4.221,8.286,0.476,1.102,4.632,1.250,-3.395,9.366,0.095,0.005,-0.043,sad
2.90,0,0,0,0,0,0,0,0,115,1133,2060,2238,2011,30,3444,3947,-2.780,4.073,9.677,0.343,1.065,4.206,1.183,-3.383,9.330,0.089,0.001,-0.038,sad
2.91,0,0,0,0,0,0,0,0,141,1167,2060,2224,1991,20,3449,3956,-3.960,3.486,9.708,0.241,0.891,3.661,1.192,-3.438,9.412,0.092,0.002,-0.034,sad
2.92,0,0,0,0,0,0,0,0,127,1161,2065,2145,2021,33,3469,3955,-5.167,2.492,9.845,0.207,0.613,2.994,1.245,-3.424,9.357,0.098,0.003,-0.031,sad
2.93,0,0,0,0,0,0,0,0,71,1098,2044,2069,1983,61,3491,3959,-4.738,2.011,10.400,0.114,0.370,2.175,1.252,-3.431,9.421,0.106,0.008,-0.033,sad
2.94,0,0,0,0,0,0,0,0,121,983,2037,1983,1973,33,3484,3961,-3.656,2.090,11.138,-0.097,0.178,1.316,1.286,-3.259,9.215,0.100,0.012,-0.026,sad
2.95,0,0,0,0,0,0,0,0,107,767,2042,1800,1963,37,3588,3956,-1.142,1.879,10.214,-0.531,-0.038,0.328,1.269,-3.278,9.440,0.096,0.018,-0.016,sad
2.96,0,0,0,0,0,0,0,0,103,715,1942,1643,1866,27,3405,3832,0.838,1.798,9.225,-0.567,-0.163,0.108,1.247,-3.242,9.345,0.083,0.011,-0.009,sad
2.97,0,0,0,0,0,0,0,0,110,831,2039,1623,1942,24,3517,3977,1.604,2.523,9.929,-0.570,-0.175,0.151,1.240,-3.249,9.349,0.053,-0.001,0.003,sad
2.98,0,0,0,0,0,0,0,0,105,787,1991,1587,1929,23,3466,3973,2.234,2.552,10.185,-0.616,-0.266,0.380,1.219,-3.278,9.409,0.036,-0.009,0.007,sad
2.99,0,0,0,0,0,0,0,0,77,959,1998,1625,2107,22,3468,3821,2.667,2.890,10.025,-0.723,-0.287,0.780,1.331,-3.309,9.388,0.023,-0.005,0.012,sad
3.00,0,0,0,0,0,0,0,0,47,1019,1922,1575,2067,25,3303,3669,2.298,3.057,9.965,-0.723,-0.237,0.999,1.314,-3.261,9.290,0.016,-0.003,0.013,sad
3.01,0,0,0,0,0,0,0,0,133,1031,1870,1550,2063,21,3193,3493,2.143,3.122,9.996,-0.736,-0.274,1.219,1.362,-3.237,9.249,0.007,-0.001,0.017,sad
3.02,0,0,0,0,0,0,0,0,83,1145,1932,1621,2154,23,3307,3723,1.276,3.244,9.998,-0.715,-0.296,1.465,1.319,-3.302,9.369,0.003,-0.000,0.022,sad
3.03,0,0,0,0,0,0,0,0,61,1229,2034,1749,2362,36,3533,3831,0.857,3.184,9.718,-0.682,-0.319,1.539,1.267,-3.342,9.471,0.006,-0.002,0.020,sad
3.04,0,0,0,0,0,0,0,0,61,1318,2044,1868,2408,19,3544,3927,0.311,2.988,9.318,-0.607,-0.255,1.535,1.329,-3.361,9.383,0.005,-0.001,0.020,sad
3.05,0,0,0,0,0,0,0,0,71,1227,2011,1725,2387,21,3443,3751,-0.290,3.005,9.151,-0.481,-0.234,1.486,1.310,-3.270,9.385,0.002,-0.003,0.022,sad
3.06,0,0,0,0,0,0,0,0,71,1245,2003,1709,2421,21,3389,3629,-0.788,3.838,10.582,-0.358,-0.263,1.319,1.360,-3.203,9.337,-0.011,-0.014,0.028,sad
3.07,0,0,0,0,0,0,0,0,1619,2548,1399,2485,2587,1671,1575,3089,-0.972,3.711,10.111,-0.412,-0.311,1.102,1.427,-3.304,9.364,-0.041,0.031,0.033,sad
3.08,0,0,0,0,0,0,0,0,1619,2552,1415,2487,2580,1671,1577,3109,-0.718,4.214,9.967,-0.351,-0.328,0.831,1.279,-3.259,9.414,-0.042,0.033,0.026,sad
3.09,0,0,0,0,0,0,0,0,1623,2549,1412,2488,2577,1659,1577,3103,-0.067,4.403,9.728,-0.432,-0.176,0.574,1.331,-3.335,9.309,-0.052,0.032,0.024,sad
3.10,0,0,0,0,0,0,0,0,213,1495,2070,1983,2837,45,3640,3901,0.211,4.465,9.467,-0.389,-0.097,0.455,1.360,-3.357,9.390,-0.057,-0.024,0.037,sad
3.11,0,0,0,0,0,0,0,0,223,1653,2062,2015,2927,46,3539,3830,0.991,4.463,9.455,-0.358,-0.157,0.469,1.408,-3.383,9.335,-0.061,-0.012,0.044,sad
3.12,0,0,0,0,0,0,0,0,264,1701,2055,1991,2861,53,3578,3861,1.717,4.195,9.172,-0.372,0.002,0.587,1.384,-3.431,9.388,-0.046,-0.008,0.043,sad
3.13,0,0,0,0,0,0,0,0,279,1861,2101,2094,2955,50,3578,3765,0.943,3.845,9.005,-0.363,0.073,0.696,1.353,-3.481,9.359,-0.028,0.000,0.047,sad
3.14,0,0,0,0,0,0,0,0,295,1867,2116,2146,2990,47,3603,3774,0.524,3.706,8.933,-0.360,0.051,0.672,1.384,-3.357,9.335,-0.032,0.005,0.046,sad
3.15,0,0,0,0,0,0,0,0,327,1947,2157,2153,3007,47,3497,3783,0.206,3.503,8.952,-0.356,0.047,0.598,1.408,-3.421,9.347,-0.043,0.009,0.044,sad
3.16,0,0,0,0,0,0,0,0,363,2009,2157,2169,3027,51,3636,3759,-0.127,3.452,9.021,-0.357,0.040,0.469,1.391,-3.400,9.414,-0.025,0.015,0.039,sad
3.17,0,0,0,0,0,0,0,0,439,2103,2162,2214,3064,45,3595,3739,-0.072,3.503,9.134,-0.412,-0.045,0.211,1.403,-3.462,9.304,-0.020,0.020,0.042,sad
3.18,0,0,0,0,0,0,0,0,508,2109,2167,2212,3087,51,3612,3748,-0.302,3.733,9.153,-0.507,-0.060,-0.058,1.367,-3.467,9.333,-0.011,0.024,0.037,sad
3.19,0,0,0,0,0,0,0,0,647,2163,2183,2301,3116,51,3621,3730,-0.505,3.745,7.920,-0.471,-0.153,-0.344,1.358,-3.385,9.270,-0.017,0.017,0.036,sad
3.20,0,0,0,0,0,0,0,0,793,2236,2188,2332,3126,51,3603,3709,0.017,4.288,7.465,-0.338,-0.238,-0.561,1.346,-3.503,9.366,-0.012,0.030,0.034,sad
3.21,0,0,0,0,0,0,0,0,780,2235,2229,2296,3103,51,3619,3695,0.124,4.673,6.828,-0.110,-0.177,-0.696,1.331,-3.484,9.402,-0.004,0.034,0.036,sad
3.22,0,0,0,0,0,0,0,0,885,2294,2198,2264,3117,51,3611,3691,0.443,3.548,8.049,0.131,1.099,-0.686,1.384,-3.402,9.294,0.008,0.041,0.031,sad
3.23,0,0,0,0,0,0,0,0,957,2283,2203,2335,3155,48,3605,3699,0.002,0.941,11.712,0.233,0.493,-0.421,1.384,-3.450,9.388,0.004,0.040,0.034,sad
3.24,0,0,0,0,0,0,0,0,985,2263,2203,2339,3127,0,3527,3691,1.188,0.785,10.343,0.232,0.455,-0.432,1.386,-3.450,9.397,-0.003,0.037,0.034,sad
3.25,0,0,0,0,0,0,0,0,957,2255,2208,2375,3163,57,3593,3695,0.029,-0.366,10.444,0.313,0.241,-0.418,1.379,-3.491,9.325,-0.005,0.043,0.031,sad
3.26,0,0,0,0,0,0,0,0,1277,2365,2229,2415,3165,51,3571,3688,0.670,1.295,8.981,0.609,0.109,-0.377,1.358,-3.469,9.414,-0.003,0.048,0.030,sad
3.27,0,0,0,0,0,0,0,423,1321,2333,2224,2488,3163,48,3544,3687,1.209,2.500,10.779,0.613,-0.169,-0.327,1.338,-3.460,9.347,-0.007,0.043,0.032,sad
3.28,0,0,0,0,0,0,0,861,1436,2361,2234,2557,3159,56,3507,3665,2.545,2.337,10.113,0.688,-0.333,-0.233,1.369,-3.436,9.294,-0.007,0.054,0.034,sad
3.29,0,0,0,0,0,0,0,1159,1561,2385,2234,2601,3111,107,3387,3640,3.266,2.751,9.852,0.712,-0.408,-0.094,1.331,-3.486,9.301,-0.017,0.048,0.034,sad
3.30,0,0,0,0,0,0,115,1677,1623,2357,2234,2652,3089,51,3324,3624,2.363,2.586,9.414,0.609,-0.250,0.023,1.286,-3.462,9.299,-0.018,0.052,0.030,sad
3.31,0,0,0,0,0,0,310,1978,1784,2407,2234,2698,3017,137,3133,3576,1.506,2.507,9.687,0.642,-0.136,-0.050,1.302,-3.412,9.342,-0.033,0.045,0.036,sad
3.32,0,0,0,0,16,0,427,2053,2102,2423,2239,2654,2922,47,2741,3507,1.705,2.875,9.742,0.634,-0.193,-0.046,1.326,-3.488,9.323,-0.051,0.046,0.035,sad
3.33,0,0,0,0,226,0,686,2441,2169,2445,2239,2687,2827,47,2479,3455,1.939,2.550,9.002,0.607,-0.266,0.047,1.348,-3.515,9.304,-0.051,0.050,0.036,sad
3.34,0,0,0,0,349,0,848,2623,2399,2441,2236,2703,2477,51,2125,3317,1.554,3.747,11.270,0.562,0.151,-0.256,1.288,-3.481,9.290,-0.065,0.053,0.042,sad
3.35,0,0,0,0,707,0,1168,2591,2520,2475,2244,2771,2075,47,1831,3089,1.920,2.775,9.237,0.342,0.151,-0.173,1.324,-3.496,9.273,-0.086,0.058,0.044,sad
3.36,0,507,0,0,658,0,1474,2813,2589,2485,2244,2813,1887,48,1444,2917,1.451,2.851,9.120,0.289,0.193,-0.186,1.293,-3.582,9.424,-0.099,0.056,0.043,sad
3.37,0,880,0,0,983,0,1739,3009,2681,2455,2242,2841,1541,45,1063,2475,1.817,3.122,9.318,0.218,0.295,-0.184,1.279,-3.484,9.364,-0.106,0.047,0.042,sad
3.38,0,1393,0,0,1184,0,1885,2971,2791,2365,2231,2869,1268,46,693,1884,0.520,3.230,10.506,0.274,0.196,-0.133,1.300,-3.610,9.297,-0.121,0.056,0.043,sad
3.39,50,1716,0,0,1331,0,1985,3183,2662,2173,1916,2703,931,20,467,1444,1.774,3.488,9.732,0.158,0.116,-0.100,1.374,-3.797,9.273,-0.136,0.057,0.042,sad
3.40,167,1879,176,0,1478,0,2047,3248,2943,2229,2236,2956,749,43,332,1081,1.628,3.405,9.507,0.092,0.075,-0.062,1.858,-1.788,8.389,-0.149,0.166,0.043,sad
3.41,268,1975,458,10,1511,0,2174,3144,1604,2557,1535,2479,2573,1679,1619,3103,1.614,3.287,9.325,0.112,0.114,-0.048,1.269,-3.524,9.263,-0.379,0.175,-0.084,sad
3.42,398,2110,699,352,1527,0,2207,3315,3087,1917,2185,3059,371,9,25,1112,1.616,3.211,9.395,0.079,0.093,-0.050,1.061,-3.510,9.249,-0.342,0.160,-0.048,sad
3.43,503,2215,1009,528,1691,0,2251,3339,3133,1768,2152,3037,104,11,0,857,1.480,3.203,9.335,0.101,0.103,-0.062,1.113,-3.895,9.266,-0.392,0.173,-0.090,sad
3.44,576,2286,1343,531,1758,0,2301,3190,1621,2556,1538,2477,2565,1685,1579,3101,1.496,3.187,9.321,0.152,0.093,-0.077,1.286,-3.893,9.103,-0.489,0.244,-0.104,sad
3.45,665,2400,1495,816,1874,0,2256,3382,1635,2551,1563,2467,2571,1670,1575,3103,1.458,3.393,9.388,0.168,0.059,-0.071,1.132,-3.953,9.177,-0.525,0.286,-0.117,sad
3.46,733,2462,1862,1036,1937,0,2400,3381,1619,2553,1533,2484,2570,1671,1576,3102,1.453,3.194,9.443,0.210,0.080,-0.062,1.087,-4.329,9.373,-0.572,0.335,-0.150,sad
3.47,870,2590,2027,1050,1995,0,2446,3232,1615,2552,1548,2483,2571,1671,1575,3107,1.417,3.275,9.357,0.207,0.024,-0.067,1.310,-4.353,9.352,-0.680,0.334,-0.167,sad
3.48,954,2629,2218,1379,2096,0,2463,3415,1623,2552,1553,2539,2572,1641,1575,3102,1.367,3.409,9.203,0.205,-0.007,-0.061,1.262,-4.204,9.031,-0.756,0.378,-0.174,sad
3.49,1097,2554,2343,1439,2098,0,2509,3190,1614,2601,1538,2483,2571,1669,1575,3101,1.401,3.508,9.273,0.176,-0.009,-0.050,1.379,-4.322,9.081,-0.936,0.516,-0.159,sad
3.50,1187,2769,2480,1799,2258,0,2559,3440,1610,2550,1484,2483,2577,1670,1575,3103,1.482,3.488,9.270,0.156,-0.030,-0.023,1.326,-4.444,9.239,-1.224,0.668,-0.040,sad
3.51,1280,2824,2624,1936,2395,0,2624,3450,1565,2552,1338,2476,2575,1668,1573,3101,1.530,3.610,9.275,0.123,-0.042,0.002,1.132,-4.432,9.151,-1.432,0.699,0.072,sad
3.52,1375,2885,2713,2045,2432,0,2679,3461,1597,2549,135,2483,2573,1741,1571,3102,1.460,3.572,9.273,0.097,-0.029,0.012,0.685,-4.939,10.336,-1.828,0.645,0.467,sad
3.53,1426,2921,2791,1914,2557,0,2741,3273,1597,2551,84,2484,2575,1669,1567,3103,1.499,3.438,9.201,0.086,-0.035,0.008,1.314,-5.816,10.647,-2.019,0.482,1.193,sad
3.54,1488,3001,2867,2191,2609,0,2807,3482,1597,2551,0,2487,2573,1663,1571,3103,1.535,3.529,9.227,0.098,-0.018,-0.001,1.176,-6.129,9.689,-2.246,0.311,1.457,sad
3.55,1504,2995,2892,2256,2559,0,2801,3425,1657,2549,0,2485,2577,1689,1568,3103,1.583,3.610,9.218,0.072,-0.020,0.006,0.318,-6.302,9.036,-2.039,0.323,1.937,sad
3.56,1598,3093,2997,2116,2746,0,2882,3334,1592,2550,0,2487,2577,1671,1573,3127,1.609,3.460,9.203,0.084,-0.022,0.004,0.345,-5.564,11.777,-0.969,0.424,2.287,sad
3.57,1647,3023,3039,2184,2805,0,2897,3327,1591,2552,0,2483,2580,1707,1571,3112,1.650,3.536,9.278,0.101,-0.013,0.002,1.650,-2.528,11.648,-0.156,0.466,2.499,sad
3.58,1703,3151,3099,2432,2864,0,2907,3493,1589,2553,0,2483,2575,1673,1573,3103,1.575,3.488,9.167,0.108,-0.013,0.003,4.271,-0.050,11.088,0.898,0.066,1.363,sad
3.59,1763,3202,3151,2265,2913,0,2914,3322,1592,2555,0,2475,2601,1677,1583,3101,1.573,3.560,9.220,0.117,-0.011,0.005,3.946,-0.651,8.777,1.214,-0.171,0.563,sad
3.60,1819,3230,3170,2527,2947,0,2907,3445,1589,2553,0,2483,2603,1673,1573,3098,1.578,3.567,9.153,0.105,-0.005,-0.002,3.405,-0.996,9.170,1.393,-0.328,0.200,sad
3.61,1877,3252,3200,2559,2965,0,2897,3425,1587,2553,0,2473,2571,1673,1609,3103,1.539,3.634,9.155,0.100,-0.001,0.000,1.671,-1.286,9.582,1.783,-0.749,-0.224,sad
3.62,1949,3301,3264,2409,3013,0,2905,3244,1587,2553,0,2488,2572,1674,1575,3157,1.635,3.555,9.239,0.095,-0.002,0.006,0.730,-1.695,10.020,2.036,-0.978,-0.296,sad
3.63,1963,3267,3190,2585,2960,0,2819,3293,1589,2555,0,2483,2579,1673,1575,3099,1.609,3.673,9.189,0.081,0.002,0.000,0.613,-2.011,10.329,2.162,-1.066,-0.327,sad
3.64,2022,3338,3302,2672,3056,0,2864,3327,1591,2551,0,2485,2573,1671,1565,3103,1.602,3.675,9.141,0.069,0.004,0.004,0.414,-2.717,10.520,2.256,-1.254,-0.475,sad
3.65,2093,3373,3342,2479,3091,0,2880,3158,1591,2551,0,2487,2579,1673,1575,3101,1.642,3.613,9.165,0.068,0.006,0.004,0.184,-3.177,11.183,2.220,-1.375,-0.633,sad
3.66,2118,3389,3344,2735,3094,0,2854,3282,1517,2552,0,2485,2578,1673,1581,3099,1.626,3.615,9.218,0.071,0.006,0.003,-0.017,-3.062,10.970,2.183,-1.308,-0.664,sad
3.67,2159,3413,3373,2752,3129,102,2837,3249,1589,2552,0,2484,2575,1672,1575,3103,1.659,3.673,9.227,0.071,0.015,-0.002,-0.876,-2.849,10.343,1.807,-0.987,-0.519,sad
3.68,2218,3446,3406,2588,3184,337,2841,3039,1588,2554,0,2479,2551,1673,1574,3110,1.633,3.615,9.120,0.062,0.016,-0.003,-0.424,-4.044,10.997,1.137,-1.276,-0.438,sad
3.69,2255,3443,3379,2806,3159,628,2800,3174,1591,2553,12,2485,2573,1673,1573,3101,1.635,3.632,9.129,0.076,0.022,-0.007,0.383,-4.994,11.150,0.817,-1.360,-0.493,sad
3.70,2301,3465,3423,2779,3167,851,2775,3120,0,0,0,0,0,0,0,27,1.628,3.606,9.108,0.064,-0.001,-0.012,0.797,-8.466,14.068,0.572,-1.342,-0.717,sad
3.71,2350,3474,3439,2611,3173,1009,2752,2896,1589,2555,0,2485,2579,1676,1575,3103,1.671,3.546,9.079,0.084,0.021,-0.029,0.124,-12.383,12.950,1.288,-0.795,-1.015,sad
3.72,2404,3479,3462,2879,3180,1098,2717,2992,0,0,197,0,0,0,0,17,1.607,3.610,9.167,0.079,0.021,-0.026,-1.640,-12.091,10.137,1.594,-0.909,-1.178,sad
3.73,2453,3477,3461,2903,3166,1052,2636,2882,0,0,0,0,0,0,0,31,1.671,3.666,9.076,0.110,0.012,-0.019,-3.651,-11.198,2.330,0.974,-0.874,-1.298,sad
3.74,2542,3515,3500,2736,3178,1023,2559,2511,0,0,0,0,0,0,0,5,1.640,3.627,9.189,0.123,0.019,-0.029,-3.503,-12.740,-0.840,-0.368,-0.056,-1.276,sad
3.75,2608,3491,3495,2983,3135,784,2428,2323,0,0,0,0,0,0,0,0,1.729,3.728,9.165,0.136,0.038,-0.045,-3.369,-13.115,-0.426,-1.102,0.543,-1.244,sad
3.76,2606,3463,3519,2926,3010,161,2205,1705,0,0,0,0,0,0,0,44,1.712,3.668,9.050,0.160,0.055,-0.042,3.936,-3.361,17.068,-0.514,1.155,-1.432,sad
3.77,2739,3541,3546,2861,3036,0,1839,880,1592,2567,0,2479,2575,1685,1583,3101,1.748,3.737,9.084,0.196,0.078,-0.052,-4.575,2.069,7.429,-0.946,0.153,-0.498,sad
3.78,2791,3551,3539,3113,2913,0,1257,590,0,0,0,0,0,0,0,617,1.640,3.809,9.105,0.218,0.094,-0.050,-6.371,-2.832,12.706,-1.140,0.121,0.113,sad
3.79,2833,3519,3552,3056,2718,0,752,0,1583,2554,0,2479,2571,1675,1577,3099,1.695,3.859,8.976,0.278,0.082,-0.040,0.634,-1.379,8.959,-1.059,-0.361,0.205,sad
3.80,2861,3602,3582,2966,2345,0,369,0,0,0,2,0,0,0,716,2141,1.537,4.041,9.072,0.283,0.091,-0.048,2.255,-3.685,10.240,-1.042,-0.875,-0.065,sad
3.81,2847,3583,3580,3174,1881,0,31,0,1572,2589,0,2623,2639,1815,1631,3119,1.243,3.531,9.256,0.237,0.073,-0.139,2.787,-3.259,9.500,-0.998,-0.683,0.003,sad
3.82,2800,3573,3574,3071,1201,0,0,0,0,0,0,0,0,0,1087,2648,1.420,4.262,9.273,0.496,0.136,0.019,4.705,-1.774,6.740,-0.201,0.719,0.337,sad
3.83,2747,3552,3570,3105,1066,0,0,0,1572,2571,0,2471,2557,1655,1589,3096,1.508,3.917,9.038,0.530,0.201,0.039,0.871,-3.886,11.325,-0.165,0.715,0.337,sad
3.84,2671,3525,3569,2787,628,0,0,0,1580,2557,0,2410,2567,1683,1582,3097,1.532,4.166,8.973,0.569,0.219,0.089,1.530,-3.182,10.089,-0.142,0.440,0.194,sad
3.85,2590,3436,3492,2853,749,0,0,0,0,0,0,7,48,0,1772,3125,1.607,4.269,9.079,0.597,0.247,0.119,1.494,-2.921,9.505,-0.129,0.310,0.184,sad
3.86,2686,3446,3538,2841,530,0,0,0,18,2,30,4,143,11,1855,3107,1.532,4.362,8.933,0.597,0.238,0.129,2.054,-3.153,9.570,-0.104,0.304,0.183,sad
3.87,2653,3322,3508,2750,438,0,0,0,0,6,0,1,447,0,2172,3513,1.642,4.413,8.902,0.610,0.231,0.136,1.939,-3.259,9.759,0.012,0.422,0.228,sad
3.88,2644,3228,3500,2704,413,0,0,0,1581,2556,0,2475,2567,1677,1555,3143,1.585,4.439,8.665,0.596,0.236,0.107,1.372,-2.940,9.900,-0.081,0.407,0.173,sad
3.89,2614,3035,3475,2393,139,0,0,0,1577,2559,2,2472,2556,1685,1591,3099,1.417,4.652,8.746,0.570,0.240,0.058,1.396,-2.964,9.618,-0.120,0.215,0.077,sad
3.90,2539,2827,3409,2464,0,0,0,0,4,254,58,25,615,0,2515,3447,1.393,4.776,8.624,0.569,0.230,0.047,1.568,-3.081,9.594,-0.096,0.160,0.074,sad
3.91,2482,2624,3355,2383,0,0,0,0,0,359,0,101,799,0,2581,3363,1.372,4.808,8.672,0.589,0.252,0.061,1.657,-3.055,9.402,-0.028,0.206,0.073,sad
3.92,2394,2423,3207,2219,0,0,0,0,7,365,0,222,885,0,2780,3543,1.774,5.085,8.787,0.677,0.279,0.049,1.535,-3.153,9.582,-0.052,0.186,0.080,sad
3.93,2402,2285,3033,2193,0,0,0,0,17,430,0,331,1086,0,2794,3577,1.626,5.059,8.636,0.692,0.407,-0.042,1.542,-2.964,9.400,-0.067,0.167,0.082,sad
3.94,2384,2085,2749,2082,0,0,0,0,123,456,12,455,1151,3,2859,3561,1.551,5.140,8.602,0.846,0.383,-0.109,1.111,-2.780,9.627,-0.140,0.171,0.134,sad
3.95,2406,1859,2523,2000,0,0,0,0,106,400,99,628,1079,37,2685,3364,1.104,5.229,8.507,1.006,0.319,-0.255,1.408,-3.182,9.407,-0.161,0.171,0.175,sad
3.96,2363,1415,2126,1878,0,0,0,0,1447,2680,89,2659,2730,2087,2335,890,1.149,5.368,8.435,1.249,0.082,-0.498,1.472,-3.168,9.419,-0.155,0.155,0.162,sad
3.97,2338,1218,1597,1744,0,0,0,0,189,416,74,1003,1259,6,3113,3879,1.365,5.559,8.610,1.445,-0.023,-0.702,1.365,-3.314,9.462,-0.118,0.121,0.139,sad
3.98,2119,896,962,1595,0,0,0,0,1606,2551,58,2471,2571,1677,1577,3092,1.341,6.244,9.191,1.645,0.072,-0.972,1.367,-3.340,9.364,-0.086,0.195,0.122,sad
3.99,1808,603,288,1107,0,0,0,0,1562,2550,63,2479,2568,1678,1576,3101,1.633,6.888,9.498,2.079,-0.052,-1.282,1.238,-3.237,9.292,-0.078,0.242,0.132,sad
4.00,1574,346,0,545,0,0,0,0,1599,2552,58,2479,2569,1674,1577,2967,1.602,7.037,8.507,2.263,0.013,-1.699,1.302,-3.431,9.479,-0.039,0.229,0.121,sad
4.01,1023,25,0,33,0,0,0,0,1609,2551,61,2484,2643,1755,1572,3101,0.208,7.671,7.614,1.910,0.206,-1.780,1.262,-3.400,9.309,-0.050,0.145,0.080,sad
4.02,447,0,0,0,0,0,0,0,1607,2549,890,2483,2567,1677,1576,3102,1.041,6.404,7.951,1.226,0.378,-1.974,1.207,-3.414,9.373,-0.038,0.135,0.062,sad
4.03,1,0,0,0,0,0,0,0,327,644,1471,1691,1245,51,3162,3775,4.290,3.153,10.204,0.052,0.050,-1.689,1.166,-3.369,9.361,0.000,0.035,0.037,sad
4.04,0,0,0,0,0,0,0,0,333,597,1379,1717,1311,74,3127,3709,6.500,1.640,9.127,-0.271,0.177,-1.197,1.221,-3.364,9.373,0.003,0.014,0.030,sad
4.05,0,0,0,0,0,0,0,0,327,518,1392,1625,1309,69,2927,3439,5.265,2.121,9.859,-0.652,-0.131,-0.335,1.290,-3.268,9.306,0.005,0.029,0.027,sad
4.06,0,0,0,0,0,0,0,0,332,617,1369,1755,1417,103,3103,3769,4.056,1.654,9.115,-0.984,-0.109,0.158,1.233,-3.294,9.287,-0.018,0.028,0.038,sad
4.07,0,0,0,0,0,0,0,0,1611,2551,1133,2479,2664,1671,1576,3101,1.884,1.966,9.606,-1.429,-0.370,0.596,1.185,-3.354,9.366,-0.026,0.110,0.043,sad
4.08,0,0,0,0,0,0,0,0,1611,2551,1205,2477,2571,1671,1577,3097,1.219,2.423,9.881,-1.893,-0.554,0.748,1.178,-3.345,9.392,-0.021,0.098,0.037,sad
4.09,0,0,0,0,0,0,0,0,493,781,1888,2038,1691,51,3339,3921,0.654,2.624,9.342,-2.100,-0.544,0.625,1.209,-3.378,9.318,-0.027,0.002,0.046,sad
4.10,0,0,0,0,0,0,0,0,484,745,1835,1909,1631,55,3059,3491,0.153,2.861,9.553,-2.171,-0.687,0.656,1.166,-3.316,9.347,-0.028,0.010,0.043,sad
4.11,0,0,0,0,0,0,0,0,555,841,1955,2136,1836,47,3423,4040,0.230,3.412,10.056,-2.218,-0.792,0.619,1.097,-3.275,9.330,-0.037,0.008,0.042,sad
4.12,0,0,0,0,0,0,0,0,610,985,1893,2155,1874,16,3352,3915,0.199,3.912,10.276,-2.419,-0.824,0.500,1.223,-3.450,9.376,-0.017,0.023,0.047,sad
4.13,0,0,0,0,0,0,0,0,599,1103,2032,2287,1949,51,3455,4031,0.836,4.202,10.025,-2.357,-0.742,0.493,1.190,-3.340,9.385,-0.010,0.018,0.043,sad
4.14,0,0,0,0,0,0,0,0,615,1127,2060,2254,2039,77,3485,4055,1.719,4.982,10.783,-2.186,-0.721,0.730,1.216,-3.376,9.352,-0.002,0.010,0.032,sad
4.15,0,0,0,0,0,0,0,0,605,1117,1947,2171,2029,47,3308,3799,2.354,4.860,9.713,-2.034,-0.403,0.967,1.180,-3.445,9.452,0.019,0.031,0.028,sad
4.16,0,0,0,0,0,0,0,0,649,1149,2029,2302,2103,71,3405,3925,1.954,4.875,9.574,-1.836,-0.171,1.063,1.164,-3.433,9.450,0.032,0.037,0.021,sad
4.17,0,0,0,0,0,0,0,0,651,1215,2034,2270,2103,51,3372,3867,1.381,5.133,10.051,-1.604,-0.141,1.170,1.202,-3.407,9.436,0.038,0.041,0.023,sad
4.18,0,0,0,0,0,0,0,0,626,1151,2024,2271,2121,81,3363,3839,1.044,6.031,10.874,-1.213,-0.288,1.349,1.109,-3.383,9.426,0.035,0.039,0.027,sad
4.19,0,0,0,0,0,0,0,0,605,1143,2001,2287,2107,46,3304,3755,0.656,7.202,11.662,-1.084,-0.267,1.364,1.238,-3.321,9.254,0.016,0.039,0.029,sad
4.20,0,0,0,0,0,0,0,0,455,1074,2009,2279,2073,45,3285,3755,-0.611,7.640,11.751,-1.150,-0.275,1.197,1.489,-3.627,9.799,0.014,0.049,0.045,sad
4.21,0,0,0,0,0,0,0,0,468,1097,2003,2279,2045,75,3278,3763,-2.164,8.126,10.453,-1.289,-0.508,0.916,1.137,-3.314,9.359,0.008,0.043,0.036,sad
4.22,0,0,0,0,0,0,0,0,477,1065,1934,2219,1973,44,3213,3647,-3.000,7.757,9.258,-1.326,-0.650,0.428,1.597,-3.371,8.995,0.026,0.077,0.046,sad
4.23,0,0,0,0,0,0,0,0,527,1094,2101,2316,1695,51,3251,3763,-1.903,7.731,7.240,-1.186,-0.388,-0.028,1.597,-3.589,9.704,0.028,0.085,0.053,sad
4.24,0,0,0,0,0,0,0,0,565,1035,2001,2301,1589,52,3153,3615,-1.295,7.949,6.031,-0.945,-0.423,-0.365,1.120,-3.369,9.333,0.003,0.074,0.054,sad
4.25,0,0,0,0,0,0,0,0,669,1097,1998,2345,1621,51,3110,3628,-0.022,7.300,4.480,-0.587,-0.616,-0.365,1.111,-3.330,9.345,-0.001,0.041,0.030,sad
4.26,0,0,0,0,0,0,0,0,743,1115,1983,2333,1639,44,3000,3511,1.875,6.294,2.435,0.238,-0.046,-0.052,0.879,-3.285,9.297,0.008,0.035,0.032,sad
4.27,0,0,0,0,0,0,0,0,733,1110,1929,2377,1621,53,3067,3535,0.400,7.630,3.414,0.665,0.641,0.092,1.070,-3.409,9.467,0.032,0.050,0.025,sad
4.28,0,0,0,0,0,0,0,0,921,1161,1732,2469,2323,2063,2134,3799,1.484,5.349,7.214,0.689,0.514,0.193,1.056,-3.306,9.536,0.023,0.047,0.023,sad
4.29,0,0,0,0,0,0,0,0,637,1308,1998,2535,1643,53,3003,3687,3.347,2.612,13.427,0.333,0.556,0.347,1.070,-3.299,9.402,0.005,0.039,0.034,sad
4.30,0,0,0,0,0,0,0,0,936,1305,2078,2665,1763,45,3017,3707,2.112,-0.591,10.649,0.507,0.291,0.584,1.152,-3.297,9.390,-0.015,0.044,0.036,sad
4.31,0,0,0,0,0,0,0,279,1228,1561,2144,2741,1769,48,3045,3834,-0.563,0.934,9.404,0.928,0.221,0.492,1.118,-3.340,9.337,-0.026,0.040,0.039,sad
4.32,0,0,0,0,0,0,0,1286,1589,1544,2070,2739,1624,51,2669,3661,-1.334,1.841,10.851,0.903,-0.302,0.069,1.142,-3.373,9.431,-0.041,0.060,0.040,sad
4.33,0,0,0,0,0,0,147,2045,1739,1663,1840,2863,2267,2005,2103,3684,1.851,2.634,9.977,1.058,-0.417,-0.128,1.109,-3.302,9.409,-0.056,0.086,0.050,sad
4.34,0,0,0,0,0,0,363,2491,2331,1676,2152,2991,1235,48,1811,3758,3.328,3.297,9.960,0.913,-0.333,-0.187,1.152,-3.412,9.364,-0.069,0.088,0.043,sad
4.35,0,0,0,0,37,0,739,2747,2567,1736,2198,3080,1002,49,1197,3607,2.835,3.287,9.838,0.714,-0.343,-0.038,1.070,-3.402,9.495,-0.114,0.074,0.036,sad
4.36,0,0,0,0,238,0,930,2890,2791,1768,2172,3219,841,45,913,3404,2.380,2.784,9.421,0.645,-0.242,0.066,0.967,-3.452,9.404,-0.145,0.016,0.023,sad
4.37,0,0,0,0,437,0,1180,3008,2925,1806,2193,3287,701,46,840,3197,4.228,2.191,9.946,0.605,-0.209,-0.022,1.092,-3.330,9.340,-0.170,0.064,0.027,sad
4.38,0,70,0,0,685,0,1512,3117,3135,1595,2193,3311,507,47,406,2719,3.658,2.746,8.339,0.410,0.473,-0.241,1.070,-3.663,9.347,-0.195,0.114,0.021,sad
4.39,0,511,0,0,861,0,1776,3216,3261,1420,2193,3349,226,61,137,2137,0.979,3.096,9.680,0.280,0.427,-0.206,1.281,-3.347,9.390,-0.237,0.108,-0.001,sad
4.40,0,979,0,0,851,0,1903,3299,3299,1295,2188,3383,200,5,2,1863,1.762,3.091,9.263,0.186,0.312,-0.225,0.998,-3.349,9.546,-0.343,0.096,-0.050,sad
4.41,0,1392,0,0,1214,0,2022,3354,3359,997,2193,3437,25,3,0,1385,2.040,3.318,9.534,0.139,0.464,-0.285,0.879,-3.783,9.275,-0.438,0.121,-0.099,sad
4.42,0,1675,0,0,1399,0,2058,3394,3461,997,2198,3480,0,2,0,1379,1.750,3.282,9.682,0.172,0.420,-0.213,1.030,-3.651,9.129,-0.470,0.177,-0.137,sad
4.43,28,1902,48,0,1258,0,2141,3376,3461,980,2198,3463,0,2,0,1443,1.800,3.438,9.699,0.171,0.274,-0.155,1.032,-3.809,9.443,-0.491,0.184,-0.175,sad
4.44,100,2098,176,0,1470,0,2210,3440,3519,975,2193,3497,0,0,3,1267,1.772,3.117,9.342,0.181,0.278,-0.138,1.140,-4.211,8.988,-0.450,0.292,-0.163,sad
4.45,151,2195,476,0,1600,0,2231,3445,3519,489,2101,3462,0,1,0,1095,1.798,3.306,9.278,0.137,0.222,-0.128,0.936,-4.377,9.448,-0.526,0.308,-0.147,sad
4.46,167,2316,836,258,1760,0,2294,3468,3554,466,2185,3483,0,0,0,1126,1.607,3.292,9.414,0.064,0.108,-0.056,1.279,-4.341,9.251,-0.555,0.328,-0.152,sad
4.47,243,2398,1141,455,1777,0,2330,3455,3637,1,2226,3519,0,0,0,901,1.578,3.268,9.388,0.077,0.108,-0.045,0.802,-4.365,8.708,-0.565,0.328,-0.078,sad
4.48,291,2509,1562,704,1879,0,2403,3491,3676,1,2111,3571,0,0,0,682,1.470,3.218,9.412,0.103,0.072,-0.044,0.848,-4.472,9.136,-0.657,0.370,-0.064,sad
4.49,308,2602,1776,849,1947,0,2480,3467,3688,0,2075,3411,0,3,0,685,1.410,3.345,9.474,0.103,0.053,-0.017,0.893,-4.563,9.208,-0.726,0.396,-0.062,sad
4.50,375,2671,1958,1021,2021,0,2555,3515,3494,5,1415,3127,0,0,0,523,1.642,3.414,9.527,0.075,0.005,0.014,1.006,-4.530,8.969,-0.951,0.475,0.054,sad
4.51,358,2742,2038,1057,2165,0,2623,3533,1592,2556,0,2475,2567,1676,1577,3099,1.575,3.156,9.244,0.042,-0.011,0.021,0.929,-4.796,9.282,-1.277,0.529,0.410,sad
4.52,339,2765,2171,1073,2320,0,2672,3539,1592,2556,0,2459,2577,1675,1579,3097,1.573,3.208,9.388,0.058,-0.045,0.020,0.869,-5.260,9.421,-1.406,0.443,0.667,sad
4.53,327,2817,2283,1127,2416,0,2793,3552,1589,2565,0,2476,2567,1675,1579,3101,1.604,3.256,9.294,0.037,-0.047,0.029,1.599,-5.916,10.278,-1.648,0.270,1.303,sad
4.54,381,2868,2327,1191,2593,0,2839,3569,1580,2557,0,2476,2567,1676,1582,3101,1.721,3.247,9.287,0.022,-0.030,0.038,1.889,-6.867,9.380,-1.650,0.366,1.902,sad
4.55,388,2915,2425,1254,2655,0,2925,3582,1581,2566,0,2475,2616,1673,1579,3031,1.774,3.127,9.249,0.037,-0.008,0.023,0.412,-6.642,8.583,-1.500,0.515,1.965,sad
4.56,339,2938,2496,1344,2709,0,2971,3568,1477,2557,0,2477,2569,1677,1579,3099,1.671,3.184,9.285,0.075,-0.020,0.002,1.559,-3.970,10.487,-0.385,0.604,2.437,sad
4.57,257,2761,2355,1303,2555,0,2797,3350,1583,2557,0,2479,2571,1677,1579,3098,1.666,3.273,9.349,0.077,-0.023,-0.004,5.851,-4.523,9.471,0.336,-0.016,1.047,sad
4.58,354,2988,2599,1428,2804,0,3023,3565,1523,2566,89,2533,2568,1679,1581,3100,1.664,3.261,9.278,0.073,0.007,-0.005,4.839,-1.312,8.768,0.754,0.083,0.605,sad
4.59,368,3007,2637,1488,2859,0,3034,3563,1578,2551,0,2477,2568,1679,1529,3103,1.664,3.179,9.254,0.084,0.015,-0.016,2.966,-1.097,8.753,0.850,-0.202,-0.095,sad
4.60,377,3030,2643,1569,2896,0,3025,3537,1577,2558,0,2476,2569,1681,1579,3100,1.688,3.273,9.278,0.088,0.013,-0.023,1.877,-1.499,9.527,1.203,-0.466,-0.381,sad
4.61,432,3065,2709,1643,2923,0,3052,3538,1577,2566,0,2477,2569,1679,1583,3101,1.609,3.354,9.397,0.083,0.011,-0.019,1.334,-1.530,9.419,1.365,-0.568,-0.446,sad
4.62,464,3107,2751,1712,2953,0,3056,3536,1575,2531,43,2477,2571,1643,1581,3100,1.650,3.333,9.385,0.060,0.008,-0.010,1.003,-1.920,9.510,1.573,-0.626,-0.618,sad
4.63,510,3136,2741,1755,2979,0,3059,3545,1579,2556,0,2477,2571,1677,1579,3103,1.709,3.270,9.220,0.063,0.020,-0.010,0.651,-2.591,10.472,1.700,-0.680,-0.810,sad
4.64,528,3156,2800,1786,2998,0,3087,3533,1579,2557,0,2473,2568,1677,1577,3097,1.683,3.311,9.275,0.060,0.005,-0.011,0.745,-2.947,10.891,1.730,-0.761,-0.924,sad
4.65,531,3188,2832,1808,3018,0,3089,3536,1645,2557,0,2475,2569,1677,1578,3099,1.697,3.318,9.268,0.043,0.011,-0.006,0.503,-3.194,10.714,1.764,-0.777,-1.073,sad
4.66,533,3208,2837,1824,3035,0,3097,3536,1578,2555,0,2477,2569,1676,1579,3100,1.664,3.299,9.239,0.045,0.014,-0.003,0.553,-3.575,10.989,1.759,-0.448,-0.974,sad
4.67,537,3236,2879,1820,3057,0,3119,3534,1577,2601,0,2475,2569,1683,1579,3099,1.700,3.294,9.316,0.058,0.005,-0.007,0.237,-3.907,11.779,1.749,-0.323,-0.930,sad
4.68,527,3246,2893,1811,3093,0,3120,3525,1577,2558,0,2476,2569,1683,1589,3100,1.736,3.239,9.282,0.068,0.011,-0.014,-0.642,-4.487,12.718,1.712,-0.398,-0.867,sad
4.69,547,3282,2895,1827,3131,0,3129,3538,1577,2566,0,2476,2569,1683,1579,3101,1.765,3.208,9.201,0.090,0.018,-0.030,-1.123,-4.650,11.499,1.502,-0.878,-0.819,sad
4.70,582,3269,2928,1822,3121,0,3117,3507,1561,2565,0,2475,2568,1680,1581,3099,1.729,3.323,9.287,0.096,0.005,-0.024,-1.034,-4.997,10.898,1.323,-1.098,-0.769,sad
4.71,566,3296,2951,1838,3136,0,3115,3502,1576,2565,0,2475,2569,1674,1567,3101,1.676,3.407,9.313,0.083,-0.015,-0.036,0.019,-6.531,11.609,1.073,-0.942,-0.685,sad
4.72,606,3303,2960,1835,3139,0,3104,3483,1577,2557,58,2477,2569,1682,1579,3100,1.683,3.314,9.210,0.095,0.015,-0.043,-1.314,-7.132,12.031,1.416,-0.697,-0.495,sad
4.73,642,3330,2992,1846,3152,0,3104,3456,1575,2566,0,2475,2568,1678,1579,3109,1.719,3.414,9.337,0.098,0.006,-0.032,-2.090,-6.558,10.022,1.490,-0.777,-0.372,sad
4.74,678,3341,3009,1882,3173,0,3107,3421,1577,2566,0,2475,2567,1702,1567,3098,1.757,3.407,9.191,0.091,0.006,-0.037,-1.903,-5.928,6.996,1.153,-0.640,-0.131,sad
4.75,721,3354,3015,1931,3186,0,3088,3381,1576,2557,0,2476,2569,1679,1577,3100,1.669,3.378,9.249,0.102,0.015,-0.040,-1.154,-6.428,6.404,0.734,-0.266,0.006,sad
4.76,759,3332,3058,1951,3183,0,3087,3324,1577,2565,0,2477,2589,1679,1579,3099,1.693,3.361,9.179,0.112,0.010,-0.038,-0.685,-6.697,5.825,0.560,-0.130,0.061,sad
4.77,790,3376,3071,1968,3200,0,3065,3287,1578,2555,0,2475,2569,1679,1578,3117,1.657,3.450,9.321,0.098,0.001,-0.039,-0.053,-6.419,5.681,0.107,-0.149,0.021,sad
4.78,845,3389,3025,2000,3201,0,3037,3258,1577,2567,0,2477,2571,1683,1572,3096,1.753,3.306,9.179,0.114,0.010,-0.041,0.414,-6.067,6.122,-0.295,0.309,-0.274,sad
4.79,871,3408,3118,2022,3174,0,3057,3216,1577,2557,0,2403,2569,1679,1581,3101,1.719,3.443,9.222,0.103,0.003,-0.039,0.311,-5.974,6.261,-0.482,0.484,-0.421,sad
4.80,864,3427,3145,2062,3232,0,3056,3184,1577,2520,0,2475,2568,1671,1579,3099,1.755,3.452,9.203,0.108,0.011,-0.046,0.005,-5.705,6.718,-0.841,0.608,-0.545,sad
4.81,942,3430,3146,2064,3242,0,3015,3136,1576,2555,0,2477,2568,1683,1579,3099,1.805,3.488,9.222,0.100,0.016,-0.051,6.594,4.192,16.965,-0.641,1.284,-0.559,sad
4.82,989,3453,3205,2112,3242,0,2994,3095,19,2729,0,2633,2681,9,2277,3208,1.872,3.405,9.100,0.123,0.017,-0.058,3.098,6.103,18.373,0.052,0.899,-0.610,sad
4.83,1042,3467,3242,2220,3248,0,2931,2999,0,26,0,0,0,0,0,390,1.810,3.433,9.184,0.155,0.020,-0.067,-1.120,2.093,1.393,-1.329,1.119,0.228,sad
4.84,1078,3495,3191,2266,3146,0,2784,2811,1587,2555,0,2482,2503,1674,1575,3083,1.731,3.505,9.112,0.168,0.029,-0.067,-3.220,-4.470,16.745,-1.001,0.148,0.076,sad
4.85,1175,3504,3312,2387,3238,0,2677,2677,1591,2551,0,2478,2591,1672,1572,3101,1.808,3.464,9.199,0.175,-0.000,-0.078,-1.245,-2.303,10.666,-0.852,-0.666,-0.096,sad
4.86,1229,3536,3339,2474,3215,0,2477,2384,0,0,0,0,0,0,99,1559,1.767,3.728,9.304,0.253,-0.003,-0.044,1.803,-3.165,11.528,-0.930,-0.843,0.081,sad
4.87,1373,3562,3327,2550,3179,0,2146,1972,0,0,0,0,9,0,393,2149,1.760,3.658,9.134,0.255,0.018,-0.046,3.163,-3.160,9.665,-0.724,-0.577,-0.018,sad
4.88,1509,3600,3378,2599,3120,0,1714,1271,1485,2565,0,2480,2539,1678,1579,3103,1.709,3.766,9.155,0.266,0.026,-0.045,3.479,-2.775,9.361,-0.660,-0.320,-0.016,sad
4.89,1623,3604,3410,2629,3010,0,1236,606,1581,2556,0,2478,2568,1672,1576,3099,1.630,3.768,9.050,0.225,0.037,-0.042,8.502,-4.999,10.185,-0.698,0.411,0.055,sad
4.90,1702,3639,3418,2624,2870,0,880,0,1560,2555,0,2475,2569,1676,1579,3101,1.736,3.768,9.290,0.252,0.053,-0.035,0.982,-2.866,9.754,-0.404,0.300,0.159,sad
4.91,1738,3648,3460,2672,2619,0,404,0,1583,2573,0,2479,2568,1677,1547,3100,1.647,3.967,9.029,0.273,0.035,-0.033,0.675,-3.244,10.367,-0.423,0.177,0.125,sad
4.92,1674,3647,3479,2651,2011,0,199,0,1571,2565,0,2506,2569,1676,1577,3111,1.590,3.960,8.926,0.263,0.063,-0.035,1.369,-3.218,9.864,-0.282,0.134,0.120,sad
4.93,1636,3647,3437,2630,1826,0,77,0,1551,2557,56,2413,2568,1564,1579,3099,1.504,4.034,9.103,0.305,0.074,-0.086,1.865,-3.175,9.414,-0.150,0.172,0.099,sad
4.94,1657,3663,3493,2596,1341,0,0,0,1580,2556,0,2477,2569,1577,1578,3101,1.786,3.795,8.916,0.367,0.097,-0.029,1.535,-3.038,9.787,-0.134,0.178,0.087,sad
4.95,1631,3653,3499,2581,1181,0,0,0,1589,2555,0,2483,2552,1677,1578,3132,1.666,4.085,8.954,0.447,0.102,0.003,1.614,-3.132,9.814,-0.064,-0.008,0.004,sad
4.96,1650,3632,3470,2483,846,0,0,0,1591,2555,0,2478,2568,1675,1577,3099,1.681,4.106,8.911,0.512,0.130,0.029,1.750,-2.981,9.476,-0.032,-0.011,-0.016,sad
4.97,1664,3615,3487,2446,802,0,0,0,1593,2553,0,2479,2553,1677,1482,3100,1.695,4.204,8.954,0.560,0.174,0.045,1.755,-2.966,9.450,-0.015,-0.033,-0.011,sad
4.98,1520,3344,3247,2217,486,0,0,0,1590,2553,0,2477,2555,1677,1577,3099,1.748,4.238,8.760,0.615,0.198,0.078,1.528,-3.000,9.668,0.027,-0.066,-0.049,sad
4.99,1695,3479,3373,2340,537,0,0,0,1592,2513,0,2479,2572,1677,1577,3101,1.707,4.659,8.866,0.642,0.246,0.076,1.714,-2.947,9.596,0.040,-0.085,-0.054,sad
5.00,1797,3280,3331,2233,109,0,0,0,143,18,0,57,2725,2095,2531,3691,1.607,4.592,8.830,0.735,0.234,0.086,1.578,-3.156,10.075,0.046,-0.225,-0.044,sad
5.01,1875,2970,3157,2062,0,0,0,0,0,0,0,0,791,0,2748,3428,1.856,4.592,8.892,0.840,0.249,0.066,2.009,-2.696,9.014,0.045,-0.162,-0.039,sad
5.02,1705,2718,2786,1871,0,0,0,0,7,35,7,7,827,0,2812,3611,1.714,4.501,8.619,0.952,0.305,0.059,2.069,-2.725,9.096,0.014,-0.074,-0.003,sad
5.03,1903,2544,2707,1723,0,0,0,0,2,49,7,4,973,1,2879,3563,1.688,5.162,8.878,1.067,0.307,0.062,1.894,-3.050,9.445,0.020,-0.049,0.001,sad
5.04,1847,2199,2370,1520,0,0,0,0,3,75,7,5,1033,0,2943,3543,2.023,4.879,8.914,1.113,0.281,-0.025,1.829,-2.964,9.558,0.045,-0.054,-0.007,sad
5.05,1766,1444,1731,1246,0,0,0,0,0,0,0,4,1177,0,2967,3491,1.240,5.035,9.175,1.366,0.379,-0.156,1.992,-2.895,9.342,0.052,0.024,-0.012,sad
5.06,1712,1206,1233,959,0,0,0,0,0,1,5,7,1305,0,3337,4011,1.190,5.272,9.005,1.587,0.248,-0.202,1.887,-2.820,9.409,0.041,0.039,0.005,sad
5.07,1667,994,489,810,0,0,0,0,0,0,23,0,1303,0,3065,3609,1.618,5.483,10.015,1.745,-0.037,-0.334,1.853,-2.840,9.385,0.038,0.039,0.013,sad
5.08,1617,741,0,465,0,0,0,0,1607,2554,217,2483,2577,1684,1581,3101,1.889,5.976,9.835,1.958,0.067,-0.608,1.923,-2.789,9.354,0.023,0.114,0.019,sad
5.09,1382,419,0,0,0,0,0,0,1611,2551,0,2479,2554,1675,1577,3100,2.131,6.905,8.392,1.911,0.461,-0.930,1.942,-2.741,9.402,0.011,0.145,0.029,sad
5.10,823,176,0,0,0,0,0,0,1606,2549,0,2482,2569,1675,1577,3099,1.458,4.767,11.360,1.096,0.682,-1.353,1.911,-2.638,9.203,-0.024,0.228,0.063,sad
5.11,155,16,0,0,0,0,0,0,1609,2567,0,2479,2569,1675,1576,3099,1.336,2.586,9.898,0.543,0.611,-1.386,1.844,-2.856,9.294,-0.061,0.289,0.093,sad
5.12,0,0,0,0,0,0,0,0,1607,2552,2,2479,2569,1675,1589,3101,1.279,1.678,10.568,-0.369,0.461,-1.549,1.839,-2.859,9.316,-0.070,0.286,0.097,sad
5.13,0,0,0,0,0,0,0,0,1611,2551,2,2475,2572,1675,1577,3101,2.907,1.678,9.957,-0.838,0.003,-1.153,1.573,-3.012,9.536,-0.028,0.209,0.064,sad
5.14,0,0,0,0,0,0,0,0,1,0,10,200,1609,0,3539,4095,3.146,1.860,8.820,-1.180,-0.167,-0.846,1.772,-2.907,9.392,-0.017,0.103,0.060,sad
5.15,0,0,0,0,0,0,0,0,0,0,0,121,1587,0,3436,3979,3.239,2.126,8.665,-1.344,-0.264,-0.637,1.671,-3.033,9.464,-0.007,0.092,0.049,sad
5.16,0,0,0,0,0,0,0,0,0,3,0,220,1588,0,3533,4095,3.201,2.370,8.547,-1.430,-0.401,-0.411,1.700,-2.899,9.388,-0.002,0.099,0.048,sad
5.17,0,0,0,0,0,0,0,0,0,7,0,206,1564,0,3560,4037,3.172,2.662,8.562,-1.486,-0.494,-0.175,1.659,-2.959,9.400,-0.007,0.097,0.055,sad
5.18,0,0,0,0,0,0,0,0,0,0,0,210,1533,0,3567,4093,3.048,3.110,8.899,-1.511,-0.584,0.095,1.654,-2.971,9.364,-0.017,0.101,0.056,sad
5.19,0,0,0,0,0,0,0,0,0,0,7,253,1549,1,3601,4095,2.710,3.548,9.548,-1.547,-0.648,0.346,1.666,-2.885,9.491,-0.019,0.106,0.064,sad
5.20,0,0,0,0,0,0,0,0,0,0,0,237,1528,0,3709,4073,1.999,3.903,10.013,-1.613,-0.665,0.529,1.652,-2.983,9.340,-0.009,0.104,0.059,sad
5.21,0,0,0,0,0,0,0,0,0,0,0,264,1568,0,3619,4095,1.056,4.173,10.343,-1.670,-0.732,0.609,1.702,-2.942,9.345,-0.018,0.108,0.061,sad
5.22,0,0,0,0,0,0,0,0,0,0,0,409,1583,0,3615,4095,1.219,4.334,10.305,-1.721,-0.739,0.633,1.753,-2.890,9.287,-0.037,0.125,0.068,sad
5.23,0,0,0,0,0,0,0,0,0,0,15,373,1608,0,3597,4095,1.492,4.606,10.417,-1.758,-0.654,0.672,1.547,-2.966,9.527,-0.039,0.113,0.055,sad
5.24,0,0,0,0,0,0,0,0,12,0,0,437,1619,0,3574,4095,1.590,4.515,10.178,-1.754,-0.569,0.761,1.578,-3.057,9.555,-0.028,0.111,0.058,sad
5.25,0,0,0,0,0,0,0,0,0,0,0,463,1651,0,3607,4095,1.645,4.393,9.627,-1.707,-0.487,0.855,1.475,-3.057,9.591,-0.014,0.094,0.051,sad
5.26,0,0,0,0,0,0,0,0,5,0,0,564,1673,0,3631,4095,1.484,4.128,9.067,-1.593,-0.381,0.933,1.520,-3.199,9.622,0.008,0.052,0.037,sad
5.27,0,0,0,0,0,0,0,0,1,0,0,537,1692,2,3615,4095,1.006,4.056,8.923,-1.441,-0.208,0.955,1.506,-2.964,9.467,0.022,0.046,0.029,sad
5.28,0,0,0,0,0,0,0,0,75,1,0,595,1686,0,3627,4095,0.692,4.384,9.301,-1.321,-0.048,0.960,1.618,-2.964,9.419,0.012,0.039,0.027,sad
5.29,0,0,0,0,0,0,0,0,89,1,0,570,1715,0,3661,4095,0.225,4.405,10.135,-1.139,-0.027,0.884,1.566,-2.969,9.498,0.002,0.036,0.030,sad
5.30,0,0,0,0,0,0,0,0,123,0,0,647,1705,0,3640,4095,-0.026,4.638,10.271,-0.966,-0.146,0.875,1.602,-2.892,9.354,-0.000,0.043,0.035,sad
5.31,0,0,0,0,0,0,0,0,121,1,0,612,1753,0,3677,4095,-0.077,4.786,10.104,-0.801,-0.396,0.871,1.611,-2.947,9.421,-0.008,0.055,0.038,sad
5.32,0,0,0,0,0,0,0,0,135,1,0,568,1775,0,3691,4095,0.527,5.320,10.223,-0.691,-0.537,0.868,1.549,-2.966,9.354,-0.015,0.056,0.043,sad
5.33,0,0,0,0,0,0,0,0,133,0,0,664,1816,0,3689,4095,0.747,5.887,10.384,-0.595,-0.606,0.889,1.544,-2.914,9.349,-0.028,0.057,0.052,sad
5.34,0,0,0,0,0,0,0,0,148,1,0,597,1885,0,3718,4095,0.697,6.565,10.575,-0.593,-0.533,0.877,1.580,-2.866,9.306,-0.044,0.068,0.071,sad
5.35,0,0,0,0,0,0,0,0,172,3,25,596,1915,2,3710,4095,0.752,7.738,11.894,-0.817,-0.342,0.783,1.532,-2.928,9.390,-0.059,0.087,0.086,sad
5.36,0,0,0,0,0,0,0,0,218,1,0,659,1939,0,3687,4095,-0.153,7.937,12.062,-1.027,-0.103,0.686,1.475,-2.978,9.474,-0.067,0.100,0.100,sad
5.37,0,0,0,0,0,0,0,0,199,31,1057,703,1978,4,3685,4095,-1.805,7.882,11.279,-1.257,-0.208,0.531,1.571,-3.012,9.529,-0.066,0.095,0.098,sad
5.38,0,0,0,0,0,0,0,0,274,0,1105,759,2003,21,3601,4009,-2.028,7.302,9.483,-1.329,-0.504,0.344,1.513,-3.120,9.507,-0.054,0.084,0.102,sad
5.39,0,0,0,0,0,0,0,0,233,189,1128,813,1968,40,3374,3756,-1.027,7.044,7.822,-1.306,-0.634,0.145,1.504,-3.098,9.519,-0.064,0.081,0.095,sad
5.40,0,0,0,0,0,0,0,0,271,231,1297,921,2059,41,3497,3943,-0.141,6.917,6.555,-1.193,-0.575,0.000,1.439,-3.203,9.522,-0.049,0.078,0.088,sad
5.41,0,0,0,0,0,0,0,0,261,296,1256,996,2133,45,3558,3901,0.172,6.804,5.306,-0.994,-0.273,-0.160,1.403,-3.139,9.474,-0.033,0.064,0.071,sad
5.42,0,0,0,0,0,0,0,0,273,416,1246,997,2087,44,3467,3847,-0.558,6.768,4.992,-0.742,-0.349,-0.264,1.470,-3.148,9.500,-0.025,0.050,0.063,sad
5.43,0,0,0,0,0,0,0,0,233,440,831,1004,2087,22,3367,3771,0.680,7.135,5.442,-0.345,-0.567,-0.318,1.444,-3.098,9.395,-0.031,0.042,0.055,sad
5.44,0,0,0,0,0,0,0,0,218,588,555,1039,2076,41,3305,3647,1.448,7.420,5.808,-0.230,-0.439,-0.221,1.499,-3.134,9.440,-0.030,0.040,0.055,sad
5.45,0,0,0,0,0,0,0,0,281,738,488,1013,2222,42,3567,3911,1.714,6.828,5.059,-0.021,-0.071,-0.034,1.367,-3.115,9.359,-0.024,0.041,0.048,sad
5.46,0,0,0,0,0,0,0,0,265,559,271,794,1967,74,3049,3309,2.799,2.777,5.655,0.078,0.201,0.224,1.425,-3.096,9.380,-0.020,0.039,0.043,sad
5.47,0,0,0,0,0,0,0,0,243,791,238,1055,2181,44,3397,3750,2.801,3.213,7.851,0.405,1.112,0.273,1.362,-3.112,9.495,-0.013,0.035,0.043,sad
5.48,0,0,0,0,0,0,0,0,235,807,194,977,2170,24,3323,3665,1.429,0.759,11.042,0.599,0.626,0.723,1.413,-3.007,9.476,-0.021,0.038,0.054,sad
5.49,0,0,0,0,0,0,0,0,269,903,51,1039,2315,0,3484,3925,3.050,-0.994,10.898,0.567,0.705,0.773,1.460,-3.050,9.347,-0.037,0.028,0.057,sad
5.50,0,0,0,0,0,0,0,0,253,830,12,1015,2267,2,3290,3719,0.668,-1.626,11.698,0.662,0.514,0.823,1.441,-3.074,9.469,-0.046,0.042,0.071,sad
5.51,0,0,0,0,0,0,0,0,1615,2547,852,2485,2578,1663,1571,3096,-0.958,1.077,10.221,0.827,0.259,0.815,1.489,-3.089,9.378,-0.055,0.095,0.072,sad
5.52,0,0,0,0,0,0,0,605,1614,2553,1010,2495,2571,1669,1591,3101,-3.395,1.731,11.085,0.542,0.075,0.153,1.439,-3.134,9.364,-0.057,0.103,0.084,sad
5.53,0,0,0,0,0,0,0,1328,1613,2527,1210,2484,2573,1670,1573,3107,0.158,1.611,9.682,0.918,-0.240,-0.192,1.484,-3.000,9.290,-0.094,0.131,0.111,sad
5.54,0,0,0,0,0,0,110,1875,264,1013,1881,1358,2295,0,3375,3737,3.182,3.452,10.264,0.810,-0.477,-0.164,1.463,-3.168,9.431,-0.116,0.079,0.134,sad
5.55,0,0,0,0,0,0,343,2320,377,1181,1911,1466,2181,43,3227,3748,2.459,2.277,9.548,0.649,-0.371,-0.113,1.283,-3.292,9.476,-0.098,0.088,0.118,sad
5.56,0,0,0,0,0,0,576,2444,538,1179,1947,1663,2067,47,3069,3698,3.390,2.816,9.349,0.644,-0.245,-0.001,1.403,-3.275,9.452,-0.130,0.076,0.127,sad
5.57,0,0,0,0,134,0,897,2742,618,1199,1916,1693,1901,42,2972,3630,1.946,2.579,9.378,0.581,-0.143,-0.022,1.350,-3.397,9.407,-0.135,0.070,0.131,sad
5.58,0,0,0,0,318,0,1085,2879,921,1177,1847,1847,1583,59,2476,3435,1.753,3.584,12.246,0.497,0.329,-0.369,1.257,-3.498,9.479,-0.118,0.058,0.083,sad
5.59,0,132,0,0,604,0,1381,2983,1268,1301,1963,2059,1287,59,1927,3464,2.523,2.602,8.581,0.460,0.457,-0.230,1.310,-3.299,9.340,-0.118,0.064,0.088,sad
5.60,0,585,0,0,811,0,1657,3086,1647,1337,1978,2104,1158,60,1746,3403,1.398,2.677,9.493,0.281,0.281,-0.209,1.259,-3.388,9.414,-0.143,0.068,0.092,sad
5.61,0,962,0,0,750,0,1862,3088,1997,1348,2055,2217,999,26,1176,3271,1.755,3.069,9.467,0.150,0.291,-0.221,1.221,-3.503,9.270,-0.153,0.060,0.080,sad
5.62,0,1501,0,0,1187,0,1988,3262,1604,2549,1451,2485,2572,1661,1573,3115,1.817,3.045,9.364,0.183,0.413,-0.256,1.286,-3.479,9.357,-0.182,0.128,0.060,sad
5.63,0,1767,0,0,1488,0,2128,3307,1599,2549,1451,2479,2571,1659,1567,3101,1.796,3.330,9.536,0.189,0.452,-0.235,1.322,-3.560,9.390,-0.190,0.131,0.056,sad
5.64,0,2045,89,0,1602,0,2165,3350,1630,2550,1461,2483,2558,1705,1567,3101,1.365,3.405,9.632,0.119,0.233,-0.137,1.286,-3.421,9.366,-0.224,0.151,0.033,sad
5.65,16,2224,296,0,1690,0,2224,3409,1606,2551,1471,2479,2570,1658,1574,3107,1.544,3.596,9.641,0.125,0.104,-0.076,1.111,-2.284,9.388,-0.323,0.153,0.012,sad
5.66,70,2363,671,0,1775,0,2293,3447,1623,2527,1535,2504,2487,1979,2123,3560,1.623,3.215,9.306,0.075,0.098,-0.054,1.374,-3.845,9.376,-0.349,0.107,-0.001,sad
5.67,188,2464,944,316,1936,0,2370,3467,1973,2315,1668,2293,2539,2173,2257,1163,1.621,3.187,9.340,0.083,0.107,-0.050,1.053,-3.929,9.397,-0.407,0.179,-0.064,sad
5.68,186,2313,1168,451,1814,0,2221,3261,3401,973,2111,3089,45,0,0,1363,1.597,3.144,9.383,0.086,0.075,-0.043,1.085,-3.728,9.325,-0.517,0.196,-0.145,sad
5.69,240,2559,1632,707,2081,0,2477,3498,3475,1007,2162,3149,0,0,0,1341,1.427,3.259,9.476,0.103,0.034,-0.027,1.178,-3.864,9.345,-0.533,0.263,-0.166,sad
5.70,240,2667,1834,878,2176,0,2556,3503,3561,876,2154,3171,0,1,0,1293,1.501,3.256,9.438,0.148,0.036,-0.037,0.994,-4.010,8.847,-0.626,0.338,-0.135,sad
5.71,310,2733,1968,986,2159,0,2593,3511,3639,441,2185,3209,0,2,0,1135,1.556,3.306,9.424,0.110,0.004,-0.031,1.346,-4.420,9.622,-0.723,0.427,-0.133,sad
5.72,426,2794,2096,1087,2271,0,2674,3521,3639,262,2144,3167,0,0,0,865,1.499,3.259,9.366,0.088,-0.005,-0.006,1.386,-4.324,9.184,-0.777,0.480,-0.116,sad
5.73,448,2842,2202,1126,2352,0,2731,3527,3723,1,1727,3020,0,0,0,691,1.525,3.251,9.246,0.103,-0.033,-0.013,1.312,-4.396,8.985,-0.935,0.586,0.001,sad
5.74,470,2897,2304,1243,2429,0,2785,3534,3484,0,0,2660,0,0,0,407,1.616,3.347,9.364,0.094,-0.062,0.018,1.128,-4.477,9.608,-1.181,0.539,0.343,sad
5.75,434,2939,2433,1291,2512,0,2867,3541,3288,0,0,2111,0,0,0,397,1.566,3.349,9.347,0.072,-0.048,0.024,1.223,-4.858,10.084,-1.293,0.375,0.719,sad
5.76,443,2958,2518,1339,2670,0,2941,3552,3037,0,56,903,0,0,0,307,1.765,3.179,9.256,0.063,-0.039,0.011,1.195,-5.538,9.941,-1.402,0.181,1.430,sad
5.77,479,2992,2559,1389,2780,0,2977,3556,2350,0,0,297,0,0,0,409,1.700,3.158,9.210,0.086,-0.048,0.007,0.895,-5.698,9.718,-1.079,0.365,1.954,sad
5.78,495,3043,2673,1466,2851,0,3027,3556,1071,0,2,136,0,0,0,367,1.669,3.304,9.230,0.105,-0.019,0.003,1.434,-4.247,10.709,-0.673,0.353,2.176,sad
5.79,539,3062,2723,1520,2926,0,3056,3559,39,17,0,117,2667,27,2251,493,1.717,3.338,9.333,0.077,-0.017,0.000,2.318,-1.015,11.303,0.266,0.375,2.236,sad
5.80,551,3100,2742,1623,2977,0,3056,3552,1576,2568,0,2477,2570,1683,1583,3103,1.686,3.153,9.172,0.090,-0.002,-0.006,4.549,-0.912,8.839,0.702,-0.110,1.056,sad
5.81,611,3141,2815,1681,3030,0,3071,3539,1573,2568,0,2474,2567,1670,1597,3099,1.700,3.268,9.155,0.121,-0.002,-0.021,4.065,-0.634,8.581,0.794,-0.130,0.718,sad
5.82,651,3180,2867,1791,3070,0,3088,3525,0,0,0,0,0,0,0,482,1.657,3.393,9.234,0.119,-0.010,-0.013,3.706,-1.101,9.177,0.926,-0.400,0.120,sad
5.83,672,3222,2902,1890,3131,0,3103,3527,0,0,0,0,0,1,0,475,1.669,3.352,9.261,0.117,-0.019,-0.013,2.600,-1.350,9.704,1.112,-0.561,-0.388,sad
5.84,736,3226,2947,1935,3147,0,3094,3492,1591,2557,0,2483,2517,1679,1576,3101,1.772,3.385,9.232,0.130,0.009,-0.015,2.121,-1.616,10.173,1.208,-0.635,-0.596,sad
5.85,812,3262,2992,2010,3182,0,3102,3482,1589,2551,0,2483,2577,1673,1573,3079,1.774,3.405,9.227,0.092,0.005,-0.017,0.553,-1.829,10.716,1.395,-0.746,-0.758,sad
5.86,851,3281,2992,2064,3193,0,3090,3467,1583,2552,28,2480,2572,1675,1589,3100,1.762,3.388,9.196,0.090,0.001,-0.019,0.168,-2.191,11.076,1.555,-0.876,-0.748,sad
5.87,886,3326,3060,2105,3232,0,3114,3459,1583,2556,0,2479,2620,1743,1577,3067,1.779,3.455,9.232,0.083,0.006,-0.014,0.215,-2.325,11.004,1.599,-0.888,-0.723,sad
5.88,909,3344,3091,2150,3248,0,3120,3450,1583,2555,0,2483,2573,1663,1575,3103,1.788,3.431,9.246,0.073,0.015,-0.015,0.613,-2.416,9.874,1.557,-0.634,-0.658,sad
5.89,925,3355,3066,2176,3254,0,3106,3434,1581,2552,79,2479,2571,1675,1577,3099,1.753,3.457,9.251,0.064,0.010,-0.013,0.543,-2.629,9.876,1.226,-0.319,-0.574,sad
5.90,933,3376,3123,2197,3283,0,3125,3419,1581,2556,0,2479,2571,1691,1577,3157,1.681,3.412,9.242,0.073,0.006,-0.010,0.828,-3.515,11.351,1.138,-0.244,-0.608,sad
5.91,967,3371,3151,2213,3273,0,3123,3387,1579,2553,0,2477,2571,1679,1577,3103,1.738,3.431,9.124,0.087,0.004,-0.018,0.666,-4.434,11.839,1.009,-0.418,-0.777,sad
5.92,982,3409,3129,2235,3302,0,3102,3362,1577,2557,0,2479,2555,1679,1579,3100,1.776,3.433,9.172,0.092,0.011,-0.024,0.716,-5.698,11.959,0.995,-0.582,-0.902,sad
5.93,993,3426,3185,2254,3318,0,3107,3310,1578,2555,0,2475,2585,1676,1577,3098,1.765,3.519,9.266,0.096,-0.008,-0.019,0.309,-5.703,11.428,1.023,-0.652,-0.958,sad
5.94,992,3442,3209,2286,3328,0,3103,3233,1577,2554,0,2477,2571,1679,1578,3100,1.724,3.445,9.177,0.112,-0.002,-0.023,-0.060,-6.199,10.546,0.959,-0.726,-0.906,sad
5.95,1001,3458,3153,2290,3327,0,3054,3110,1567,2557,0,2476,2569,1678,1579,3103,1.812,3.474,9.220,0.115,-0.037,-0.032,-0.630,-6.579,9.941,0.998,-0.590,-0.831,sad
5.96,1014,3475,3248,2320,3345,0,3065,2954,1579,2552,0,2479,2568,1675,1584,3100,1.808,3.419,9.203,0.131,-0.004,-0.051,-1.166,-6.534,8.933,0.984,-0.610,-0.776,sad
5.97,1088,3499,3276,2358,3363,0,3042,2842,1577,2557,0,2477,2569,1676,1577,3101,1.803,3.371,9.151,0.152,-0.011,-0.055,-1.645,-6.275,6.857,0.701,-0.510,-0.556,sad
5.98,1127,3506,3278,2409,3361,0,2993,2752,1589,2565,0,2535,2569,1678,1579,3101,1.812,3.598,9.285,0.167,-0.025,-0.083,-1.709,-6.539,6.223,0.349,-0.293,-0.292,sad
5.99,1259,3491,3283,2435,3306,0,2915,2651,1578,2568,0,2476,2569,1679,1579,3099,1.824,3.610,9.112,0.149,-0.014,-0.075,-1.346,-6.711,6.163,0.158,-0.227,-0.205,sad
6.00,1344,3548,3359,2511,3387,0,2917,2640,1577,2583,0,2477,2570,1678,1580,3099,1.834,3.587,9.189,0.145,-0.019,-0.059,-1.156,-6.603,6.223,-0.105,-0.017,-0.133,sad
6.01,1432,3398,3334,2416,3296,0,2801,2357,1577,2565,0,2479,2569,1679,1578,2980,1.748,3.560,9.098,0.161,0.003,-0.042,-1.504,-6.060,6.108,-0.492,0.133,-0.022,sad
6.02,1565,3583,3395,2602,3397,0,2757,2460,1577,2565,0,2476,2617,1678,1581,3100,1.810,3.718,9.120,0.141,-0.010,-0.051,-1.314,-6.084,6.694,-0.657,0.199,0.053,sad
6.03,1675,3616,3414,2631,3403,0,2662,2341,1577,2558,0,2483,2569,1678,1581,3101,1.889,3.718,9.105,0.143,-0.020,-0.038,3.014,3.383,17.705,0.013,0.954,-0.248,sad
6.04,1786,3609,3248,2642,3359,0,2353,2163,0,0,0,16,0,0,0,84,1.875,3.728,9.041,0.165,-0.031,-0.031,-0.505,1.987,5.200,-0.759,0.379,0.218,sad
6.05,1990,3648,3464,2658,3387,0,2408,1987,1577,2596,0,2477,2571,1683,1597,3103,1.908,3.814,9.093,0.164,0.003,-0.034,-0.132,-2.873,10.245,-0.973,0.534,0.395,sad
6.06,2097,3673,3483,2685,3360,0,2186,1739,1581,2556,0,2475,2568,1673,1579,3103,1.915,3.697,9.139,0.160,-0.002,-0.030,1.300,-1.027,9.213,-0.626,-0.385,-0.090,sad
6.07,2181,3683,3466,2715,3325,0,1733,1139,1577,2647,0,2581,2665,2095,2251,3247,1.860,3.701,9.282,0.163,0.001,-0.038,2.696,-2.899,10.690,-0.813,-0.551,0.056,sad
6.08,2267,3696,3522,2731,3275,0,1461,564,46,0,0,0,0,3,99,1723,1.867,3.852,9.064,0.217,0.042,-0.027,2.859,-2.552,9.802,-0.820,-0.457,0.028,sad
6.09,2115,3475,3312,2502,2960,0,941,0,1562,2571,0,2471,2557,1691,1589,3111,1.791,3.982,8.964,0.262,0.059,-0.019,3.203,-2.665,9.950,-0.738,-0.209,0.101,sad
6.10,2339,3717,3517,2734,3015,0,625,0,1545,2571,0,2467,2571,1691,1591,3099,1.738,3.941,9.084,0.256,0.065,-0.035,2.303,-2.222,9.069,-0.687,-0.142,0.032,sad
6.11,2379,3722,3564,2730,2771,0,255,0,1561,2571,0,2471,2552,1685,1587,3097,1.551,4.784,9.201,0.103,0.016,-0.170,1.860,-2.382,9.160,-0.707,-0.073,0.076,sad
6.12,2416,3744,3569,2720,2403,0,150,0,1563,2570,0,2471,2555,1685,1559,3097,2.085,3.759,8.660,0.254,-0.014,-0.127,3.682,-5.507,11.224,-0.541,0.636,0.318,sad
6.13,2479,3742,3543,2703,1738,0,118,0,1563,2567,0,2468,2504,1687,1523,3096,1.839,3.931,8.878,0.456,0.064,-0.015,0.709,-3.378,10.709,-0.245,0.831,0.376,sad
6.14,2530,3734,3600,2719,1470,0,0,0,1563,2573,0,2467,2553,1689,1591,3087,1.719,4.180,8.940,0.502,0.090,0.031,1.180,-3.321,10.132,-0.167,0.675,0.296,sad
6.15,2599,3713,3582,2691,1200,0,0,0,1560,2573,0,2468,2555,1691,1594,3096,1.784,4.276,8.935,0.524,0.074,0.055,1.322,-3.079,9.905,-0.175,0.595,0.237,sad
6.16,2650,3719,3442,2688,1149,0,0,0,1564,2553,0,2463,2552,1688,1592,3097,1.853,4.322,8.844,0.566,0.117,0.058,0.900,-3.321,10.647,-0.221,0.410,0.210,sad
6.17,2704,3713,3564,2623,753,0,0,0,1565,2571,0,2467,2552,1691,1591,3096,2.224,4.305,8.902,0.567,0.185,0.044,1.640,-3.385,9.984,-0.134,0.354,0.179,sad
6.18,2768,3694,3551,2559,647,0,0,0,1541,2568,33,2468,2553,1681,1592,3097,1.927,4.628,8.808,0.562,0.195,0.056,1.482,-3.175,9.586,-0.109,0.276,0.138,sad
6.19,2763,3637,3313,2515,656,0,0,0,1574,2567,2,2463,2551,1684,1587,3098,1.736,4.666,8.641,0.567,0.183,0.071,1.408,-3.151,9.560,-0.118,0.215,0.089,sad
6.20,2850,3601,3504,2487,592,0,0,0,1596,2557,2,2469,2556,1683,1583,3097,1.709,4.717,8.662,0.575,0.247,0.066,1.444,-3.160,9.412,-0.108,0.186,0.080,sad
6.21,2880,3493,3461,2459,295,0,0,0,1595,2554,33,2475,2567,1660,1579,3099,1.628,4.922,8.502,0.582,0.270,0.087,1.477,-3.211,9.335,-0.097,0.118,0.091,sad
6.22,2717,3240,3184,2263,271,0,0,0,1595,2553,0,2476,2556,1705,1541,3063,1.566,4.875,8.432,0.625,0.290,0.080,1.429,-3.177,9.352,-0.097,0.113,0.087,sad
6.23,2935,3038,3323,2314,0,0,0,0,1589,2555,53,2475,2572,1677,1577,3101,1.712,5.107,8.459,0.655,0.263,0.100,1.379,-3.285,9.531,-0.088,0.098,0.077,sad
6.24,2957,2631,3136,2244,0,0,0,0,1589,2591,56,2477,2578,1676,1571,3099,1.686,5.040,8.619,0.744,0.284,0.068,1.336,-3.227,9.426,-0.064,0.111,0.074,sad
6.25,2991,2427,2864,2080,0,0,0,0,1591,2554,61,2475,2568,1673,1579,3103,1.942,4.973,8.562,0.869,0.368,0.005,1.391,-3.311,9.354,-0.080,0.152,0.096,sad
6.26,2800,2127,2614,1958,0,0,0,0,1591,2555,58,2475,2567,1685,1577,3099,1.776,5.294,8.983,1.055,0.429,-0.184,1.389,-3.405,9.431,-0.062,0.141,0.085,sad
6.27,2983,1742,2095,1735,0,0,0,0,1594,2552,202,2476,2567,1674,1579,3099,0.986,5.598,8.729,1.298,0.169,-0.292,1.293,-3.340,9.402,-0.030,0.112,0.061,sad
6.28,2896,1066,1082,1347,0,0,0,0,1597,2552,570,2476,2568,1673,1578,3099,1.765,5.602,9.290,1.781,-0.126,-0.642,1.353,-3.338,9.431,-0.004,0.088,0.037,sad
6.29,2714,835,98,651,0,0,0,0,1597,2547,877,2478,2568,1675,1579,3100,2.054,6.699,8.437,2.266,-0.258,-1.051,1.360,-3.287,9.390,0.012,0.096,0.040,sad
6.30,2159,365,0,94,0,0,0,0,1612,2549,952,2477,2567,1673,1529,3099,1.650,6.924,7.245,1.922,0.016,-1.316,1.312,-3.306,9.471,0.026,0.093,0.024,sad
6.31,1339,145,0,0,0,0,0,0,1605,2519,980,2477,2569,1675,1579,3101,1.240,7.585,6.852,1.678,0.155,-1.390,1.338,-3.177,9.318,0.003,0.058,0.021,sad
6.32,778,80,0,0,0,0,0,0,1607,2552,1057,2477,2569,1669,1573,3103,0.977,6.445,9.457,1.122,0.171,-1.638,1.362,-3.268,9.433,0.000,0.049,0.014,sad
6.33,224,0,0,0,0,0,0,0,1605,2552,1184,2478,2581,1673,1579,3100,1.312,3.587,9.833,0.181,0.059,-1.749,1.381,-3.282,9.361,0.010,0.025,0.006,sad
6.34,0,0,0,0,0,0,0,0,287,850,1691,1787,1881,41,3336,4011,1.812,2.361,10.204,-0.596,-0.118,-1.763,1.389,-3.235,9.431,0.018,-0.018,0.012,sad
6.35,0,0,0,0,0,0,0,0,312,939,1742,1739,1897,51,3237,3857,2.792,1.779,9.546,-1.132,-0.322,-1.144,1.343,-3.191,9.412,0.008,-0.009,0.021,sad
6.36,0,0,0,0,0,0,0,0,287,1019,1891,1849,2063,51,3402,4029,1.726,1.990,8.286,-1.395,-0.371,-0.804,1.334,-3.230,9.414,-0.022,-0.005,0.037,sad
6.37,0,0,0,0,0,0,0,0,335,1044,1986,1919,2175,50,3445,4071,2.155,3.115,9.275,-1.630,-0.589,-0.501,1.355,-3.213,9.373,-0.023,0.006,0.045,sad
6.38,0,0,0,0,0,0,0,0,377,1107,1998,1937,2220,46,3452,4056,2.361,3.824,9.357,-1.894,-0.550,-0.098,1.322,-3.196,9.361,-0.035,0.040,0.060,sad
6.39,0,0,0,0,0,0,0,0,373,1161,2096,2037,2293,45,3495,4089,1.496,4.266,9.103,-1.980,-0.618,0.267,1.377,-3.412,9.440,-0.038,0.098,0.096,sad
6.40,0,0,0,0,0,0,0,0,420,1149,2016,2172,2311,50,3487,4093,1.056,4.647,9.448,-1.970,-0.751,0.508,1.312,-3.235,9.357,-0.039,0.162,0.113,sad
6.41,0,0,0,0,0,0,0,0,397,1115,2039,2227,2282,51,3481,4095,1.681,4.944,9.843,-1.914,-0.569,0.755,1.250,-3.345,9.440,-0.042,0.170,0.127,sad
6.42,0,0,0,0,0,0,0,0,441,1167,2126,2343,2295,47,3471,4095,1.733,5.083,9.960,-1.838,-0.368,1.090,1.290,-3.381,9.366,-0.030,0.117,0.103,sad
6.43,0,0,0,0,0,0,0,0,428,1223,2065,2464,2288,51,3452,4083,1.683,5.116,10.063,-1.731,-0.363,1.391,1.255,-3.414,9.464,-0.036,0.091,0.085,sad
6.44,0,0,0,0,0,0,0,0,507,1239,2175,2487,2288,51,3450,4089,1.475,5.066,10.202,-1.677,-0.254,1.620,1.228,-3.376,9.390,-0.034,0.084,0.073,sad
6.45,0,0,0,0,0,0,0,0,595,1237,2108,2569,2317,48,3435,4067,0.553,4.513,9.084,-1.544,0.091,1.598,1.288,-3.373,9.388,-0.033,0.027,0.049,sad
6.46,0,0,0,0,0,0,0,0,619,1259,2144,2599,2335,81,3445,4057,0.101,4.429,9.064,-1.400,0.288,1.459,1.228,-3.364,9.416,-0.032,0.010,0.048,sad
6.47,0,0,0,0,0,0,0,0,685,1275,2203,2623,2349,51,3420,4039,-0.385,4.752,9.658,-1.219,0.400,1.249,1.207,-3.357,9.419,-0.037,0.032,0.042,sad
6.48,0,0,0,0,0,0,0,0,798,1303,2075,2541,2327,72,3300,3883,-0.723,5.461,10.858,-1.048,0.185,0.980,1.202,-3.388,9.483,-0.032,0.034,0.050,sad
6.49,0,0,0,0,0,0,0,0,811,1301,2047,2513,2330,56,3262,3853,-0.711,5.643,10.199,-0.876,-0.188,0.749,1.132,-3.323,9.440,-0.031,0.009,0.045,sad
6.50,0,0,0,0,0,0,0,0,953,1331,2111,2635,2415,51,3341,3979,-0.642,5.875,9.043,-0.644,-0.548,0.558,0.699,-3.270,9.184,-0.045,0.020,0.047,sad
6.51,0,0,0,0,0,0,0,0,1021,1449,2142,2677,2463,48,3311,3975,0.476,7.472,10.202,-0.605,-0.543,0.329,1.168,-3.496,9.433,-0.028,0.004,0.034,sad
6.52,0,0,0,0,0,0,0,0,1131,1449,2085,2623,2406,46,3199,3771,-0.895,8.224,11.145,-1.006,-0.353,0.108,1.132,-3.426,9.407,-0.025,0.007,0.029,sad
6.53,0,0,0,0,0,0,0,0,1230,1429,2024,2584,2367,75,3055,3594,-0.778,6.795,8.243,-1.245,-0.555,-0.101,1.149,-3.388,9.395,-0.029,0.007,0.028,sad
6.54,0,0,0,0,0,0,0,0,1493,1583,1952,2622,2405,103,3038,3595,0.740,5.370,6.342,-0.953,-0.264,-0.295,1.178,-3.452,9.383,-0.028,-0.001,0.022,sad
6.55,0,0,0,0,0,0,0,0,1583,1636,2075,2701,2475,51,3119,3719,1.377,5.037,7.434,-0.768,-0.279,-0.285,1.168,-3.467,9.404,-0.025,0.021,0.023,sad
6.56,0,0,0,0,0,0,0,0,1660,1597,2027,2618,2422,50,2939,3491,1.860,5.006,7.647,-0.649,-0.193,-0.105,0.364,-3.220,8.902,-0.016,0.057,0.033,sad
6.57,0,0,0,0,0,0,0,0,1781,1743,2055,2713,2438,52,3001,3653,1.257,4.848,6.031,-0.387,-0.164,0.104,1.116,-3.500,9.378,-0.003,0.021,0.026,sad
6.58,0,0,0,0,0,0,0,0,1927,1791,2096,2708,2445,76,3007,3671,1.733,5.739,2.239,0.564,0.488,0.410,1.188,-3.503,9.321,-0.007,0.006,0.020,sad
6.59,0,0,0,0,0,0,0,0,1913,1692,2021,2557,2356,51,2833,3337,0.460,3.790,7.008,0.563,0.588,0.464,1.231,-3.503,9.280,0.000,-0.013,0.014,sad
6.60,0,0,0,0,0,0,0,0,1369,1831,1701,2635,2408,2132,2185,3683,1.484,2.176,12.708,0.337,0.520,0.471,1.161,-3.493,9.373,0.003,-0.020,0.011,sad
6.61,0,0,0,0,0,0,0,0,2076,1829,1996,2681,2445,53,2886,3516,-0.170,-1.197,10.135,0.447,0.305,0.404,1.147,-3.469,9.369,0.010,0.029,0.019,sad
6.62,0,0,0,0,0,0,0,55,1929,1962,1799,2813,2504,106,2955,3836,-1.872,1.049,9.452,0.666,0.042,0.089,1.494,-3.448,9.060,0.023,0.054,0.022,sad
6.63,0,0,0,0,0,0,0,694,2104,1911,2062,2743,2393,46,2807,3609,-0.462,1.250,10.254,0.777,-0.360,-0.131,1.274,-3.452,9.280,0.016,0.046,0.025,sad
6.64,0,0,0,0,0,0,0,1335,2041,1797,1922,2601,2005,100,2457,3262,2.516,2.433,10.041,0.967,-0.440,-0.115,1.226,-3.438,9.292,0.006,0.003,0.016,sad
6.65,0,0,0,0,0,0,135,1861,1437,2136,1768,3015,2187,1426,2493,3800,3.139,2.425,9.797,0.878,-0.369,-0.087,1.130,-3.376,9.364,-0.023,-0.014,0.017,sad
6.66,0,0,0,0,0,0,297,2256,2415,2201,2178,3044,2121,47,2263,3800,2.897,2.804,9.821,0.825,-0.407,0.044,1.228,-3.393,9.385,-0.041,0.030,0.031,sad
6.67,0,0,0,0,0,0,494,2517,2527,2181,2162,3050,1669,26,1743,3683,2.124,2.342,9.323,0.759,-0.178,-0.064,1.008,-3.522,9.730,-0.043,0.058,0.041,sad
6.68,0,0,0,0,61,0,708,2707,2638,2132,2190,3067,1509,41,1416,3561,2.219,2.861,9.675,0.706,-0.174,-0.057,1.204,-3.436,9.278,-0.072,0.015,0.026,sad
6.69,0,0,0,0,227,0,931,2850,2646,2137,2060,3077,1485,23,1241,3444,1.714,2.885,9.608,0.659,-0.249,0.022,1.152,-3.472,9.321,-0.082,-0.003,0.026,sad
6.70,0,0,0,0,675,0,1297,2960,2825,2223,2183,3123,1299,47,1021,3153,4.724,4.870,9.685,0.459,0.055,-0.026,1.204,-3.567,9.409,-0.103,0.056,0.032,sad
6.71,0,340,0,0,727,0,1478,3059,2954,2149,2162,3156,887,47,685,2743,1.750,3.397,9.857,0.309,0.361,-0.173,1.305,-3.496,9.383,-0.139,0.102,0.037,sad
6.72,0,572,0,0,658,0,1745,2944,2979,2009,2178,3145,815,47,519,2489,2.030,3.290,9.627,0.209,0.326,-0.193,1.286,-3.572,9.373,-0.160,0.108,0.029,sad
6.73,0,1053,0,0,976,0,1977,3234,3063,1821,2106,3171,571,47,295,1901,1.484,2.916,9.500,0.202,0.407,-0.207,1.343,-3.680,9.378,-0.188,0.118,0.020,sad
6.74,0,1486,0,0,1200,0,2043,3287,3255,1727,2216,3339,326,3,1,1389,1.954,3.014,9.476,0.252,0.475,-0.228,1.279,-3.948,9.292,-0.302,0.142,-0.017,sad
6.75,19,1758,0,0,1518,0,2123,3331,3336,1618,2198,3358,205,5,3,1307,1.374,3.613,9.950,0.174,0.232,-0.202,1.010,-3.134,9.395,-0.357,0.160,-0.036,sad
6.76,130,1987,119,0,1518,0,2177,3354,3447,1459,2216,3413,31,3,1,1213,1.408,3.598,9.723,0.105,0.131,-0.134,1.602,-3.582,9.476,-0.440,0.195,-0.118,sad
6.77,240,2124,433,0,1611,0,2204,3382,3507,1205,2208,3465,0,0,0,1053,1.547,3.381,9.618,0.072,0.065,-0.067,0.929,-4.113,9.380,-0.511,0.248,-0.162,sad
6.78,239,2256,781,221,1647,0,2272,3393,3537,1245,2198,3491,1,0,0,931,1.537,3.338,9.517,0.120,0.138,-0.062,1.025,-3.776,8.768,-0.617,0.156,-0.179,sad
6.79,286,2359,1121,506,1728,0,2320,3425,3561,1289,2280,3559,0,0,0,640,1.532,3.261,9.443,0.081,0.061,-0.043,1.314,-4.245,9.443,-0.661,0.335,-0.193,sad
6.80,304,2446,1424,670,1895,0,2361,3430,3652,703,2075,3507,0,0,0,461,1.563,3.266,9.380,0.071,0.031,-0.026,1.446,-4.503,9.385,-0.752,0.433,-0.160,sad
6.81,375,2509,1607,832,1974,0,2426,3450,3596,392,2224,3496,0,1,0,334,1.444,3.225,9.421,0.070,0.040,-0.032,1.360,-4.463,9.187,-0.844,0.494,-0.165,sad
6.82,430,2544,1755,960,2015,0,2485,3479,1635,2554,1474,2492,2569,1679,1580,3109,1.496,3.282,9.428,0.055,0.011,-0.013,1.128,-4.302,8.564,-1.033,0.702,-0.105,sad
6.83,438,2608,1827,1008,2064,0,2546,3503,1620,2555,1205,2409,2568,1675,1578,3100,1.511,3.199,9.395,0.035,-0.000,0.003,0.802,-4.594,8.909,-1.219,0.774,0.050,sad
6.84,448,2672,1925,1078,2163,0,2662,3526,1608,2549,980,2477,2571,1673,1577,3101,1.472,3.151,9.347,0.061,-0.011,0.006,0.627,-4.566,9.002,-1.399,0.736,0.208,sad
6.85,473,2734,2026,1088,2221,0,2740,3542,1599,2553,0,2479,2570,1672,1575,3087,1.616,3.199,9.301,0.081,-0.037,-0.005,0.773,-5.509,9.134,-1.613,0.745,0.625,sad
6.86,491,2786,2091,1150,2369,0,2799,3554,1597,2557,0,2587,2570,1669,1574,3101,1.678,3.263,9.340,0.064,-0.037,-0.003,0.977,-5.804,10.101,-1.850,0.536,1.240,sad
6.87,485,2798,2147,1214,2469,0,2819,3521,1603,2551,0,2479,2638,1561,1575,3101,1.616,3.213,9.275,0.063,-0.019,-0.011,0.924,-6.560,8.825,-1.909,0.508,1.511,sad
6.88,540,2847,2252,1264,2539,0,2914,3579,1590,2553,0,2460,2635,1671,1573,3101,1.537,3.196,9.273,0.095,-0.027,-0.010,0.690,-6.902,7.817,-1.682,0.765,2.005,sad
6.89,552,2891,2318,1287,2636,0,2946,3583,1587,2552,0,2484,2573,1685,1575,3101,1.614,3.268,9.280,0.095,-0.023,-0.008,-0.316,-7.487,7.769,-1.129,0.802,2.150,sad
6.90,560,2927,2401,1315,2687,0,2981,3583,1587,2553,0,2479,2628,1673,1574,3112,1.700,3.275,9.280,0.080,-0.007,-0.011,0.177,-6.357,9.510,-0.562,0.738,2.237,sad
6.91,577,2960,2454,1351,2772,0,3010,3583,1529,2577,0,2456,2537,1703,1598,3093,1.657,3.242,9.313,0.071,-0.002,-0.004,7.523,-4.243,9.428,0.726,0.404,0.957,sad
6.92,592,2991,2421,1406,2816,0,2992,3583,1533,2575,0,2457,2543,1703,1605,3095,1.669,3.203,9.227,0.088,0.005,-0.013,3.239,-1.669,7.934,0.742,-0.168,-0.686,sad
6.93,608,3008,2550,1441,2854,0,3038,3583,1533,2578,0,2461,2543,1700,1597,3095,1.731,3.263,9.309,0.098,-0.002,-0.013,0.939,-1.487,9.517,0.920,-0.326,-0.791,sad
6.94,694,3042,2608,1506,2886,0,3051,3583,1583,2554,0,2479,2572,1675,1575,3083,1.664,3.352,9.246,0.091,-0.001,-0.010,-0.381,-1.609,10.075,1.512,-0.574,-0.581,sad
6.95,695,3082,2630,1535,2943,0,3047,3571,1587,2547,0,2476,2555,1675,1577,3101,1.609,3.287,9.306,0.093,0.005,-0.010,-0.376,-1.726,9.371,1.767,-0.879,-0.240,sad
6.96,720,3099,2718,1632,2960,0,3068,3559,1577,2555,0,2477,2571,1674,1576,3101,1.664,3.191,9.242,0.136,-0.003,-0.025,0.527,-2.330,9.838,1.879,-0.952,-0.210,sad
6.97,771,3126,2774,1741,2997,0,3071,3558,1533,2583,0,2456,2541,1704,1581,3093,1.762,3.438,9.232,0.149,-0.007,-0.025,0.800,-2.782,9.902,1.978,-1.041,-0.425,sad
6.98,799,3138,2617,1827,2998,0,2941,3537,1575,2567,0,2473,2567,1685,1627,3096,1.580,3.440,9.278,0.135,-0.004,-0.026,0.304,-3.010,10.496,1.923,-1.092,-0.621,sad
6.99,862,3204,2903,1929,3063,0,3091,3542,1580,2557,0,2478,2583,1679,1577,3101,1.642,3.376,9.321,0.116,-0.002,-0.017,0.060,-3.261,11.121,1.881,-1.100,-0.649,sad
7.00,898,3231,2934,1985,3088,0,3101,3536,1581,2556,0,2479,2573,1677,1577,3101,1.776,3.436,9.210,0.099,0.010,-0.011,-0.273,-3.378,10.812,1.840,-0.927,-0.577,sad
7.01,931,3237,2953,2032,3120,0,3091,3535,1609,2585,0,2459,2547,1699,1597,3096,1.738,3.436,9.263,0.113,0.013,-0.022,-0.934,-3.445,10.635,1.511,-0.796,-0.375,sad
7.02,973,3283,3023,2096,3145,0,3095,3514,1541,2581,0,2459,2548,1674,1597,3095,1.642,3.510,9.364,0.097,-0.011,-0.038,-0.946,-3.785,10.879,1.289,-0.964,-0.351,sad
7.03,1023,3301,3056,2137,3153,0,3091,3502,1524,2580,0,2453,2543,1704,1605,3167,1.726,3.460,9.234,0.094,-0.006,-0.021,-0.510,-4.647,10.364,0.819,-1.267,-0.358,sad
7.04,1056,3325,3056,2187,3184,0,3071,3491,1556,2579,0,2459,2532,1701,1597,3064,1.757,3.455,9.208,0.100,-0.001,-0.033,-0.395,-6.390,11.574,0.464,-1.373,-0.330,sad
7.05,1079,3333,3120,2224,3200,0,3084,3462,1555,2575,0,2464,2552,1699,1593,3097,1.731,3.426,9.208,0.135,-0.006,-0.041,-0.045,-8.138,13.661,0.642,-1.216,-0.264,sad
7.06,1131,3371,3150,2293,3216,0,3058,3424,1557,2571,0,2467,2553,1693,1591,3097,1.755,3.448,9.172,0.125,-0.016,-0.033,-0.790,-8.396,12.002,1.383,-1.145,-0.237,sad
7.07,1171,3386,3157,2350,3235,0,3039,3392,1553,2577,0,2463,2551,1695,1595,2975,1.733,3.541,9.158,0.121,0.009,-0.031,-1.700,-7.219,7.697,1.393,-1.013,-0.234,sad
7.08,1216,3403,3200,2390,3247,0,3019,3358,1555,2573,0,2467,2552,1692,1592,3068,1.738,3.469,9.136,0.114,0.016,-0.037,-1.618,-7.269,6.610,1.187,-0.800,-0.248,sad
7.09,1277,3423,3248,2436,3250,0,3008,3302,1554,2459,0,2463,2552,1694,1589,3095,1.695,3.560,9.175,0.116,0.005,-0.038,-0.299,-8.085,5.114,0.801,-0.092,-0.303,sad
7.10,1311,3439,3253,2479,3263,0,2963,3234,1565,2569,0,2471,2541,1686,1621,3096,1.745,3.649,9.225,0.101,0.005,-0.026,-1.032,-8.095,3.407,0.222,0.059,-0.426,sad
7.11,1360,3459,3315,2529,3279,0,2949,3159,1561,2557,0,2473,2557,1704,1583,3119,1.772,3.661,9.184,0.092,0.004,-0.029,-0.043,-7.841,3.395,-0.180,0.195,-0.541,sad
7.12,1360,3474,3335,2559,3285,0,2911,3058,1549,2535,0,2463,2551,1699,1596,3097,1.755,3.579,9.191,0.110,-0.009,-0.025,1.468,-2.878,9.807,-0.723,1.318,-1.021,sad
7.13,1225,3279,3153,2385,3061,0,2660,2711,1541,2581,0,2457,2547,1715,1598,3093,1.793,3.646,9.187,0.095,0.020,-0.001,2.145,-0.117,12.026,-0.451,0.853,-0.996,sad
7.14,1322,3524,3386,2631,3279,0,2733,2737,1532,2581,0,2457,2541,1703,1607,2967,1.762,3.589,9.177,0.096,0.048,-0.015,-0.247,-0.558,8.971,-0.573,0.761,-0.660,sad
7.15,1202,3538,3407,2671,3266,0,2559,2499,1533,2582,0,2459,2547,1703,1599,3095,1.820,3.448,9.165,0.112,0.038,-0.052,-3.606,-0.606,10.130,-0.700,0.385,-0.172,sad
7.16,1383,3568,3406,2617,3238,0,2384,2187,1507,2579,0,2335,2547,1695,1597,3096,1.757,3.527,9.266,0.166,0.002,-0.066,-0.702,-3.134,11.358,-1.004,-0.497,0.244,sad
7.17,1632,3578,3443,2723,3184,0,2057,1567,0,0,0,0,0,0,328,1717,1.731,3.589,9.196,0.230,-0.003,-0.037,2.064,-3.002,9.692,-0.926,-0.663,0.153,sad
7.18,1895,3600,3456,2747,3102,0,1433,777,21,0,135,0,0,0,799,2302,1.767,3.797,9.158,0.274,0.014,-0.043,3.675,-3.323,9.558,-0.988,-0.497,0.129,sad
7.19,2103,3421,3462,2688,2884,0,990,0,1544,2581,0,2393,2529,1710,1599,3176,1.697,3.733,9.072,0.301,0.067,-0.036,4.329,-3.213,8.145,-0.532,0.296,0.130,sad
7.20,2167,3641,3428,2741,2592,0,490,0,1561,2581,0,2460,2547,1699,1599,3089,1.640,3.828,9.134,0.274,0.076,-0.046,1.796,-3.364,9.742,-0.326,0.734,0.336,sad
7.21,2304,3633,3476,2777,2127,0,199,0,1568,2568,0,2471,2555,1685,1589,3097,1.645,4.001,9.050,0.303,0.077,-0.048,1.999,-2.763,9.103,-0.205,0.592,0.263,sad
7.22,2339,3625,3455,2740,1509,0,0,0,0,0,2,0,101,0,1596,3031,1.635,3.570,9.124,0.414,0.064,-0.035,1.638,-3.182,9.694,-0.161,0.338,0.207,sad
7.23,2381,3621,3485,2686,1308,0,0,0,0,0,0,0,138,0,1749,3119,1.745,3.967,8.969,0.458,0.103,-0.012,1.683,-3.663,10.063,-0.085,0.260,0.166,sad
7.24,2414,3608,3475,2631,864,0,0,0,9,0,0,0,404,0,1867,3157,1.805,3.946,8.784,0.476,0.122,0.018,1.432,-3.100,9.732,-0.024,0.191,0.097,sad
7.25,2427,3583,3463,2559,711,0,0,0,1563,2546,0,2469,2577,1673,1579,3097,1.753,4.120,8.950,0.484,0.128,0.030,1.609,-3.057,9.613,-0.059,0.148,0.044,sad
7.26,2447,3552,3402,2512,738,0,0,0,4,212,5,9,530,0,2381,3653,1.714,4.266,8.892,0.527,0.103,0.066,1.743,-3.153,9.524,-0.003,-0.046,-0.032,sad
7.27,2467,3506,3397,2430,479,0,0,0,0,237,0,11,543,0,2327,3373,1.700,4.487,8.928,0.507,0.169,0.087,1.633,-3.151,9.594,0.019,-0.090,-0.053,sad
7.28,2445,3412,3339,2383,592,0,0,0,22,121,7,59,411,22,2152,2985,1.867,4.451,8.825,0.538,0.187,0.083,1.800,-2.914,9.278,0.000,-0.059,-0.032,sad
7.29,2439,3266,3216,2310,64,0,0,0,0,212,2,7,808,0,2572,3400,1.652,4.542,8.751,0.539,0.201,0.089,1.750,-3.024,9.491,0.047,-0.066,-0.011,sad
7.30,2437,3060,3138,2203,0,0,0,0,0,292,2,25,859,0,2623,3382,1.595,4.604,8.722,0.576,0.203,0.069,1.753,-2.873,9.294,0.019,-0.033,-0.025,sad
7.31,2480,2890,2992,2087,0,0,0,0,5,357,15,26,969,0,2705,3299,1.487,4.480,8.557,0.659,0.179,0.054,1.817,-2.962,9.471,0.009,0.006,0.005,sad
7.32,2503,2699,2832,1989,0,0,0,0,17,303,12,104,1099,67,2995,3771,1.697,4.791,8.684,0.739,0.205,0.066,1.822,-3.024,9.510,0.000,0.030,0.027,sad
7.33,2531,2307,2737,1872,0,0,0,0,6,315,20,105,1235,0,3066,3895,1.415,4.721,8.837,0.766,0.102,-0.018,1.729,-3.084,9.522,0.023,0.026,0.022,sad
7.34,2528,2000,2512,1665,0,0,0,0,10,297,33,107,1233,3,2932,3619,1.243,5.095,8.705,1.051,0.183,-0.062,1.736,-2.933,9.357,0.025,-0.002,0.011,sad
7.35,2470,1746,2055,1482,0,0,0,0,1598,2553,12,2479,2571,1679,1579,3101,1.511,5.274,8.964,1.252,0.169,-0.112,1.812,-3.021,9.536,0.004,0.087,0.026,sad
7.36,2203,1286,1381,1234,0,0,0,0,1605,2549,117,2477,2569,1675,1577,3100,1.439,5.284,9.268,1.524,-0.141,-0.250,1.788,-3.002,9.380,0.026,0.083,0.027,sad
7.37,1533,1037,286,741,0,0,0,0,1603,2552,17,2478,2569,1677,1579,3095,1.997,6.045,9.026,1.967,-0.166,-0.560,1.889,-3.012,9.390,0.031,0.056,0.002,sad
7.38,1146,687,0,128,0,0,0,0,1609,2553,23,2476,2567,1675,1558,3101,1.875,7.259,8.373,1.988,0.038,-0.854,1.927,-2.945,9.376,0.020,0.055,0.001,sad
7.39,694,259,0,0,0,0,0,0,1607,2543,17,2479,2569,1673,1577,3100,1.626,6.189,9.218,1.466,0.181,-1.181,1.810,-3.093,9.546,0.020,0.058,0.003,sad
7.40,185,68,0,0,0,0,0,0,24,345,386,139,1715,3,3475,4075,1.185,5.023,9.498,0.719,0.516,-1.389,1.853,-2.895,9.306,0.020,0.017,0.020,sad
7.41,0,26,0,0,0,0,0,0,3,358,23,173,1741,1,3445,4028,0.895,3.371,10.367,0.187,0.342,-1.512,1.796,-2.780,9.153,0.013,0.050,0.034,sad
7.42,0,0,0,0,0,0,0,0,0,341,5,191,1767,0,3480,4071,0.302,2.042,11.401,-0.515,0.435,-1.837,1.796,-3.010,9.347,0.002,0.064,0.042,sad
7.43,0,0,0,0,0,0,0,0,2,365,0,229,1827,0,3534,4095,2.071,4.034,10.075,-0.503,0.127,-1.514,1.776,-2.962,9.373,-0.003,0.078,0.052,sad
7.44,0,0,0,0,0,0,0,0,0,341,0,233,1849,0,3528,4095,2.282,2.449,9.725,-0.918,-0.057,-1.330,1.870,-2.983,9.199,-0.011,0.104,0.057,sad
7.45,0,0,0,0,0,0,0,0,0,345,28,277,1831,0,3589,4095,2.456,2.739,9.072,-1.136,-0.104,-1.144,1.815,-2.926,9.325,-0.019,0.149,0.076,sad
7.46,0,0,0,0,0,0,0,0,0,343,25,303,1943,0,3560,4095,2.844,3.033,8.772,-1.304,-0.172,-0.942,1.664,-2.954,9.536,-0.034,0.166,0.085,sad
7.47,0,0,0,0,0,0,0,0,0,359,0,381,1943,0,3527,4030,2.942,3.151,8.490,-1.423,-0.150,-0.705,1.765,-2.990,9.462,-0.027,0.153,0.081,sad
7.48,0,0,0,0,0,0,0,0,1,445,23,446,1943,0,3512,4005,3.093,3.294,8.080,-1.441,-0.218,-0.404,1.812,-2.969,9.280,-0.036,0.161,0.080,sad
7.49,0,0,0,0,0,0,0,0,21,421,15,549,1942,0,3445,3879,3.184,3.654,8.241,-1.415,-0.259,-0.072,1.671,-2.981,9.369,-0.046,0.169,0.089,sad
7.50,0,0,0,0,0,0,0,0,39,398,836,555,1829,19,3211,3555,3.050,4.116,8.686,-1.434,-0.297,0.253,1.635,-3.026,9.359,-0.037,0.150,0.095,sad
7.51,0,0,0,0,0,0,0,0,44,427,1005,627,1899,13,3223,3631,2.519,4.235,8.851,-1.427,-0.271,0.517,1.671,-3.007,9.359,-0.042,0.122,0.096,sad
7.52,0,0,0,0,0,0,0,0,53,333,1128,589,1879,26,3119,3452,1.793,4.360,8.978,-1.435,-0.268,0.687,1.635,-3.026,9.426,-0.053,0.103,0.100,sad
7.53,0,0,0,0,0,0,0,0,83,409,1254,719,2057,23,3319,3721,1.401,4.544,9.215,-1.450,-0.306,0.750,1.621,-3.108,9.615,-0.049,0.091,0.098,sad
7.54,0,0,0,0,0,0,0,0,139,493,1064,811,2119,28,3503,3783,1.688,4.736,9.483,-1.468,-0.297,0.798,1.647,-3.177,9.479,-0.044,0.094,0.096,sad
7.55,0,0,0,0,0,0,0,0,153,620,977,923,2231,33,3465,3893,1.824,4.796,9.495,-1.456,-0.284,0.872,1.595,-3.158,9.486,-0.028,0.076,0.078,sad
7.56,0,0,0,0,0,0,0,0,153,775,870,1093,2325,37,3541,3949,2.025,4.980,9.560,-1.453,-0.313,0.962,1.623,-3.062,9.452,-0.028,0.056,0.070,sad
7.57,0,0,0,0,0,0,0,0,157,826,519,1167,2395,33,3557,3989,2.200,4.985,9.567,-1.447,-0.310,1.045,1.630,-3.067,9.404,-0.048,0.039,0.069,sad
7.58,0,0,0,0,0,0,0,0,134,827,1136,1254,2427,30,3551,3955,2.116,4.915,9.342,-1.417,-0.294,1.135,1.678,-3.105,9.366,-0.049,0.037,0.069,sad
7.59,0,0,0,0,0,0,0,0,153,922,1512,1273,2487,40,3547,3945,1.963,4.752,9.251,-1.330,-0.255,1.200,1.628,-3.136,9.491,-0.045,0.033,0.069,sad
7.60,0,0,0,0,0,0,0,0,134,888,1591,1292,2431,33,3322,3683,1.985,5.042,9.574,-1.247,-0.255,1.256,1.539,-3.105,9.507,-0.039,0.028,0.065,sad
7.61,0,0,0,0,0,0,0,0,111,967,1737,1315,2428,31,3320,3663,1.846,5.052,9.594,-1.178,-0.193,1.309,1.607,-3.184,9.421,-0.034,0.022,0.056,sad
7.62,0,0,0,0,0,0,0,0,156,1003,1773,1335,2419,43,3263,3559,1.480,4.944,9.278,-1.081,-0.093,1.308,1.607,-3.084,9.407,-0.033,0.017,0.055,sad
7.63,0,0,0,0,0,0,0,0,205,1074,1778,1262,2471,44,3346,3543,0.924,5.083,9.416,-0.881,-0.105,1.187,1.592,-3.105,9.316,-0.066,0.027,0.079,sad
7.64,0,0,0,0,0,0,0,0,192,1046,1796,1164,2469,55,3209,3475,0.766,4.908,9.194,-0.711,-0.209,0.960,1.556,-3.182,9.481,-0.063,0.030,0.087,sad
7.65,0,0,0,0,0,0,0,0,136,987,1737,1117,2395,109,3093,3319,1.046,5.555,10.058,-0.602,-0.366,0.723,1.616,-3.235,9.433,-0.053,0.025,0.073,sad
7.66,0,0,0,0,0,0,0,0,167,1083,1737,1079,2463,101,3127,3355,1.365,5.842,10.745,-0.722,-0.403,0.605,1.563,-3.117,9.397,-0.065,0.026,0.079,sad
7.67,0,0,0,0,0,0,0,0,623,1224,1696,1827,2557,2111,2166,3607,1.190,5.533,10.307,-0.849,-0.380,0.547,1.542,-3.230,9.357,-0.057,0.025,0.083,sad
7.68,0,0,0,0,0,0,0,0,159,1436,1947,1397,2771,38,3467,3747,1.049,4.774,9.024,-0.852,-0.410,0.497,1.590,-3.237,9.409,-0.045,0.028,0.075,sad
7.69,0,0,0,0,0,0,0,0,217,1460,2009,1483,2853,43,3573,3813,0.946,5.061,9.067,-0.799,-0.514,0.460,1.511,-3.242,9.457,-0.048,0.039,0.079,sad
7.70,0,0,0,0,0,0,0,0,227,1372,1852,1398,2603,77,3151,3363,0.816,5.459,9.445,-0.882,-0.434,0.386,1.528,-3.256,9.385,-0.048,0.039,0.078,sad
7.71,0,0,0,0,0,0,0,0,1615,2571,1387,2483,2572,1669,1575,3101,-0.122,5.308,8.540,-0.936,-0.382,0.239,1.480,-3.256,9.373,-0.040,0.107,0.065,sad
7.72,0,0,0,0,0,0,0,0,264,1723,2044,1773,2981,47,3670,3976,-0.204,4.970,7.216,-0.787,-0.325,-0.008,1.535,-3.297,9.321,-0.032,0.042,0.077,sad
7.73,0,0,0,0,0,0,0,0,589,1718,1405,1781,2984,111,3673,4007,0.651,5.243,6.845,-0.548,-0.277,-0.154,1.492,-3.261,9.258,-0.030,0.044,0.072,sad
7.74,0,0,0,0,0,0,0,0,301,1759,2083,1913,3013,48,3660,3931,1.089,5.337,6.553,-0.257,-0.150,-0.103,1.611,-3.345,9.333,-0.023,0.051,0.074,sad
7.75,0,0,0,0,0,0,0,0,376,1831,2037,1975,2889,29,3470,3763,1.250,5.459,6.340,0.022,-0.045,0.046,1.456,-3.304,9.376,-0.030,0.054,0.078,sad
7.76,0,0,0,0,0,0,0,0,399,1883,1965,1926,2909,51,3447,3758,3.400,5.935,3.347,0.676,0.704,0.341,1.448,-3.275,9.311,-0.034,0.047,0.076,sad
7.77,0,0,0,0,0,0,0,0,406,1885,2016,2071,2900,70,3403,3720,0.180,3.369,9.316,0.438,1.092,0.317,1.556,-3.287,9.306,-0.025,0.054,0.075,sad
7.78,0,0,0,0,0,0,0,0,461,1916,2024,2057,2841,51,3319,3636,1.616,1.214,11.758,0.484,0.628,0.566,1.556,-3.294,9.330,-0.039,0.049,0.080,sad
7.79,0,0,0,0,0,0,0,0,485,2071,2147,2187,3061,47,3607,3955,1.417,-0.527,10.020,0.519,0.595,0.614,1.496,-3.232,9.225,-0.039,0.058,0.088,sad
7.80,0,0,0,0,0,0,0,0,551,2105,2152,2227,3018,48,3541,3933,-0.508,0.800,9.335,0.860,0.278,0.531,1.496,-3.314,9.357,-0.039,0.058,0.094,sad
7.81,0,0,0,0,0,0,0,88,663,2169,2195,2343,3031,59,3515,3935,-1.343,1.834,10.360,0.819,0.160,0.372,1.439,-3.326,9.390,-0.040,0.055,0.084,sad
7.82,0,0,0,0,0,0,0,890,1045,2218,2142,2475,3016,47,3421,3893,-1.003,0.970,10.477,0.929,-0.179,-0.072,1.508,-3.318,9.378,-0.060,0.044,0.068,sad
7.83,0,0,0,0,0,0,169,1489,1500,2269,2144,2483,2949,47,3181,3769,2.739,3.316,10.494,0.918,-0.360,-0.257,1.472,-3.309,9.318,-0.087,0.050,0.078,sad
7.84,0,0,0,0,0,0,378,2055,1653,2345,2178,2519,2959,47,3015,3803,4.046,2.986,9.596,0.784,-0.361,-0.131,1.432,-3.371,9.275,-0.111,0.056,0.086,sad
7.85,0,0,0,0,0,0,645,2427,2183,2479,2190,2703,2843,47,2348,3720,3.086,2.837,9.550,0.713,-0.278,0.001,1.432,-3.440,9.462,-0.114,0.053,0.067,sad
7.86,0,0,0,0,10,0,877,2656,2423,2538,2193,2813,2565,47,1990,3563,1.729,2.801,9.780,0.626,-0.222,-0.021,1.405,-3.472,9.323,-0.132,0.064,0.063,sad
7.87,0,0,0,0,206,0,1082,2807,2599,2591,2190,2854,2325,51,1687,3388,2.631,2.710,9.194,0.657,-0.222,-0.031,1.398,-3.481,9.282,-0.139,0.055,0.063,sad
7.88,0,64,0,0,590,0,1473,2942,2806,2663,2183,2975,1843,47,1103,2952,3.184,2.816,8.538,0.398,0.170,-0.086,1.358,-3.534,9.297,-0.145,0.057,0.054,sad
7.89,0,362,0,0,767,0,1758,3071,2935,2649,2157,2974,1275,0,560,2359,1.312,3.871,10.942,0.298,0.254,-0.139,1.396,-3.472,9.280,-0.170,0.082,0.047,sad
7.90,0,730,0,0,912,0,1997,3181,2939,2615,2152,3013,1179,45,535,2031,2.399,3.445,9.881,0.189,0.232,-0.141,1.290,-3.773,9.342,-0.175,0.085,0.056,sad
7.91,0,990,0,0,1149,0,2064,3269,3115,2461,2308,3161,773,42,201,1383,2.337,3.115,9.443,0.092,0.272,-0.144,1.444,-3.474,9.378,-0.252,0.136,0.026,sad
7.92,0,1265,0,0,1390,0,2192,3329,3237,1963,2188,3278,553,5,5,1333,1.968,3.105,9.531,0.073,0.285,-0.106,1.250,-3.840,8.997,-0.371,0.171,-0.060,sad
7.93,0,1424,0,0,1535,0,2239,3379,3324,1909,2218,3307,311,6,3,1223,2.231,2.799,9.182,0.021,0.244,-0.109,1.279,-3.625,9.299,-0.376,0.210,-0.063,sad
7.94,0,1597,0,0,1509,0,2289,3408,3461,1871,2193,3365,115,5,2,1092,2.073,3.026,9.361,0.111,0.339,-0.137,1.298,-3.816,9.232,-0.473,0.224,-0.121,sad
7.95,0,1744,0,0,1615,0,2323,3429,3525,1515,2221,3405,0,1,0,775,1.872,3.024,9.373,0.132,0.387,-0.167,1.578,-3.946,9.191,-0.586,0.269,-0.153,sad
7.96,0,1879,30,0,1735,0,2399,3446,3608,1395,2121,3437,0,1,45,543,1.697,3.055,9.570,0.100,0.303,-0.154,1.633,-4.520,10.350,-0.603,0.296,-0.167,sad
7.97,0,2064,195,0,1884,0,2419,3462,3602,1195,2249,3353,5,0,12,379,1.676,3.069,9.469,0.110,0.248,-0.137,1.664,-4.231,9.194,-0.764,0.354,-0.137,sad
7.98,46,2173,374,0,1937,0,2299,3469,3612,1011,2244,3428,0,1,0,304,1.913,3.268,9.325,0.086,0.165,-0.110,1.508,-4.262,9.325,-0.881,0.485,-0.167,sad
7.99,65,2309,811,71,2065,0,2539,3494,3631,724,2239,3406,1,2,5,265,1.678,3.249,9.371,0.065,0.119,-0.058,1.489,-4.599,9.117,-0.999,0.539,-0.159,sad
8.00,176,2440,1200,345,2138,0,2617,3508,3682,366,2121,3295,0,2,19,167,1.678,3.191,9.383,0.049,0.096,-0.037,0.946,-4.544,9.153,-1.225,0.644,-0.019,sad
8.01,228,2517,1535,526,2262,0,2673,3532,3647,19,1597,2996,0,0,0,147,1.597,3.029,9.359,0.072,0.075,-0.042,1.178,-5.085,8.947,-1.506,0.707,0.218,sad
8.02,208,2384,1629,656,2189,0,2513,3317,3615,12,0,2835,0,0,0,122,1.640,3.256,9.421,0.111,0.015,-0.042,1.070,-5.133,9.543,-1.666,0.676,0.433,sad
8.03,336,2701,1971,919,2442,0,2800,3547,3477,0,0,2158,0,0,0,101,1.678,3.156,9.373,0.102,0.019,-0.024,1.405,-5.521,10.029,-1.866,0.476,1.067,sad
8.04,323,2750,2082,976,2527,0,2859,3563,1595,2553,0,2503,2573,1672,1574,3102,1.748,3.151,9.237,0.105,0.025,-0.025,1.530,-7.077,9.251,-2.023,0.323,1.647,sad
8.05,404,2820,2234,1088,2624,0,2913,3568,1591,2555,0,2479,2577,1658,1573,3103,1.745,3.110,9.275,0.123,-0.005,-0.027,1.271,-7.156,9.852,-1.777,0.642,1.940,sad
8.06,530,2864,2355,1178,2690,0,2973,3575,1673,2553,0,2483,2573,1673,1541,3103,1.700,3.189,9.297,0.128,-0.002,-0.030,0.881,-6.716,9.153,-1.159,0.636,2.203,sad
8.07,496,2921,2432,1270,2755,0,3001,3578,1555,2569,0,2468,2555,1688,1576,3095,1.700,3.199,9.239,0.138,-0.009,-0.034,4.990,-1.848,11.097,0.370,0.584,1.934,sad
8.08,481,2917,2559,1325,2781,0,3040,3517,1547,2577,0,2449,2544,1693,1592,3095,1.877,3.242,9.242,0.173,-0.001,-0.027,6.419,-3.704,9.754,0.444,-0.058,0.606,sad
8.09,547,3013,2656,1441,2898,0,3051,3562,1529,2583,0,2456,2541,1707,1607,3094,1.724,3.261,9.282,0.168,0.015,-0.031,2.887,-0.603,8.796,0.815,-0.201,-0.108,sad
8.10,598,3071,2697,1535,2955,0,3035,3538,1579,2557,0,2477,2569,1671,1580,3099,1.705,3.402,9.349,0.128,-0.011,-0.028,0.965,-0.795,9.522,1.238,-0.588,-0.213,sad
8.11,634,3107,2786,1645,2989,0,3056,3536,1575,2565,74,2475,2567,1678,1580,3097,1.798,3.364,9.304,0.111,0.005,-0.023,0.596,-1.097,9.840,1.457,-0.734,-0.158,sad
8.12,675,3157,2843,1731,3018,0,3050,3522,1573,2555,151,2475,2536,1681,1581,3099,1.726,3.352,9.239,0.110,0.013,-0.023,0.350,-1.724,10.187,1.832,-1.018,-0.115,sad
8.13,721,3177,2706,1807,3040,0,2993,3518,1589,2553,0,2484,2577,1723,1573,3102,1.726,3.349,9.222,0.090,0.013,-0.016,0.306,-1.750,10.056,2.039,-1.187,-0.187,sad
8.14,735,3203,2944,1890,3095,0,3062,3521,1582,2555,0,2467,2572,1675,1577,3102,1.681,3.376,9.282,0.077,0.022,-0.020,0.536,-2.265,10.338,2.085,-1.219,-0.277,sad
8.15,758,3219,2977,1931,3110,0,3070,3515,1524,2589,0,2447,2539,1711,1611,3093,1.695,3.345,9.234,0.083,0.026,-0.023,0.311,-2.799,11.475,2.125,-1.321,-0.546,sad
