timestamp,L1,L2,L3,L4,L5,L6,L7,L8,R1,R2,R3,R4,R5,R6,R7,R8,acc_x_left,acc_y_left,acc_z_left,gyro_x_left,gyro_y_left,gyro_z_left,acc_x_right,acc_y_right,acc_z_right,gyro_x_right,gyro_y_right,gyro_z_right,mood
0.00,891,3178,2257,425,1451,0,0,0,1619,2555,1440,2488,2577,1673,1580,3093,1.290,3.587,9.206,0.066,0.044,-0.025,1.240,-3.551,9.347,-0.006,0.067,0.006,sad
0.01,884,3165,2256,400,1348,0,0,0,1621,2553,1443,2489,2572,1673,1579,3109,1.334,3.606,9.187,0.076,0.031,-0.033,1.252,-3.551,9.371,0.005,0.065,0.007,sad
0.02,816,3170,2288,357,1282,0,0,0,1678,2555,1443,2477,2580,1669,1577,3108,1.188,3.615,9.266,0.118,0.034,-0.045,1.367,-3.601,9.433,0.000,0.077,0.004,sad
0.03,809,3163,2274,428,1226,0,0,0,1620,2548,1446,2463,2573,1673,1579,3110,1.334,3.728,9.249,0.113,0.037,-0.068,1.255,-3.524,9.337,-0.003,0.074,0.006,sad
0.04,765,3147,2292,469,1118,0,0,0,1621,2553,1492,2487,2572,1672,1579,3109,1.255,3.697,9.062,0.081,0.057,-0.070,1.305,-3.541,9.239,-0.009,0.069,0.008,sad
0.05,738,3122,2304,432,970,0,0,0,1619,2553,1399,2477,2571,1671,1579,3133,1.458,3.579,9.055,0.105,0.043,-0.085,1.250,-3.486,9.282,-0.009,0.071,0.012,sad
0.06,725,3103,2311,482,892,0,0,0,1619,2558,1466,2473,2572,1671,1578,3100,1.226,3.783,9.110,0.086,0.044,-0.081,1.314,-3.539,9.325,-0.007,0.070,0.008,sad
0.07,762,3054,2303,506,699,0,0,0,1659,2553,1458,2487,2572,1669,1577,3111,1.195,3.845,9.136,0.046,0.078,-0.062,1.274,-3.512,9.352,-0.001,0.066,0.007,sad
0.08,778,3003,2301,555,565,0,0,0,1605,2555,1461,2487,2577,1675,1580,3109,0.996,3.673,9.105,0.029,0.086,-0.027,1.250,-3.539,9.287,0.004,0.067,0.013,sad
0.09,841,3003,2310,585,537,0,0,0,1623,2557,1466,2491,2579,1654,1581,3111,1.140,3.776,9.141,0.067,0.038,-0.021,1.302,-3.529,9.294,-0.000,0.064,0.012,sad
0.10,865,3005,2321,607,601,0,0,0,2173,1571,1881,2408,2615,109,2889,3128,1.132,3.809,9.199,0.050,0.032,-0.013,1.329,-3.522,9.328,0.000,0.011,0.023,sad
0.11,958,3001,2326,610,657,0,0,0,1647,2527,1612,2527,2537,1785,1628,3131,1.183,3.821,9.184,0.025,0.043,-0.007,1.305,-3.546,9.364,0.000,0.041,0.015,sad
0.12,959,2993,2311,619,566,0,0,0,1625,2547,1456,2469,2579,1668,1581,3164,1.188,3.802,9.234,0.015,0.034,-0.010,1.353,-3.560,9.285,0.002,0.071,0.004,sad
0.13,963,2980,2291,618,531,0,0,0,1627,2554,1469,2491,2582,1679,1583,3069,1.180,3.713,9.151,0.017,0.030,-0.010,1.300,-3.481,9.409,0.006,0.072,0.002,sad
0.14,951,2975,2271,621,614,0,0,0,1627,2557,1463,2525,2583,1675,1580,3109,1.173,3.713,9.172,0.025,0.023,-0.003,1.257,-3.508,9.301,0.013,0.066,0.004,sad
0.15,969,2980,2263,629,754,0,0,0,1624,2555,1466,2488,2579,1675,1579,3101,1.221,3.723,9.167,0.029,0.026,0.001,1.314,-3.534,9.297,0.013,0.079,0.001,sad
0.16,957,2982,2262,643,675,0,0,0,1627,2555,1461,2491,2577,1675,1582,3111,1.116,3.601,9.131,0.051,0.024,-0.006,1.312,-3.536,9.352,0.017,0.070,0.004,sad
0.17,967,2999,2304,656,711,0,0,0,1625,2556,1469,2479,2579,1675,1582,3112,1.109,3.658,9.139,0.086,0.001,-0.008,1.298,-3.474,9.285,0.025,0.080,0.001,sad
0.18,961,3038,2365,665,733,0,0,0,1630,2539,1461,2495,2579,1675,1579,3111,1.221,3.510,9.153,0.141,-0.023,-0.025,1.324,-3.508,9.301,0.028,0.078,-0.007,sad
0.19,961,3082,2422,610,702,0,0,0,1625,2565,1451,2487,2584,1699,1621,3111,1.338,3.658,9.210,0.264,-0.003,-0.005,1.293,-3.500,9.263,0.025,0.078,0.001,sad
0.20,964,3117,2438,528,617,0,0,0,1645,2557,1448,2491,2582,1676,1582,3112,1.204,3.500,9.057,0.300,0.014,-0.001,1.283,-3.464,9.263,0.020,0.085,0.003,sad
0.21,943,3125,2415,607,272,0,0,0,1625,2557,1453,2492,2581,1677,1582,3113,1.288,3.800,9.136,0.391,0.037,0.032,1.317,-3.431,9.318,-0.009,0.103,0.015,sad
0.22,1023,3120,2363,493,195,0,0,0,1627,2567,1451,2494,2591,1676,1583,3113,1.444,4.049,9.041,0.416,0.065,0.034,1.329,-3.460,9.366,-0.022,0.106,0.023,sad
0.23,1023,3089,2327,595,0,0,0,0,1627,2566,1205,2493,2580,1677,1583,3115,1.300,4.168,9.045,0.381,0.117,0.040,1.295,-3.524,9.294,-0.029,0.083,0.024,sad
0.24,1162,2999,2287,581,64,0,0,0,2521,1952,2121,2797,2991,53,3304,3710,1.087,4.300,8.973,0.320,0.151,0.032,1.267,-3.560,9.316,-0.018,0.031,0.024,sad
0.25,1124,2925,2243,528,0,0,0,0,2539,1955,2126,2827,3107,109,3304,3677,1.041,4.293,8.969,0.241,0.123,0.031,1.252,-3.555,9.333,-0.008,0.030,0.024,sad
0.26,1193,2807,2186,546,0,0,0,0,2493,1910,2142,2833,3049,47,3316,3679,1.214,4.221,9.036,0.221,0.120,0.007,1.300,-3.546,9.311,0.008,0.020,0.010,sad
0.27,1231,2628,2027,481,0,0,0,0,2567,1941,2034,2839,3021,48,3333,3693,0.883,4.372,9.352,0.233,0.114,-0.018,1.238,-3.551,9.290,0.022,0.011,0.001,sad
0.28,1054,2100,1227,236,0,0,0,0,2547,1879,2149,2840,3029,51,3341,3699,2.040,4.834,9.256,0.208,0.399,-0.131,1.305,-3.543,9.270,0.031,0.006,-0.002,sad
0.29,603,1083,0,0,0,0,0,0,2456,1709,2147,2805,3035,48,3341,3721,1.757,4.760,9.093,0.133,0.806,-0.343,1.334,-3.608,9.383,0.060,-0.012,-0.013,sad
0.30,48,62,0,0,0,0,0,0,2169,1624,2121,2729,3047,47,3356,3727,1.987,4.441,9.407,-0.089,1.139,-0.652,1.341,-3.598,9.335,0.134,-0.018,-0.047,sad
0.31,0,0,0,0,0,0,0,0,1619,1553,2147,2644,2991,47,3309,3761,6.486,6.227,9.464,0.108,0.732,0.126,1.281,-3.417,9.380,0.132,0.009,-0.050,sad
0.32,0,0,0,0,0,0,0,0,1143,1491,2147,2611,3051,47,3355,3773,5.799,4.233,10.384,-0.226,0.551,0.604,1.247,-3.378,9.392,0.127,0.011,-0.048,sad
0.33,0,0,0,0,0,0,0,0,941,1407,2144,2566,3061,51,3355,3788,3.139,2.138,8.100,-0.092,0.371,0.994,1.305,-3.400,9.414,0.119,0.004,-0.043,sad
0.34,0,0,0,0,0,0,0,0,711,1332,2280,2543,3049,48,3413,3773,2.428,1.982,8.921,0.000,0.197,1.072,1.293,-3.402,9.438,0.110,-0.007,-0.048,sad
0.35,0,0,0,0,0,0,0,0,687,1299,2395,2407,3047,51,3448,3795,2.277,1.750,9.606,-0.026,0.010,1.061,1.319,-3.378,9.354,0.096,-0.018,-0.048,sad
0.36,0,0,0,0,0,0,0,0,669,1305,2142,2201,3060,47,3487,3812,1.676,0.795,9.419,-0.102,-0.085,0.982,1.350,-3.349,9.433,0.062,-0.005,-0.018,sad
0.37,0,0,0,0,0,0,0,0,535,1385,2142,2141,3093,53,3515,3793,1.120,0.668,10.398,-0.163,-0.223,0.808,1.322,-3.335,9.380,0.039,0.004,-0.010,sad
0.38,0,0,0,0,0,0,0,0,494,1453,2152,2141,3109,51,3547,3857,1.070,1.058,11.377,-0.442,-0.487,0.637,1.300,-3.251,9.366,0.026,0.006,0.002,sad
0.39,0,0,0,0,0,0,0,0,444,1588,2152,2150,3119,51,3588,3867,1.053,1.176,10.879,-0.705,-0.467,0.460,1.329,-3.328,9.431,0.018,0.020,0.019,sad
0.40,0,0,0,0,0,0,0,0,409,1577,2183,2193,3159,83,3574,3949,1.173,1.477,9.871,-0.782,-0.420,0.346,1.348,-3.249,9.357,0.013,0.030,0.023,sad
0.41,0,0,0,0,0,0,0,0,330,1631,2116,2198,3172,48,3660,3915,1.492,1.834,9.634,-0.767,-0.373,0.324,1.329,-3.333,9.347,0.018,0.026,0.019,sad
0.42,0,0,0,0,0,0,0,0,344,1591,2183,2213,3179,47,3675,3917,1.664,2.423,9.634,-0.727,-0.251,0.330,1.369,-3.297,9.385,0.015,0.029,0.020,sad
0.43,0,0,0,0,0,0,0,0,343,1669,2175,2237,3183,51,3683,3915,1.338,3.146,10.230,-0.722,-0.165,0.359,1.365,-3.321,9.376,0.008,0.030,0.024,sad
0.44,0,0,0,0,0,0,0,0,343,1712,2183,2303,3198,51,3691,3919,0.766,4.286,10.829,-0.793,-0.203,0.394,1.343,-3.321,9.380,0.005,0.036,0.028,sad
0.45,0,0,0,0,0,0,0,0,345,1715,2183,2281,3217,51,3704,3923,0.311,4.427,9.742,-0.755,-0.358,0.473,1.322,-3.357,9.407,0.009,0.042,0.036,sad
0.46,0,0,0,0,0,0,0,0,358,1765,2193,2281,3220,47,3735,3913,0.180,4.561,8.803,-0.683,-0.463,0.518,1.393,-3.263,9.342,-0.002,0.035,0.032,sad
0.47,0,0,0,0,0,0,0,0,394,1813,2188,2379,3257,51,3805,3917,-0.192,4.930,7.666,-0.431,-0.532,0.565,1.334,-3.338,9.414,-0.015,0.034,0.049,sad
0.48,0,0,0,0,0,0,0,0,391,1815,2198,2363,3255,51,3725,3918,-0.213,5.741,7.321,-0.137,-0.600,0.557,1.293,-3.280,9.385,-0.030,0.023,0.057,sad
0.49,0,0,0,0,0,0,0,0,438,1877,2203,2459,3259,50,3721,3894,-0.101,7.930,9.826,-0.342,-0.165,0.404,1.336,-3.366,9.436,-0.053,0.007,0.056,sad
0.50,0,0,0,0,0,0,0,0,524,1868,2231,2541,3273,47,3704,3867,-2.107,6.488,6.960,-0.572,-0.140,0.222,1.312,-3.381,9.438,-0.043,0.016,0.043,sad
0.51,0,0,0,0,0,0,0,0,611,1960,2229,2555,3287,51,3699,3865,0.038,8.076,2.277,0.114,0.001,0.238,1.288,-3.565,9.811,-0.007,0.044,0.056,sad
0.52,0,0,0,0,0,0,0,0,741,1927,2234,2587,3211,37,3685,3861,-1.140,5.337,2.765,0.609,1.000,-0.341,1.403,-3.352,9.304,-0.054,0.005,0.053,sad
0.53,0,0,0,0,0,0,0,0,920,2011,2234,2623,3315,39,3643,3815,1.149,2.861,13.601,0.273,0.434,-0.277,1.267,-3.330,9.378,-0.034,0.016,0.055,sad
0.54,0,0,0,0,0,0,0,0,1051,2073,2244,2579,3439,51,3625,3790,-0.764,0.505,8.351,0.291,0.246,-0.353,1.338,-3.424,9.407,-0.047,0.036,0.051,sad
0.55,0,0,0,0,0,0,354,814,1117,2095,2331,2377,3359,51,3541,3742,1.741,2.387,8.847,0.729,0.121,-0.546,1.377,-3.364,9.292,-0.045,0.055,0.047,sad
0.56,0,0,0,0,102,0,864,1829,1371,2125,2262,2315,3245,51,3336,3561,9.270,8.097,12.742,0.678,0.820,-0.385,1.374,-3.443,9.390,-0.058,0.081,0.043,sad
0.57,0,0,0,0,625,0,1164,2391,1437,2137,2259,2423,3259,51,3199,3592,-2.222,3.366,12.131,0.204,0.312,-0.122,1.338,-3.469,9.373,-0.073,0.085,0.039,sad
0.58,0,0,0,0,704,0,1356,2707,1629,2185,2234,2622,3113,45,2748,3411,2.210,2.229,7.683,0.137,-0.041,0.072,1.367,-3.421,9.397,-0.103,0.097,0.047,sad
0.59,0,194,0,0,793,0,1521,2912,1916,2219,2265,2775,2829,44,1791,2985,1.331,2.828,9.440,0.152,-0.051,0.001,1.310,-3.436,9.369,-0.138,0.078,0.040,sad
0.60,0,686,0,0,686,0,1596,3018,2211,2233,2267,2840,2251,47,1234,2403,1.844,2.942,9.359,0.162,0.242,-0.110,1.290,-3.539,9.428,-0.152,0.051,0.043,sad
0.61,0,1185,0,0,1146,0,1977,3180,2354,2208,2267,2911,1887,47,867,2139,1.693,3.055,9.409,0.162,0.300,-0.140,1.369,-3.666,9.421,-0.141,0.035,0.038,sad
0.62,0,1439,0,0,1466,0,2073,3091,2729,2213,2275,2875,1527,46,669,1436,0.704,3.661,10.901,0.194,0.193,-0.097,1.068,-3.093,9.273,-0.184,0.034,0.019,sad
0.63,0,1842,0,0,1726,0,2292,3343,2891,2232,2270,2903,1423,47,389,1146,1.372,3.359,9.546,0.152,0.143,-0.069,1.630,-2.500,9.493,-0.349,0.029,-0.039,sad
0.64,0,1997,0,0,1867,0,2400,3408,2999,2027,2203,2887,824,44,230,959,1.350,3.227,9.481,0.112,0.091,-0.055,1.089,-3.709,9.309,-0.361,0.047,-0.069,sad
0.65,0,2222,176,0,1973,0,2475,3441,3150,1998,2275,2991,383,41,213,457,1.310,2.909,9.337,0.152,0.077,-0.073,1.185,-3.730,9.359,-0.448,0.113,-0.112,sad
0.66,102,2370,624,0,1967,0,2535,3447,1623,2577,1655,2509,2628,1747,1605,3116,1.192,3.376,9.661,0.202,0.077,-0.079,1.221,-3.824,9.227,-0.574,0.144,-0.104,sad
0.67,178,2526,948,70,2133,0,2599,3457,1635,2553,1545,2479,2571,1627,1575,3102,1.319,2.976,9.333,0.218,0.071,-0.097,1.575,-3.646,9.364,-0.669,0.174,-0.096,sad
0.68,288,2670,1395,321,2205,0,2639,3471,1599,2557,1566,2483,2571,1671,1575,3101,1.252,2.957,9.323,0.296,0.043,-0.116,1.211,-3.740,9.282,-0.888,0.334,-0.124,sad
0.69,477,2810,1827,580,2303,0,2701,3459,1603,2554,1594,2479,2571,1670,1577,2982,1.255,3.239,9.306,0.320,-0.009,-0.109,0.749,-3.790,10.020,-1.236,0.522,-0.175,sad
0.70,656,2941,2146,947,2431,0,2754,3499,1599,2553,1676,2490,2572,1663,1573,3101,1.290,3.294,9.270,0.304,0.050,-0.122,2.150,-4.087,10.027,-1.510,0.629,-0.187,sad
0.71,896,3007,2381,1259,2497,0,2804,3519,1593,2584,1507,2430,2572,1670,1575,3103,0.888,3.146,8.976,0.209,0.008,-0.093,1.343,-3.780,9.522,-2.057,0.978,-0.084,sad
0.72,1122,3120,2551,1533,2645,0,2855,3553,2485,203,43,1899,4,0,0,43,1.147,3.627,9.371,0.173,-0.071,-0.045,1.970,-4.831,10.142,-2.728,0.975,0.399,sad
0.73,1223,2963,2624,1686,2490,0,2859,3446,2327,20,0,1640,0,0,0,35,1.379,3.838,9.369,0.108,-0.070,-0.017,2.538,-6.661,12.390,-3.010,0.633,0.811,sad
0.74,1410,3234,2789,1861,2775,0,2981,3630,1971,0,0,573,0,0,0,31,1.255,3.747,9.359,0.081,-0.055,0.005,2.042,-7.982,10.348,-2.809,0.694,1.568,sad
0.75,1470,3293,2849,1946,2876,0,3024,3637,57,0,0,147,0,0,0,23,1.310,3.460,9.268,0.072,-0.044,0.008,-0.970,-3.874,15.637,-0.974,0.802,2.113,sad
0.76,1495,3310,2866,1963,2901,0,2987,3583,0,0,0,22,0,0,0,11,1.341,3.500,9.206,0.076,-0.043,0.011,1.994,-2.296,12.213,-0.071,0.440,2.198,sad
0.77,1574,3397,2960,2055,2992,0,3070,3632,20,0,0,0,0,0,0,0,1.396,3.503,9.230,0.091,-0.027,0.003,5.478,-0.376,11.365,1.164,0.396,1.644,sad
0.78,1624,3414,3008,2089,3025,0,3059,3606,0,0,0,0,0,0,0,0,1.420,3.460,9.143,0.103,-0.028,0.012,5.303,-0.484,7.717,1.425,0.041,0.825,sad
0.79,1655,3434,3019,2083,3042,0,3056,3541,0,0,0,0,0,17,0,0,1.401,3.618,9.194,0.094,-0.022,0.003,5.011,-1.219,8.193,1.507,-0.323,0.252,sad
0.80,1706,3456,3056,2170,3083,0,3036,3538,0,20,0,0,0,0,0,0,1.377,3.541,9.251,0.086,-0.024,0.006,4.223,-1.386,8.667,1.731,-0.532,-0.190,sad
0.81,1738,3378,3071,2182,3061,0,2992,3434,0,0,0,13,0,0,0,0,1.369,3.606,9.179,0.054,-0.025,0.001,1.207,-1.183,8.236,1.954,-0.662,-0.478,sad
0.82,1808,3499,3118,2259,3142,0,3018,3503,0,0,0,0,0,0,0,0,1.470,3.675,9.227,0.037,-0.033,0.007,0.903,-2.468,10.319,2.320,-0.837,-0.414,sad
0.83,1854,3523,3169,2289,3169,0,3024,3477,0,0,0,23,0,0,0,0,1.386,3.613,9.263,0.046,-0.019,0.003,0.984,-2.579,9.931,2.465,-0.918,-0.438,sad
0.84,1877,3551,3213,2320,3199,0,3031,3486,0,0,0,0,0,0,0,3,1.398,3.642,9.239,0.053,-0.015,-0.000,1.628,-3.038,10.072,2.436,-1.069,-0.748,sad
0.85,1748,3467,3022,2331,3023,0,2833,3438,0,0,0,0,0,0,0,0,1.468,3.572,9.285,0.058,0.008,-0.002,1.312,-3.110,10.748,2.296,-1.132,-0.960,sad
0.86,1937,3600,3265,2370,3263,0,3046,3471,0,0,0,0,0,0,0,0,1.386,3.551,9.290,0.051,0.003,-0.003,0.654,-3.105,10.506,2.049,-1.010,-1.278,sad
0.87,1943,3616,3293,2394,3275,0,3041,3449,0,0,0,0,0,0,0,0,1.422,3.567,9.196,0.051,0.006,0.007,0.474,-4.168,10.831,1.238,-0.959,-1.179,sad
0.88,1953,3634,3317,2399,3294,0,3037,3409,14,0,0,0,0,0,0,0,1.429,3.555,9.215,0.056,-0.007,0.006,2.167,-7.982,12.119,0.429,-1.312,-1.497,sad
0.89,1966,3641,3345,2365,3301,0,3018,3371,0,0,0,0,0,0,25,0,1.410,3.579,9.194,0.044,-0.012,-0.003,1.968,-10.728,13.144,0.246,-1.438,-1.821,sad
0.90,1968,3669,3360,2399,3319,0,3002,3302,22,0,0,0,0,0,0,0,1.398,3.596,9.258,0.027,0.005,0.006,0.022,-15.268,12.234,0.655,-1.171,-2.351,sad
0.91,1956,3680,3378,2382,3325,0,2985,3227,0,0,0,0,18,0,0,0,1.453,3.651,9.213,-0.002,0.041,0.011,-5.971,-14.782,5.380,1.199,-0.128,-2.404,sad
0.92,1836,3698,3406,2352,3333,0,2974,3194,0,0,0,0,0,0,0,0,1.468,3.584,9.237,-0.034,0.066,0.005,-8.466,-14.358,2.071,0.919,0.265,-1.933,sad
0.93,1745,3717,3440,2297,3344,0,2967,3181,0,0,99,0,0,0,0,0,1.508,3.443,9.227,-0.040,0.073,0.005,-10.755,-13.862,-5.509,-0.668,0.783,-0.132,sad
0.94,1519,3725,3455,2299,3341,0,2939,3139,1589,1,0,19,2639,1787,2187,0,1.470,3.467,9.208,-0.029,0.088,-0.001,4.508,-3.235,15.778,-1.073,1.023,0.000,sad
0.95,1297,3729,3481,2345,3321,0,2848,3024,0,0,0,0,0,0,0,5,1.554,3.378,9.210,-0.001,0.099,-0.018,5.444,1.599,14.609,-0.735,0.424,-0.300,sad
0.96,1038,3696,3489,2389,3194,0,2640,2702,0,0,0,0,5,0,234,579,1.448,3.424,9.222,0.013,0.083,-0.035,-2.832,-0.601,7.391,-1.652,0.665,0.646,sad
0.97,1142,3754,3525,2460,3216,0,2435,2287,0,0,0,0,0,0,931,1326,1.465,3.333,9.246,0.050,0.090,-0.037,-2.344,-6.182,11.784,-0.287,-0.565,-0.102,sad
0.98,1266,3770,3547,2503,3101,0,1967,1455,0,0,0,0,41,0,1061,1971,1.516,3.297,9.337,0.140,0.072,-0.059,3.910,-2.722,7.207,-0.033,0.467,0.268,sad
0.99,1456,3791,3575,2588,2895,0,1185,233,1526,2568,0,2487,2591,1694,1586,3112,1.312,3.378,9.340,0.238,0.054,-0.079,1.372,-3.529,10.027,-0.156,-0.045,0.121,sad
1.00,1639,3811,3569,2667,2362,0,587,0,1593,2587,5,2539,2607,1737,1608,3171,1.391,3.637,9.294,0.317,0.027,-0.088,1.267,-2.863,9.448,-0.026,0.050,0.079,sad
1.01,1703,3815,3631,2701,1963,0,144,0,0,201,5,6,349,0,1513,2841,1.118,3.163,9.512,0.365,0.011,-0.181,1.441,-3.153,9.471,-0.072,-0.038,0.037,sad
1.02,1841,3825,3648,2689,1535,0,0,0,0,293,0,1,505,0,1715,3141,1.161,3.654,9.206,0.614,0.015,0.013,1.113,-3.139,9.718,0.011,-0.152,0.009,sad
1.03,1910,3829,3646,2708,1113,0,0,0,0,300,12,3,589,0,1955,3047,1.281,3.991,9.103,0.749,0.010,0.126,1.319,-3.074,9.361,0.023,-0.079,0.017,sad
1.04,2063,3827,3654,2707,854,0,0,0,0,310,0,0,681,0,2107,3179,1.302,3.974,8.938,0.783,0.060,0.158,1.755,-3.098,9.369,-0.004,-0.047,0.020,sad
1.05,2160,3838,3653,2669,703,0,0,0,0,411,0,0,823,0,2239,3324,1.559,4.216,8.983,0.800,0.109,0.198,1.523,-2.954,9.378,0.064,-0.087,-0.004,sad
1.06,2237,3821,3654,2605,639,0,0,0,0,393,0,0,1047,35,2415,3379,1.583,4.262,9.031,0.826,0.114,0.186,1.274,-3.043,9.304,0.018,-0.036,-0.002,sad
1.07,2237,3793,3638,2480,371,0,0,0,0,435,0,0,1060,0,2451,3431,1.346,4.393,8.993,0.924,0.179,0.158,1.590,-2.933,9.270,0.024,0.008,0.021,sad
1.08,2183,3743,3623,2432,61,0,0,0,0,415,0,0,1228,0,2488,3425,1.571,4.480,8.775,1.056,0.206,0.147,1.539,-3.242,9.718,0.041,0.020,0.011,sad
1.09,2210,3601,3570,2322,112,0,0,0,0,411,0,0,1381,0,2660,3445,1.724,4.563,8.983,1.300,0.265,0.181,1.518,-2.883,9.287,0.007,0.041,0.022,sad
1.10,2218,2947,3445,2133,0,0,0,0,37,441,0,17,1523,0,2739,3417,1.362,4.401,8.909,1.572,0.328,0.214,1.295,-2.928,9.550,-0.006,0.039,0.033,sad
1.11,2154,2594,2892,1904,0,0,0,0,0,573,0,7,1701,37,2894,3565,0.795,4.757,9.574,1.950,0.285,0.085,1.405,-2.895,9.306,-0.037,0.030,0.019,sad
1.12,1897,2174,2416,1643,0,0,0,0,0,777,0,19,2003,0,3109,3654,0.946,5.555,11.250,2.447,-0.013,-0.074,1.360,-3.069,9.560,-0.035,0.029,0.035,sad
1.13,1761,1228,1297,1228,0,0,0,0,3,789,2,79,2066,3,3157,3661,1.046,6.029,10.805,3.067,-0.551,-0.600,1.494,-3.163,9.550,-0.018,0.006,0.021,sad
1.14,1361,704,0,147,0,0,0,0,2,777,0,211,2169,0,3060,3539,2.009,8.001,9.012,3.374,-0.200,-1.116,1.350,-3.168,9.591,0.001,-0.007,0.003,sad
1.15,740,487,0,0,0,0,0,0,19,893,0,221,2215,0,3225,3563,2.169,7.563,9.510,2.955,0.233,-1.472,1.336,-3.124,9.627,0.008,0.001,0.001,sad
1.16,234,161,0,0,0,0,0,0,3,915,0,264,2380,0,3283,3626,1.116,4.944,12.692,1.592,0.489,-1.617,1.386,-3.151,9.567,0.018,0.009,0.003,sad
1.17,0,0,0,0,0,0,0,0,0,890,0,266,2447,0,3316,3645,0.991,2.634,11.904,0.322,0.319,-1.798,1.379,-3.072,9.574,0.034,0.006,0.000,sad
1.18,0,0,0,0,0,0,0,0,3,807,0,247,2505,0,3397,3702,3.251,1.537,8.562,-0.064,0.357,-1.936,1.475,-3.031,9.629,0.033,0.019,0.004,sad
1.19,0,0,0,0,0,0,0,0,0,895,2,278,2598,0,3451,3775,3.950,3.776,10.855,-0.573,0.102,-1.459,1.439,-3.012,9.445,0.033,0.024,0.003,sad
1.20,0,0,0,0,0,0,0,0,0,920,2,288,2631,0,3657,3743,3.998,1.889,9.031,-1.004,-0.005,-1.327,1.425,-2.993,9.500,0.019,0.025,0.016,sad
1.21,0,0,0,0,0,0,0,0,30,951,0,313,2659,0,3515,3817,3.809,2.227,8.375,-1.284,-0.207,-1.062,1.458,-2.974,9.390,0.012,0.038,0.025,sad
1.22,0,0,0,0,0,0,0,0,0,937,0,325,2667,0,3519,3823,3.699,2.279,7.609,-1.441,-0.385,-0.779,1.499,-3.005,9.349,-0.006,0.036,0.026,sad
1.23,0,0,0,0,0,0,0,0,0,952,0,283,2677,1,3538,3838,3.359,2.083,7.357,-1.575,-0.541,-0.535,1.429,-2.978,9.388,-0.014,0.034,0.033,sad
1.24,0,0,0,0,0,0,0,0,0,981,0,287,2695,0,3567,3857,3.177,2.538,7.599,-1.658,-0.633,-0.300,1.341,-2.986,9.519,-0.027,0.024,0.039,sad
1.25,0,0,0,0,0,0,0,0,0,990,0,277,2705,0,3549,3852,2.725,2.682,7.970,-1.739,-0.709,-0.106,1.362,-3.053,9.495,-0.025,0.023,0.047,sad
1.26,0,0,0,0,0,0,0,0,0,996,0,280,2701,1,3528,3748,2.401,3.237,8.815,-1.840,-0.812,0.078,1.487,-3.036,9.498,-0.019,0.020,0.040,sad
1.27,0,0,0,0,0,0,0,0,7,970,0,285,2717,0,3547,3832,1.937,3.723,9.649,-2.002,-0.913,0.257,1.374,-3.014,9.455,-0.023,0.018,0.046,sad
1.28,0,0,0,0,0,0,0,0,7,1018,2,331,2845,0,3769,4095,1.202,3.864,9.534,-2.140,-0.993,0.426,1.448,-3.069,9.428,-0.024,0.019,0.045,sad
1.29,0,0,0,0,0,0,0,0,21,999,2,338,2903,1,3775,4073,0.587,3.773,9.354,-2.208,-1.006,0.520,1.384,-3.096,9.543,-0.018,0.018,0.045,sad
1.30,0,0,0,0,0,0,0,0,57,1006,5,329,2863,3,3771,4066,0.493,4.096,9.522,-2.243,-0.959,0.568,1.417,-3.139,9.486,-0.014,0.018,0.038,sad
1.31,0,0,0,0,0,0,0,0,26,991,2,383,2877,5,3865,4075,0.347,4.219,10.053,-2.268,-0.853,0.597,1.405,-2.978,9.297,-0.023,0.016,0.041,sad
1.32,0,0,0,0,0,0,0,0,77,969,2,391,2901,4,3807,4088,0.225,4.662,10.953,-2.305,-0.809,0.634,1.334,-3.057,9.491,-0.025,0.008,0.042,sad
1.33,0,0,0,0,0,0,0,0,82,1049,20,367,2921,4,3772,4095,0.311,5.004,11.114,-2.394,-0.717,0.676,1.338,-3.170,9.584,-0.007,0.007,0.034,sad
1.34,0,0,0,0,0,0,0,0,77,1012,542,381,2936,0,3835,4095,0.069,4.877,10.250,-2.432,-0.489,0.665,1.401,-3.067,9.397,-0.001,0.010,0.031,sad
1.35,0,0,0,0,0,0,0,0,31,1060,1302,421,2957,11,3851,4095,-0.575,4.173,9.052,-2.247,-0.371,0.583,1.331,-3.024,9.507,-0.002,0.012,0.024,sad
1.36,0,0,0,0,0,0,0,0,39,999,1338,437,2927,13,3759,3913,-0.608,4.527,9.845,-2.075,-0.171,0.476,1.389,-3.081,9.371,-0.003,0.018,0.028,sad
1.37,0,0,0,0,0,0,0,0,31,1133,1443,475,2990,12,3851,4095,-0.824,4.796,10.223,-1.765,-0.322,0.398,1.362,-3.029,9.507,-0.001,0.020,0.031,sad
1.38,0,0,0,0,0,0,0,0,45,1182,1655,531,2975,16,3803,4027,-0.292,5.669,10.520,-1.264,-0.778,0.409,1.460,-3.057,9.481,-0.058,0.006,0.054,sad
1.39,0,0,0,0,0,0,0,0,57,1175,1719,569,3013,21,3839,4063,0.057,6.902,10.724,-0.828,-1.267,0.465,1.425,-3.065,9.507,-0.062,-0.003,0.062,sad
1.40,0,0,0,0,0,0,0,0,88,1227,1742,615,2903,18,3643,3813,2.349,11.157,15.208,-1.251,-0.530,0.164,1.348,-3.179,9.486,-0.063,0.005,0.068,sad
1.41,0,0,0,0,0,0,0,0,1627,2670,1231,2614,2665,1819,1696,3235,-1.867,11.279,13.020,-2.215,-0.211,0.062,1.434,-3.112,9.440,-0.056,0.012,0.051,sad
1.42,0,0,0,0,0,0,0,0,1573,2615,1415,2551,2639,1764,1641,3166,-2.770,9.072,4.587,-2.062,-1.158,-0.044,1.410,-3.100,9.436,-0.052,0.017,0.059,sad
1.43,0,0,0,0,0,0,0,0,103,1318,1955,728,3028,29,3691,3837,0.848,9.486,0.266,-1.089,-0.292,-0.125,1.415,-3.175,9.486,-0.045,0.013,0.062,sad
1.44,0,0,0,0,0,0,0,0,139,1477,1881,816,2859,42,3402,3551,-1.319,10.420,1.484,-0.197,-0.060,-0.005,1.365,-3.012,9.278,-0.077,0.004,0.093,sad
1.45,0,0,0,0,0,0,0,0,126,1531,1924,877,2927,31,3439,3533,2.825,12.737,1.942,0.695,0.141,0.628,1.451,-3.136,9.352,-0.090,-0.003,0.104,sad
1.46,0,0,0,0,0,0,0,0,180,1544,1942,941,2907,37,3374,3445,3.115,4.839,11.277,0.571,0.867,0.221,1.408,-3.266,9.436,-0.090,-0.016,0.100,sad
1.47,0,0,0,0,0,0,0,0,214,1800,1993,1080,3069,51,3678,3819,4.310,-0.467,16.015,0.219,0.277,0.427,1.403,-3.242,9.476,-0.069,0.012,0.097,sad
1.48,0,0,0,0,0,0,0,0,314,1851,2142,1295,3276,47,3800,3899,0.814,-0.603,6.354,0.738,0.389,0.127,1.504,-3.156,9.455,-0.076,0.022,0.109,sad
1.49,0,0,0,0,0,0,241,574,365,1874,2162,1359,3253,53,3759,3865,-0.275,1.717,10.865,0.864,0.209,0.180,1.444,-3.244,9.467,-0.092,0.020,0.113,sad
1.50,0,0,0,0,0,0,502,1970,735,1955,2188,1635,3284,51,3623,3763,1.209,1.379,8.878,0.748,0.169,0.007,1.432,-3.105,9.455,-0.105,-0.010,0.081,sad
1.51,0,0,0,0,196,0,883,2547,994,1955,2193,1747,3340,47,3450,3705,1.360,3.230,11.389,0.917,-0.113,0.025,1.475,-3.247,9.471,-0.144,-0.042,0.068,sad
1.52,0,0,0,0,320,0,1331,2928,1575,2205,2213,1843,3225,11,2855,3448,0.488,2.021,10.003,0.787,-0.327,-0.072,1.441,-3.251,9.550,-0.164,-0.078,0.033,sad
1.53,0,0,0,0,752,0,1823,3062,2207,2347,2229,1965,3167,69,1983,2841,3.962,4.113,12.644,0.629,0.288,-0.395,1.415,-3.462,9.373,-0.212,-0.048,0.021,sad
1.54,0,208,0,0,929,0,2126,3164,2389,2415,2234,2077,3025,51,1495,2451,1.743,2.514,9.680,0.429,0.729,-0.211,1.336,-3.285,9.644,-0.245,-0.056,0.013,sad
1.55,0,597,0,0,1281,0,2236,3239,2637,2511,2282,2197,2533,43,821,1650,1.343,2.509,9.838,0.461,0.681,-0.232,1.523,-3.711,9.390,-0.257,-0.004,0.014,sad
1.56,0,911,0,0,1471,0,2389,3318,2798,2572,2244,2339,1875,11,35,1594,1.666,2.880,9.761,0.363,0.694,-0.221,2.466,-1.709,10.372,-0.213,0.090,0.132,sad
1.57,0,1393,0,0,1863,0,2494,3397,2873,2519,2234,2385,1238,16,72,1253,1.410,3.077,10.060,0.316,0.685,-0.240,1.034,-3.785,9.038,-0.508,0.111,-0.003,sad
1.58,0,1672,0,0,1821,0,2519,3408,2999,2361,2236,2459,767,10,37,851,1.053,3.294,10.690,0.263,0.436,-0.210,1.444,-3.855,9.471,-0.577,0.208,-0.076,sad
1.59,0,1872,0,0,2030,0,2583,3479,2805,1753,2070,2283,473,3,3,619,1.393,3.235,9.917,0.196,0.256,-0.115,1.657,-3.757,9.234,-0.640,0.176,-0.052,sad
1.60,0,2101,50,0,2169,0,2655,3515,1581,2567,1522,2477,2567,1677,1581,3093,1.425,3.000,9.663,0.124,0.167,-0.076,1.602,-4.082,8.950,-0.687,0.227,-0.074,sad
1.61,0,2257,299,0,2354,0,2713,3538,1591,2557,1543,2477,2569,1671,1575,3101,1.413,2.796,9.457,0.122,0.095,-0.057,1.729,-4.025,9.093,-0.894,0.359,-0.128,sad
1.62,0,2432,692,88,2411,0,2802,3568,1589,2557,1512,2479,2568,1673,1579,3183,1.372,2.974,9.479,0.165,0.056,-0.067,1.982,-4.243,9.613,-1.145,0.521,-0.142,sad
1.63,0,2610,1100,203,2559,0,2875,3610,1590,2555,1494,2479,2571,1672,1575,3101,1.384,2.890,9.409,0.135,-0.012,-0.037,2.320,-4.434,9.802,-1.304,0.659,-0.106,sad
1.64,0,2758,1463,317,2747,0,2963,3637,1583,2553,5,2477,2571,1671,1559,3099,1.460,2.959,9.424,0.172,-0.031,-0.039,1.322,-4.104,9.749,-1.777,0.665,0.198,sad
1.65,0,2894,1692,412,2832,0,3009,3666,1583,2555,2,2480,2572,1659,1611,3102,1.362,3.232,9.493,0.139,-0.036,-0.019,1.223,-4.420,9.965,-2.075,0.481,0.478,sad
1.66,0,2845,1945,576,2736,0,3057,3621,1586,2556,0,2483,2581,1673,1605,3103,1.571,3.153,9.462,0.095,-0.022,-0.005,1.595,-5.586,10.233,-2.575,0.163,1.201,sad
1.67,0,3069,2113,581,3039,0,3191,3685,1588,2556,0,2482,2584,1671,1575,3103,1.482,2.902,9.345,0.097,-0.010,-0.013,0.989,-5.971,9.440,-2.422,0.122,1.955,sad
1.68,0,3123,2211,640,3108,0,3229,3651,1589,2583,0,2510,2619,1739,1608,3125,1.678,3.115,9.457,0.099,0.004,-0.026,0.378,-2.670,12.155,-0.733,0.406,2.817,sad
1.69,0,2999,2315,624,3042,0,3210,3457,1563,2599,0,2515,2616,1767,1629,3127,1.487,3.132,9.474,0.104,0.006,-0.021,2.818,-2.614,9.292,-0.037,0.515,3.098,sad
1.70,0,3226,2389,795,3226,0,3238,3644,1543,2621,0,2549,2641,1877,1669,3155,1.429,3.103,9.359,0.100,0.019,-0.024,5.816,-1.642,7.623,0.959,0.119,1.843,sad
1.71,0,3258,2469,785,3262,0,3232,3621,1563,2585,0,2513,2600,1710,1605,3129,1.482,3.043,9.301,0.112,0.020,-0.029,5.744,-1.374,7.489,0.987,-0.107,0.666,sad
1.72,32,3282,2531,865,3278,0,3234,3600,1587,2554,120,2484,2578,1672,1567,3160,1.511,3.089,9.256,0.134,0.003,-0.042,5.590,-1.520,7.956,1.089,-0.220,0.072,sad
1.73,67,3323,2607,925,3308,0,3235,3583,1589,2554,0,2484,2579,1672,1573,3107,1.434,3.168,9.431,0.126,0.002,-0.040,3.467,-1.678,8.593,1.274,-0.445,-0.787,sad
1.74,109,3313,2608,948,3285,0,3181,3542,1589,2552,0,2486,2577,1671,1571,3102,1.496,3.146,9.378,0.094,0.009,-0.043,1.781,-2.447,9.831,1.590,-0.610,-1.169,sad
1.75,126,3387,2724,1059,3344,0,3259,3583,1618,2571,0,2495,2587,1687,1583,3117,1.480,3.146,9.345,0.100,0.012,-0.039,0.826,-2.478,10.144,1.743,-0.716,-1.231,sad
1.76,143,3418,2559,1160,3362,0,3175,3568,1580,2583,0,2505,2597,1690,1596,3123,1.492,3.249,9.452,0.083,0.012,-0.032,0.031,-2.883,11.030,2.030,-0.832,-1.131,sad
1.77,144,3453,2816,1141,3390,0,3277,3600,1613,2585,0,2487,2578,1701,1599,3115,1.520,3.235,9.436,0.069,0.021,-0.030,0.029,-3.390,12.139,2.267,-0.915,-0.958,sad
1.78,159,3472,2842,1150,3411,0,3271,3583,1572,2583,0,2493,2584,1696,1597,3119,1.518,3.278,9.380,0.077,0.015,-0.033,0.426,-3.699,12.131,2.381,-0.858,-0.878,sad
1.79,211,3504,2875,1232,3414,0,3278,3583,1389,2646,0,2604,2343,1909,1721,3177,1.516,3.156,9.220,0.082,0.034,-0.035,0.845,-3.124,9.479,2.185,-0.509,-0.682,sad
1.80,197,3514,2899,1316,3418,0,3261,3583,0,0,0,0,0,0,0,0,1.456,3.282,9.383,0.077,0.022,-0.029,1.587,-4.003,9.881,1.408,-0.402,-0.665,sad
1.81,196,3529,2915,1321,3430,0,3264,3578,0,0,0,0,0,0,0,0,1.355,3.268,9.409,0.072,0.006,-0.029,1.528,-4.942,10.781,1.068,-0.543,-0.809,sad
1.82,293,3539,2937,1333,3436,0,3252,3568,0,0,74,0,0,0,0,0,1.434,3.211,9.325,0.071,0.017,-0.031,1.362,-5.562,10.740,0.714,-0.730,-1.065,sad
1.83,263,3550,2960,1296,3439,0,3249,3556,0,0,0,0,0,0,0,18,1.448,3.182,9.316,0.089,0.006,-0.041,0.148,-7.855,12.170,0.298,-0.914,-1.184,sad
1.84,262,3567,2986,1302,3445,0,3242,3537,0,0,0,0,0,2,0,0,1.523,3.191,9.249,0.100,0.001,-0.050,-0.625,-9.752,13.506,0.446,-0.954,-1.143,sad
1.85,303,3583,3010,1277,3463,0,3230,3514,0,0,0,0,0,0,0,0,1.482,3.237,9.297,0.103,0.017,-0.069,-2.097,-11.600,12.910,1.282,-0.797,-1.032,sad
1.86,293,3604,3035,1293,3472,0,3219,3469,9,0,0,0,0,0,3,0,1.525,3.194,9.278,0.141,0.022,-0.103,-5.365,-9.867,6.443,1.673,-0.564,-0.677,sad
1.87,371,3638,3088,1321,3490,0,3199,3408,9,0,0,0,0,0,2,0,1.448,3.270,9.239,0.172,-0.004,-0.096,-4.506,-9.835,1.762,0.934,-0.354,0.025,sad
1.88,487,3658,3137,1501,3504,0,3163,3310,0,23,0,0,0,0,0,0,1.513,3.333,9.249,0.183,-0.026,-0.084,-3.551,-9.869,1.022,0.414,-0.214,0.223,sad
1.89,561,3685,3201,1762,3520,0,3100,3114,0,0,0,0,0,0,0,0,1.604,3.237,9.194,0.224,-0.048,-0.088,-0.977,-9.474,3.021,-0.604,0.225,0.316,sad
1.90,669,3697,3281,2001,3535,0,2986,2826,0,0,0,0,0,0,0,0,1.571,3.318,9.131,0.270,-0.051,-0.108,5.092,0.304,16.350,-0.381,0.463,-0.253,sad
1.91,784,3763,3346,2122,3530,0,2827,2533,0,0,0,0,0,0,0,0,1.595,3.268,9.048,0.291,-0.034,-0.069,4.348,1.741,9.867,-0.423,0.163,-0.227,sad
1.92,886,3790,3376,2216,3526,0,2695,2297,0,0,0,0,0,0,0,60,1.489,3.464,9.187,0.311,-0.034,-0.060,1.132,1.618,4.027,-1.036,0.424,0.104,sad
1.93,1068,3776,3405,2206,3471,0,2496,1960,0,0,0,0,0,0,0,412,1.484,3.505,9.342,0.326,-0.048,-0.060,1.439,-1.614,9.402,-1.530,0.408,0.220,sad
1.94,1296,3834,3454,2340,3462,0,2101,1136,0,0,0,0,0,0,182,1235,1.623,3.752,9.165,0.317,-0.033,-0.045,-1.441,-2.363,11.040,-1.407,-0.260,0.288,sad
1.95,1617,3792,3526,2383,3365,0,1596,0,0,0,0,7,0,0,858,2069,1.609,3.606,8.976,0.368,-0.006,-0.035,2.286,-3.730,9.804,-1.409,-0.491,0.213,sad
1.96,1866,3878,3577,2527,3123,0,828,0,0,0,25,0,0,0,925,2311,1.334,3.879,9.383,0.425,-0.011,-0.018,6.728,-9.948,12.385,-0.526,0.807,0.351,sad
1.97,2137,3897,3608,2594,2510,0,272,0,1579,2620,10,2549,2647,1811,1637,3157,1.176,2.626,9.131,0.342,-0.013,-0.218,1.669,-4.073,11.138,-0.134,0.928,0.370,sad
1.98,2278,3907,3638,2644,1835,0,150,0,1501,2619,110,2547,2629,1897,1671,3147,2.064,3.606,8.803,0.780,0.010,0.065,1.231,-3.086,10.048,-0.205,0.841,0.358,sad
1.99,2424,3906,3648,2667,1449,0,0,0,1,0,0,0,318,0,1295,2925,1.614,4.322,8.856,0.891,0.139,0.114,0.965,-2.873,9.790,-0.299,0.725,0.343,sad
2.00,2590,3888,3650,2702,901,0,0,0,30,171,2,4,435,0,1581,3255,1.590,4.501,8.899,0.916,0.215,0.133,1.195,-3.378,9.527,-0.311,0.316,0.337,sad
2.01,2736,3845,3642,2651,867,0,0,0,89,263,48,16,446,0,1683,3311,1.633,4.444,8.921,0.941,0.331,0.157,1.559,-3.510,9.598,-0.202,0.251,0.236,sad
2.02,2853,3745,3601,2608,528,0,0,0,87,291,0,40,554,0,1791,3399,1.669,4.781,8.648,0.961,0.393,0.161,1.480,-3.297,9.622,-0.165,0.273,0.214,sad
2.03,2715,3170,3327,2288,39,0,0,0,140,361,7,133,612,0,2003,3561,1.568,5.016,8.976,0.904,0.456,0.135,0.991,-3.263,9.534,-0.215,0.124,0.170,sad
2.04,2989,2934,3408,2327,0,0,0,0,226,336,17,313,629,3,2170,3732,1.470,4.956,8.547,0.989,0.454,0.099,1.039,-3.244,9.445,-0.220,0.076,0.149,sad
2.05,3007,2640,3070,2027,0,0,0,0,250,409,7,533,716,3,2377,3759,2.078,5.325,9.182,0.990,0.605,0.001,1.008,-3.582,9.515,-0.192,0.033,0.138,sad
2.06,3055,2202,2684,1824,0,0,0,0,329,409,7,786,857,3,2493,3800,1.860,5.033,9.708,1.240,0.644,-0.203,1.190,-3.299,9.301,-0.199,0.048,0.157,sad
2.07,3053,1650,2261,1619,0,0,0,0,422,580,2,1225,1103,3,2727,3848,0.891,5.241,8.645,1.644,0.424,-0.474,1.051,-3.721,9.448,-0.186,0.085,0.127,sad
2.08,2971,1303,1572,1556,0,0,0,0,557,685,926,1431,1209,50,2719,3686,1.235,5.231,9.562,2.243,0.214,-0.899,1.025,-3.759,9.455,-0.116,0.054,0.083,sad
2.09,2683,1050,610,969,0,0,0,0,633,846,1540,1719,1371,52,2841,3848,1.492,6.517,9.735,2.765,0.197,-1.244,1.190,-3.632,9.342,-0.055,0.132,0.066,sad
2.10,1982,583,0,139,0,0,0,0,852,914,1814,2124,1403,40,2909,3876,1.604,6.551,9.641,3.095,0.266,-1.714,1.018,-3.649,9.483,-0.008,0.106,0.037,sad
2.11,1647,126,0,0,0,0,0,0,1043,867,1870,2187,1320,27,2951,3896,1.645,9.548,9.816,3.458,0.585,-1.910,1.020,-3.529,9.345,-0.017,0.072,0.022,sad
2.12,930,0,0,0,0,0,0,0,1043,927,1952,2382,1553,48,3036,3929,0.366,9.263,8.753,2.833,1.102,-2.190,0.958,-3.620,9.325,-0.032,0.024,0.005,sad
2.13,32,0,0,0,0,0,0,0,1256,1141,2014,2507,1768,51,3081,3919,1.956,5.578,14.535,0.713,0.350,-2.003,1.041,-3.644,9.194,-0.020,-0.048,-0.005,sad
2.14,0,0,0,0,0,0,0,0,1335,1205,2024,2503,1851,48,3087,3869,5.418,0.206,9.972,-0.534,-0.550,-0.677,0.936,-3.524,9.330,-0.016,-0.040,0.002,sad
2.15,0,0,0,0,0,0,0,0,1385,1373,2093,2668,2057,50,3188,4024,2.488,0.472,7.592,-0.700,0.153,-0.242,1.025,-3.622,9.459,-0.003,0.033,0.014,sad
2.16,0,0,0,0,0,0,0,0,1519,1432,2057,2710,2073,47,3103,3993,1.525,1.573,10.781,-1.282,-0.207,0.005,0.982,-3.677,9.414,0.020,0.054,0.016,sad
2.17,0,0,0,0,0,0,0,0,1509,1384,2116,2761,2057,52,3066,3979,1.683,1.803,9.919,-2.161,-0.592,0.137,0.965,-3.625,9.345,0.009,0.031,0.020,sad
2.18,0,0,0,0,0,0,0,0,1490,1365,2178,2785,2027,45,3006,3948,1.535,1.935,8.559,-2.465,-0.623,0.503,0.948,-3.536,9.285,0.012,0.017,0.012,sad
2.19,0,0,0,0,0,0,0,0,1627,1401,2180,2791,2010,46,2973,3929,1.676,3.196,9.936,-2.814,-0.859,0.689,0.982,-3.589,9.335,0.027,0.024,0.020,sad
2.20,0,0,0,0,0,0,0,0,1743,1389,2152,2824,1960,47,2953,3979,1.451,4.211,9.835,-3.170,-0.984,0.841,0.986,-3.637,9.383,0.030,0.028,0.023,sad
2.21,0,0,0,0,0,0,0,0,1791,1331,2188,2905,1989,47,2956,3895,1.604,4.939,9.926,-3.222,-0.869,0.936,0.941,-3.606,9.335,0.031,0.001,0.014,sad
2.22,0,0,0,0,0,0,0,0,1815,1405,2193,2937,2131,45,2956,3880,1.528,5.696,11.296,-3.204,-0.962,1.161,0.979,-3.601,9.337,0.038,-0.007,0.014,sad
2.23,0,0,0,0,0,0,0,0,1896,1451,2198,2935,2203,47,2969,3876,0.517,6.639,13.293,-3.218,-1.118,1.369,1.075,-3.608,9.323,0.038,-0.014,0.007,sad
2.24,0,0,0,0,0,0,0,0,1911,1478,2203,2957,2301,46,3016,3849,-0.618,6.227,11.059,-2.972,-1.063,1.298,0.986,-3.546,9.373,0.033,-0.022,0.006,sad
2.25,0,0,0,0,0,0,0,0,1934,1656,2211,2892,2374,86,2911,3816,-0.146,6.948,9.886,-2.065,-1.293,1.156,1.049,-3.553,9.349,0.050,-0.015,0.011,sad
2.26,0,0,0,0,0,0,0,0,1919,1635,2229,2927,2380,49,2915,3800,1.144,11.293,13.927,-1.624,-0.984,1.085,1.008,-3.553,9.419,0.060,-0.001,0.009,sad
2.27,0,0,0,0,0,0,0,0,1849,1659,2221,2953,2387,48,2813,3753,-1.109,13.068,14.226,-1.974,-0.877,0.971,1.068,-3.553,9.376,0.085,0.040,0.003,sad
2.28,0,0,0,0,0,0,0,0,1743,1720,2224,2957,2381,51,2670,3694,-1.961,12.567,8.200,-2.148,-1.073,0.895,1.058,-3.462,9.330,0.088,0.047,-0.006,sad
2.29,0,0,0,0,0,0,0,0,1791,1801,2357,2965,2399,48,2665,3660,-2.562,13.379,2.365,-1.609,-0.970,1.038,1.046,-3.457,9.352,0.066,0.015,-0.005,sad
2.30,0,0,0,0,0,0,0,0,1834,1867,2234,3067,2473,46,2488,3596,-3.359,14.358,-2.179,-0.652,-0.200,1.227,0.984,-3.452,9.426,0.033,-0.042,-0.009,sad
2.31,0,0,0,0,0,0,0,0,1885,1967,2244,3069,2422,53,2279,3475,-5.069,11.315,-4.269,1.467,1.062,0.658,1.106,-3.527,9.392,0.032,0.062,0.013,sad
2.32,0,0,0,0,0,0,0,0,1999,1997,2244,3101,2367,48,2095,3388,1.140,3.807,19.613,0.418,0.681,0.433,1.156,-3.464,9.469,0.036,0.098,0.023,sad
2.33,0,0,0,0,0,0,0,0,2037,1971,2259,3130,2292,47,1897,3287,1.065,-2.116,11.001,0.437,0.115,0.588,1.106,-3.388,9.254,-0.001,0.103,0.033,sad
2.34,0,0,0,0,0,0,256,953,2235,2041,2249,3237,2158,51,1483,2963,-1.271,-2.014,7.384,1.507,0.077,-0.181,1.020,-3.242,9.380,-0.078,0.043,0.011,sad
2.35,0,0,0,0,0,0,614,2182,2401,2028,2259,3278,2031,51,1069,2567,1.161,4.183,12.000,1.535,-0.473,-0.164,1.267,-3.349,8.868,-0.139,0.026,0.011,sad
2.36,0,0,0,0,261,0,1107,2767,2467,2084,2259,3337,1937,47,809,2149,3.589,3.788,10.427,1.268,-0.400,-0.027,1.015,-3.730,9.598,-0.189,0.053,0.012,sad
2.37,0,0,0,0,672,0,1641,3027,2613,1977,2259,3273,1503,89,300,1579,1.472,3.627,10.906,1.086,-0.233,0.076,0.505,-5.090,8.780,-0.181,0.055,0.049,sad
2.38,0,0,0,0,884,0,2070,3150,2687,1871,2262,3403,1311,11,5,1543,3.879,3.361,9.175,0.630,0.398,-0.151,0.939,-3.280,9.495,-0.379,0.085,0.027,sad
2.39,0,464,0,0,959,0,2251,3202,2799,1868,2267,3492,555,5,4,1108,0.929,3.270,10.262,0.383,0.581,-0.116,0.773,-3.701,9.251,-0.509,0.143,-0.160,sad
2.40,0,784,0,0,1392,0,2366,3245,2844,1747,2272,3564,261,1,4,913,1.954,3.227,10.005,0.275,0.472,-0.175,1.130,-3.855,10.003,-0.616,0.131,-0.215,sad
2.41,0,1143,0,0,1664,0,2416,3281,1651,2553,1548,2493,2547,1675,1573,3101,1.958,2.988,9.737,0.177,0.459,-0.328,1.312,-3.723,9.369,-0.846,0.264,-0.294,sad
2.42,0,1485,0,0,1755,0,2448,3322,1625,2534,1568,2472,2557,1683,1587,3097,1.882,2.847,9.347,0.172,0.523,-0.222,1.288,-4.111,9.266,-0.914,0.309,-0.302,sad
2.43,0,1597,0,0,1968,0,2526,3370,1647,2553,1594,2483,2571,1671,1575,3103,1.580,3.057,9.560,0.163,0.455,-0.087,1.525,-4.221,9.131,-1.122,0.338,-0.281,sad
2.44,0,1843,0,0,2097,0,2613,3426,1641,2568,1630,2483,2567,1678,1573,3127,1.437,2.931,9.780,0.186,0.413,-0.090,1.518,-3.996,9.136,-1.259,0.606,-0.249,sad
2.45,0,2100,0,0,2315,0,2742,3482,1597,2553,1661,2483,2571,1671,1575,3102,1.492,3.110,9.591,0.117,0.226,-0.084,1.671,-4.781,9.816,-1.437,0.659,-0.156,sad
2.46,0,2365,0,0,2454,0,2875,3538,1643,2551,1471,2484,2573,1627,1573,3101,1.226,3.172,9.756,0.106,0.116,-0.065,1.188,-4.365,9.390,-1.958,0.951,0.117,sad
2.47,0,2559,278,0,2627,0,2963,3602,1594,2553,0,2483,2577,1668,1572,3103,1.389,2.732,9.328,0.096,0.090,-0.062,0.931,-5.617,11.933,-2.549,0.902,0.765,sad
2.48,0,2686,619,0,2752,0,3088,3660,1591,2553,0,2485,2577,1669,1571,3103,1.425,3.081,9.414,0.139,0.061,-0.069,1.580,-6.235,10.563,-2.806,0.933,1.198,sad
2.49,0,2787,1043,50,2838,0,3053,3683,1653,2555,0,2483,2489,1668,1557,3102,1.180,3.108,9.764,0.103,0.034,-0.039,0.790,-6.979,9.723,-3.089,0.788,1.927,sad
2.50,6,2928,1405,238,2961,0,3201,3728,1587,2600,0,2483,2573,1689,1573,3113,1.336,3.081,9.579,0.051,0.008,0.017,0.448,-7.645,8.622,-3.248,0.625,2.374,sad
2.51,0,3008,1535,186,3046,0,3243,3726,1587,2555,0,2486,2583,1671,1593,3067,1.561,2.907,9.388,0.057,0.017,0.003,-0.338,-7.884,8.468,-2.878,0.627,2.769,sad
2.52,0,3056,1635,247,3142,0,3279,3721,1587,2553,0,2484,2578,1673,1573,3108,1.501,2.938,9.383,0.095,-0.001,-0.015,1.607,-6.079,13.898,-0.707,0.286,3.067,sad
2.53,0,3097,1734,292,3199,0,3280,3696,0,0,0,0,0,0,0,0,1.544,2.954,9.419,0.110,-0.003,-0.014,5.169,-0.409,11.456,0.826,-0.740,1.176,sad
2.54,27,3120,1769,320,3211,0,3271,3632,0,0,0,0,0,0,0,0,1.597,2.902,9.290,0.119,0.012,-0.021,4.767,-1.961,6.953,1.021,-0.629,0.590,sad
2.55,48,3153,1819,360,3233,0,3265,3654,0,0,0,0,0,0,0,0,1.551,2.880,9.275,0.146,0.025,-0.043,3.749,-1.528,8.310,1.286,-0.626,0.042,sad
2.56,49,3171,1885,369,3262,0,3257,3633,0,0,0,0,29,0,0,0,1.501,2.995,9.232,0.164,0.012,-0.054,3.136,-1.975,8.780,1.583,-0.630,-0.424,sad
2.57,51,3199,1951,431,3275,0,3258,3613,1591,2552,0,2488,2581,1673,1566,3103,1.444,3.029,9.409,0.167,0.000,-0.051,1.252,-1.808,8.610,1.867,-0.612,-0.672,sad
2.58,51,3221,2066,554,3299,0,3246,3581,1593,2555,0,2493,2533,1709,1579,3109,1.504,3.223,9.421,0.148,-0.021,-0.043,0.014,-1.709,8.167,2.073,-0.755,-0.753,sad
2.59,105,3259,2167,614,3331,0,3254,3564,1591,2605,0,2556,2639,1751,1633,3155,1.427,3.158,9.409,0.116,-0.011,-0.029,-0.450,-2.605,9.323,2.373,-0.960,-0.655,sad
2.60,127,3297,2288,654,3365,0,3279,3568,1595,2603,69,2535,2621,1720,1619,3156,1.614,3.031,9.313,0.099,-0.011,-0.035,-0.352,-2.950,9.266,2.632,-0.959,-0.657,sad
2.61,144,3333,2366,656,3403,0,3295,3559,1560,2611,0,2567,2665,1900,1663,3157,1.539,3.191,9.328,0.103,-0.006,-0.022,-0.017,-3.335,9.620,2.676,-1.002,-0.721,sad
2.62,163,3371,2474,725,3430,0,3307,3558,1595,2509,0,2479,2600,1693,1593,3021,1.492,3.211,9.416,0.085,-0.001,-0.020,0.057,-3.771,10.537,2.769,-1.021,-0.989,sad
2.63,169,3409,2532,720,3456,0,3312,3542,1593,2537,0,2511,2599,1691,1593,3119,1.549,3.141,9.333,0.070,-0.001,-0.025,-0.474,-3.685,11.286,2.737,-1.127,-1.060,sad
2.64,189,3440,2597,680,3475,0,3319,3526,1593,2587,0,2504,2598,1691,1592,3129,1.563,3.077,9.309,0.084,-0.013,-0.037,-0.601,-3.900,11.748,2.712,-1.145,-0.961,sad
2.65,211,3451,2643,720,3493,0,3311,3502,1513,2583,0,2511,2599,1692,1593,3127,1.551,3.165,9.313,0.121,-0.013,-0.039,-0.359,-3.397,10.305,2.353,-1.063,-0.760,sad
2.66,240,3479,2704,767,3507,0,3291,3440,1595,2615,0,2553,2638,1756,1639,3166,1.542,3.086,9.244,0.153,-0.012,-0.049,1.030,-4.492,10.341,1.372,-1.388,-0.737,sad
2.67,270,3509,2768,858,3526,0,3262,3365,0,0,0,0,0,0,0,0,1.638,3.230,9.234,0.175,-0.026,-0.071,1.939,-6.108,11.538,0.909,-1.559,-0.850,sad
2.68,294,3554,2825,913,3537,0,3248,3257,1593,2572,0,2505,2592,1693,1549,3119,1.623,3.158,9.237,0.198,-0.036,-0.070,1.932,-10.104,14.842,0.553,-1.696,-1.210,sad
2.69,344,3538,2918,975,3531,0,3175,3105,0,0,0,50,0,0,40,0,1.453,3.359,9.378,0.203,-0.059,-0.073,-0.060,-13.063,15.179,1.180,-1.695,-1.440,sad
2.70,402,3637,3008,1104,3583,0,3207,3027,0,0,0,0,0,0,0,0,1.621,3.297,9.290,0.224,-0.066,-0.068,-2.243,-11.887,11.313,1.568,-1.476,-1.550,sad
2.71,446,3679,3005,1301,3609,0,3141,2929,4,0,0,0,0,0,0,0,1.642,3.383,9.203,0.240,-0.050,-0.079,-3.505,-14.547,2.806,1.280,-1.145,-1.784,sad
2.72,564,3727,3172,1526,3632,0,3103,2832,0,0,23,0,0,0,0,0,1.590,3.455,9.194,0.237,-0.055,-0.079,-7.975,-15.443,-4.142,0.627,-0.328,-1.435,sad
2.73,641,3770,3249,1779,3647,0,3007,2659,1595,2569,0,2501,2596,1695,1582,3115,1.583,3.225,9.201,0.288,-0.070,-0.098,-6.139,-10.053,-5.593,-0.499,-0.012,-0.652,sad
2.74,755,3805,3330,1983,3650,0,2855,2303,4,2441,7,2396,2707,0,2099,29,1.796,3.357,9.187,0.342,-0.080,-0.129,6.096,-1.784,17.964,-1.291,1.162,-0.285,sad
2.75,1000,3834,3395,2101,3648,0,2653,1765,0,0,0,0,0,0,0,0,1.695,3.390,8.985,0.352,-0.066,-0.099,1.183,1.269,5.538,-0.492,0.490,-0.581,sad
2.76,1214,3872,3467,2183,3622,0,2369,1023,0,0,0,0,0,0,0,0,1.872,4.029,8.863,0.337,-0.045,-0.086,-0.192,-0.658,6.065,-1.164,0.873,-0.151,sad
2.77,1442,3891,3533,2282,3536,0,1889,0,0,0,0,0,0,0,70,885,1.604,3.584,9.043,0.341,-0.042,-0.054,-3.273,-1.568,11.890,-1.212,0.065,0.053,sad
2.78,1727,3920,3575,2367,3407,0,1358,0,1580,2587,0,2495,2599,1711,1599,3127,1.686,3.677,9.105,0.404,-0.075,-0.023,0.330,-2.459,9.857,-1.397,-0.350,0.346,sad
2.79,2000,3932,3608,2460,3135,0,625,0,5,2655,0,2617,2668,6,2184,3155,1.607,3.977,9.237,0.430,-0.074,-0.068,2.813,-2.500,8.576,-1.403,-0.454,0.251,sad
2.80,2219,3951,3631,2486,2375,0,363,0,1587,2653,0,2518,2591,1701,1592,3125,1.415,4.295,9.131,0.641,-0.129,-0.034,6.115,-6.960,11.030,-0.855,1.705,0.765,sad
2.81,2373,3955,3633,2450,1971,0,255,0,1495,2606,0,2447,2508,1736,1637,3101,2.102,3.883,8.952,0.714,-0.038,0.009,1.659,-4.805,12.558,-0.364,1.735,0.758,sad
2.82,2425,3920,3603,2385,1770,0,26,0,1524,2603,25,2469,2553,1737,1627,3107,1.803,4.444,8.985,0.775,-0.052,-0.001,1.097,-3.282,9.436,-0.505,1.514,0.711,sad
2.83,2597,3911,3583,2257,1526,0,0,0,1557,2614,0,2505,2599,1751,1641,3132,1.894,4.501,8.605,0.778,0.062,0.033,-1.077,-4.264,10.467,-0.446,0.597,0.429,sad
2.84,2736,3947,3633,2224,1305,0,0,0,647,235,23,51,2569,2087,2201,3429,1.997,4.628,8.902,0.795,0.129,0.019,0.225,-3.366,10.072,-0.370,0.362,0.345,sad
2.85,2814,3915,3628,2128,1118,0,0,0,89,239,48,185,381,3,1559,3495,1.918,4.647,8.739,0.865,0.207,0.031,1.283,-3.831,9.840,-0.364,0.377,0.356,sad
2.86,2905,3893,3581,2107,1045,0,0,0,123,270,25,361,341,3,1517,3379,1.951,4.800,8.602,0.962,0.251,0.070,1.080,-3.737,9.596,-0.228,0.411,0.388,sad
2.87,3013,3767,3517,2019,824,0,0,0,189,269,0,723,377,0,1627,3423,1.767,4.999,8.466,1.056,0.328,0.091,0.860,-3.656,9.263,-0.139,0.166,0.248,sad
2.88,3088,3458,3411,1905,386,0,0,0,361,309,23,850,425,4,1822,3594,1.851,5.126,8.363,1.171,0.376,0.050,0.685,-3.982,9.371,-0.108,0.068,0.159,sad
2.89,3152,2898,3209,1783,614,0,0,0,476,327,7,1315,454,3,2009,3725,1.592,5.018,8.313,1.390,0.456,0.058,0.800,-3.620,9.033,-0.055,0.100,0.107,sad
2.90,3213,2541,2877,1765,307,0,0,0,523,331,5,1587,427,5,2013,3816,2.006,5.377,9.577,1.720,0.380,-0.125,0.836,-3.716,9.309,0.027,0.120,0.088,sad
2.91,3055,1968,2186,1370,0,0,0,0,559,297,7,1715,483,3,2067,3876,1.575,6.129,9.886,2.316,0.110,-0.480,0.874,-3.745,9.428,0.044,0.107,0.103,sad
2.92,3188,1391,1188,807,0,0,0,0,796,384,17,1999,445,3,2295,3929,2.526,5.995,10.087,2.950,0.043,-0.973,0.792,-3.654,9.316,0.008,0.028,0.036,sad
2.93,2849,861,0,2,0,0,0,0,933,287,2,2239,559,5,2452,3967,2.210,7.262,9.694,3.454,0.216,-1.518,0.797,-3.749,9.390,0.004,0.023,0.012,sad
2.94,2401,496,0,0,0,0,0,0,995,238,7,2328,543,11,2491,4014,2.272,7.393,9.632,3.720,0.201,-1.774,0.883,-3.747,9.273,0.011,0.014,0.011,sad
2.95,1932,216,0,0,0,0,0,0,1180,333,325,2409,681,36,2653,4053,1.599,7.693,9.076,4.112,0.156,-1.854,0.730,-3.795,9.337,0.006,0.004,0.008,sad
2.96,881,0,0,0,0,0,0,0,1252,392,1420,2503,791,47,2727,4075,1.073,11.995,8.267,3.729,0.561,-1.940,0.788,-3.711,9.383,0.013,-0.009,0.003,sad
2.97,153,0,0,0,0,0,0,0,1267,467,1712,2645,854,47,2879,4084,0.354,4.752,19.362,0.358,-0.231,-2.183,0.749,-3.713,9.371,0.013,0.008,0.008,sad
2.98,0,0,0,0,0,0,0,0,1262,493,1876,2711,811,47,2971,4095,2.698,1.346,11.293,-0.977,-0.389,-1.782,0.790,-3.723,9.357,-0.001,0.019,0.004,sad
2.99,0,0,0,0,0,0,0,0,1336,637,1927,2747,839,50,2997,4077,4.752,1.633,9.855,-1.540,-0.628,-1.128,0.797,-3.704,9.349,-0.008,0.007,0.001,sad
3.00,0,0,0,0,0,0,0,0,1416,679,1957,2815,919,46,2971,3965,5.564,1.733,8.847,-2.175,-0.659,-0.415,0.776,-3.730,9.333,-0.006,0.014,0.009,sad
3.01,0,0,0,0,0,0,0,0,1405,855,1896,2835,1017,45,2899,4049,2.935,1.786,8.174,-2.497,-0.697,0.368,0.723,-3.728,9.306,0.019,0.012,-0.003,sad
3.02,0,0,0,0,0,0,0,0,1425,830,2039,2870,973,47,2895,4079,1.798,2.619,8.322,-2.759,-0.908,0.600,0.773,-3.711,9.306,0.017,0.013,-0.003,sad
3.03,0,0,0,0,0,0,0,0,1451,953,2075,2843,1043,77,2918,4054,1.202,2.902,9.105,-2.866,-1.007,0.684,0.852,-3.735,9.390,0.031,0.013,0.001,sad
3.04,0,0,0,0,0,0,0,0,1423,1083,2106,2809,1093,47,2837,4045,0.086,3.433,9.881,-3.120,-1.021,0.638,0.785,-3.745,9.225,0.031,0.016,-0.009,sad
3.05,0,0,0,0,0,0,0,0,1315,1193,2101,2771,1147,45,2827,4031,-0.163,4.082,9.663,-3.384,-1.221,0.449,0.828,-3.730,9.234,0.056,-0.041,-0.022,sad
3.06,0,0,0,0,0,0,0,0,1517,1107,2157,2727,1443,47,2915,4031,1.092,5.150,10.130,-3.443,-1.201,0.358,0.860,-3.728,9.361,0.068,-0.086,-0.035,sad
3.07,0,0,0,0,0,0,0,0,1497,1144,2162,2761,1564,47,2917,4025,1.662,6.184,11.866,-3.460,-1.224,0.633,0.912,-3.649,9.316,0.075,-0.088,-0.034,sad
3.08,0,0,0,0,0,0,0,0,1479,1252,2221,2748,1879,47,2987,4019,1.369,6.452,12.110,-3.372,-1.005,0.933,0.809,-3.673,9.436,0.088,-0.093,-0.031,sad
3.09,0,0,0,0,0,0,0,0,1507,1190,2183,2748,2077,49,3037,3994,-0.429,6.883,11.384,-2.642,-1.191,1.037,0.941,-3.713,9.550,0.125,-0.046,-0.031,sad
3.10,0,0,0,0,0,0,0,0,1375,1241,2188,2761,2135,47,3066,3929,0.984,9.455,11.147,-1.598,-1.631,1.149,0.716,-3.565,9.187,0.146,-0.025,-0.029,sad
3.11,0,0,0,0,0,0,0,0,1273,1381,2198,2745,2367,51,3096,3967,2.631,15.639,13.977,-1.336,-1.813,1.373,0.883,-3.534,9.378,0.104,-0.100,-0.033,sad
3.12,0,0,0,0,0,0,0,0,1193,1369,2352,2675,2454,45,3103,3927,1.037,19.613,13.405,-2.186,-0.418,1.879,0.879,-3.479,9.471,0.075,-0.042,-0.015,sad
3.13,0,0,0,0,0,0,0,0,1212,1583,2111,2841,2577,48,3007,3916,-5.092,19.613,-0.917,-2.067,-0.783,2.402,1.109,-3.508,9.426,0.072,0.018,0.003,sad
3.14,0,0,0,0,0,0,0,0,1205,1827,2101,2923,2555,45,2783,3859,-8.013,17.523,-17.739,0.272,0.280,1.997,1.144,-3.508,9.328,0.031,0.014,0.014,sad
3.15,0,0,0,0,0,0,0,0,1497,1945,2229,3017,2531,47,2390,3771,2.775,6.328,14.964,1.432,2.156,0.142,1.075,-3.464,9.337,-0.026,-0.010,0.013,sad
3.16,0,0,0,0,0,0,192,16,1677,2021,2229,3056,2531,47,2187,3720,0.484,-0.417,12.785,0.727,-0.038,0.752,1.104,-3.484,9.361,-0.054,-0.009,0.016,sad
3.17,0,0,0,0,0,0,626,1876,1963,1965,2234,3083,2255,48,1761,3455,-4.860,0.833,9.084,1.711,0.143,-0.895,1.068,-3.364,9.172,-0.116,0.003,0.021,sad
3.18,0,0,0,0,167,0,1121,2599,2347,2119,2226,3154,1836,47,1102,2830,4.812,5.751,9.708,1.521,-0.717,-0.230,1.185,-3.711,9.328,-0.184,0.091,0.022,sad
3.19,0,0,0,0,832,0,1711,2967,2488,2141,2224,3227,1637,47,865,2341,3.929,6.950,15.713,1.171,0.971,-0.677,1.204,-3.713,9.337,-0.219,0.122,0.021,sad
3.20,0,576,0,0,916,0,2128,3140,2695,1933,2229,3283,1177,17,40,1752,1.755,3.431,10.685,0.569,1.067,-0.406,0.996,-4.183,9.546,-0.264,0.122,0.015,sad
3.21,0,1067,0,0,1377,0,2230,3251,2773,1766,2231,3357,531,4,5,1230,1.015,3.055,9.814,0.515,1.007,-0.202,0.567,-3.879,8.890,-0.646,0.185,-0.178,sad
3.22,0,1469,0,0,1680,0,2304,3317,2861,1723,2234,3421,280,5,4,1237,0.924,3.340,9.771,0.168,0.569,-0.157,0.735,-4.046,8.758,-0.647,0.179,-0.183,sad
3.23,0,1680,0,0,1763,0,2389,3353,2975,1343,2175,3475,13,3,1,1047,1.252,3.158,9.778,0.199,0.586,-0.202,1.085,-3.694,8.906,-0.818,0.252,-0.328,sad
3.24,0,1889,0,0,1869,0,2439,3379,1645,2567,1563,2474,2557,1683,1532,3101,1.410,3.328,9.376,0.064,0.193,-0.282,1.159,-3.864,8.777,-1.131,0.356,-0.416,sad
3.25,0,2080,0,0,2007,0,2518,3423,1646,2565,1581,2473,2558,1669,1583,3100,1.336,3.151,9.498,0.054,0.068,-0.109,1.707,-4.317,9.596,-1.222,0.382,-0.345,sad
3.26,0,2272,30,0,2103,0,2653,3473,1613,2568,1607,2471,2555,1661,1589,3097,1.381,2.622,9.325,0.118,0.211,-0.018,1.530,-4.147,8.947,-1.484,0.615,-0.276,sad
3.27,23,2499,278,0,2299,0,2736,3542,1591,2665,1568,2471,2555,1662,1587,3097,1.185,3.168,9.606,0.115,0.111,-0.057,1.556,-4.355,9.385,-2.012,0.823,0.007,sad
3.28,36,2678,643,3,2451,0,2832,3626,1579,2556,1364,2471,2555,1677,1587,3029,1.384,3.151,9.433,0.138,0.035,-0.080,1.276,-4.673,8.973,-2.292,0.957,0.244,sad
3.29,83,2624,1139,176,2445,0,2943,3530,1571,2568,0,2471,2555,1681,1581,3098,1.204,3.251,9.529,0.152,-0.051,-0.032,1.355,-5.033,10.092,-2.971,0.716,1.159,sad
3.30,174,2925,1571,366,2723,0,3058,3705,1561,2571,2,2471,2555,1685,1583,3096,1.460,3.306,9.519,0.110,-0.041,-0.018,1.358,-6.857,10.602,-3.450,0.399,2.149,sad
3.31,170,3019,1779,483,2841,0,3159,3735,1563,2571,0,2471,2553,1685,1586,3097,1.439,3.218,9.495,0.080,-0.018,-0.001,2.030,-8.921,10.240,-3.638,0.238,2.515,sad
3.32,281,3088,1991,511,2960,0,3233,3749,1564,2569,0,2470,2555,1752,1585,3098,1.389,3.160,9.527,0.096,-0.053,0.011,0.455,-8.284,8.310,-3.566,0.173,3.008,sad
3.33,272,3183,2109,617,3003,0,3141,3727,1565,2568,0,2479,2555,1685,1581,3101,1.432,3.115,9.354,0.097,-0.022,0.013,2.234,-5.964,14.222,-1.106,0.016,3.314,sad
3.34,263,3209,2247,656,3137,0,3282,3710,1548,2589,0,2502,2589,1709,1607,3125,1.492,3.112,9.347,0.120,-0.007,0.002,7.302,-10.982,13.436,0.210,-0.118,1.907,sad
3.35,271,3257,2384,708,3181,0,3278,3673,1583,2575,0,2496,2600,1719,1596,3111,1.429,3.139,9.299,0.152,-0.033,-0.014,4.774,-0.716,5.722,1.239,-0.132,0.470,sad
3.36,274,3295,2501,854,3227,0,3271,3631,0,0,0,0,0,0,0,62,1.441,3.189,9.299,0.162,-0.052,-0.022,3.709,-1.393,7.939,1.391,-0.581,-0.354,sad
3.37,258,3338,2630,977,3280,0,3264,3583,1593,2581,0,2505,2622,1739,1599,3125,1.348,3.211,9.301,0.158,-0.056,-0.013,2.677,-2.014,8.995,1.692,-0.689,-0.706,sad
3.38,272,3381,2733,1147,3338,0,3264,3535,1592,2571,17,2503,2598,1694,1591,3115,1.465,3.239,9.290,0.167,-0.059,-0.005,-0.718,-1.805,8.478,2.231,-1.100,-0.894,sad
3.39,325,3446,2821,1280,3379,0,3269,3472,1589,2584,0,2515,2616,1751,1609,3127,1.480,3.364,9.294,0.158,-0.062,-0.001,-1.432,-1.815,8.861,2.751,-1.266,-0.609,sad
3.40,467,3501,2918,1449,3426,0,3274,3422,1587,2581,0,2505,2598,1705,1595,3129,1.578,3.383,9.354,0.126,-0.054,-0.010,-1.113,-3.390,9.986,2.783,-1.312,-0.518,sad
3.41,496,3546,2969,1566,3471,0,3271,3360,1584,2579,0,2509,2591,1695,1591,3123,1.609,3.366,9.306,0.132,-0.052,-0.022,-0.520,-3.831,10.027,2.856,-1.433,-0.526,sad
3.42,560,3609,3041,1663,3504,0,3275,3275,1579,2569,0,2494,2585,1682,1587,3118,1.472,3.354,9.342,0.118,-0.044,-0.010,-0.038,-4.032,10.767,2.759,-1.500,-0.682,sad
3.43,617,3643,3110,1759,3539,0,3268,3138,1581,2485,0,2523,2585,1682,1587,3115,1.590,3.357,9.318,0.129,-0.028,-0.018,0.077,-4.353,11.700,2.690,-1.541,-0.751,sad
3.44,679,3690,3162,1872,3562,0,3231,3002,1571,2575,0,2501,2587,1687,1589,3122,1.585,3.426,9.201,0.147,-0.041,-0.030,0.129,-4.401,11.255,2.493,-1.431,-0.763,sad
3.45,733,3711,3229,1943,3574,0,3199,2891,1583,2615,0,2539,2582,1771,1623,3157,1.609,3.239,9.256,0.195,-0.045,-0.045,0.239,-4.927,10.482,1.718,-1.702,-0.683,sad
3.46,798,3735,3279,2054,3598,0,3140,2769,0,0,0,0,0,1,10,0,1.525,3.275,9.268,0.253,-0.035,-0.057,1.154,-5.890,11.226,1.296,-1.888,-0.727,sad
3.47,899,3762,3313,2160,3615,0,3086,2598,0,0,0,0,23,0,0,0,1.563,3.661,9.285,0.234,-0.074,-0.067,1.401,-10.348,15.124,1.029,-1.783,-1.001,sad
3.48,1094,3803,3362,2229,3632,0,2991,2403,0,0,0,0,0,0,0,22,1.671,3.577,9.163,0.228,-0.076,-0.067,-1.250,-12.555,13.800,1.608,-1.799,-1.257,sad
3.49,1238,3823,3407,2274,3643,0,2928,2192,0,0,0,0,0,0,0,0,1.659,3.618,9.067,0.226,-0.072,-0.062,-2.081,-11.334,10.252,1.793,-1.524,-1.309,sad
3.50,1343,3842,3233,2327,3636,0,2753,1959,0,13,0,0,0,0,25,0,1.674,3.627,9.201,0.204,-0.074,-0.057,-4.434,-12.060,4.245,1.324,-1.075,-1.148,sad
3.51,1503,3875,3494,2369,3649,0,2758,1617,0,0,0,0,0,0,3,0,1.877,3.776,8.995,0.212,-0.078,-0.037,-4.808,-14.126,-0.294,0.550,-0.571,-1.029,sad
3.52,1709,3898,3531,2400,3657,0,2637,1151,0,0,0,0,0,0,0,0,1.798,3.627,9.201,0.218,-0.111,-0.057,-3.697,-11.801,-2.131,-0.091,-0.108,-0.826,sad
3.53,1957,3918,3566,2416,3643,0,2384,0,0,0,0,0,0,0,0,0,1.815,3.754,9.160,0.277,-0.139,-0.064,4.362,-3.304,7.793,-1.647,1.657,-0.547,sad
3.54,2096,3934,3583,2401,3613,0,2118,0,0,0,0,0,0,0,0,0,1.829,3.836,9.131,0.314,-0.112,-0.059,7.827,-4.752,17.166,-1.160,1.150,-0.964,sad
3.55,2229,3951,3619,2417,3568,0,1874,0,0,0,0,0,0,0,0,0,1.753,3.836,9.117,0.342,-0.086,-0.047,5.394,-1.247,11.315,-0.707,0.964,-0.943,sad
3.56,2289,3894,3616,2422,3427,0,1585,0,0,0,0,0,12,0,0,0,1.597,3.974,8.981,0.367,-0.058,-0.054,0.692,0.759,5.768,-1.063,0.979,-0.626,sad
3.57,2402,3969,3633,2432,3397,0,1107,0,30,0,0,0,0,0,0,223,1.571,3.984,9.024,0.356,-0.043,-0.063,0.917,-2.346,9.819,-1.361,1.012,-0.380,sad
3.58,2517,3975,3658,2471,3097,0,511,0,0,0,0,0,0,47,283,1299,1.793,3.809,9.134,0.290,-0.021,-0.132,-7.963,0.247,10.527,-1.486,0.233,0.493,sad
3.59,2615,3971,3666,2445,2335,0,386,0,1592,2580,0,2509,2603,1709,1595,3119,1.980,3.917,8.916,0.504,-0.046,-0.068,-2.600,-3.168,10.585,-1.520,-0.115,0.621,sad
3.60,2673,3930,3669,2337,1997,0,187,0,11,0,0,10,0,0,1031,2509,1.832,4.113,8.935,0.689,0.032,-0.005,4.961,-19.613,19.613,-0.130,1.566,0.988,sad
3.61,2785,3978,3683,2349,1701,0,0,0,1564,2635,0,2519,2590,1739,1647,3167,1.841,4.372,8.875,0.728,0.061,0.030,3.220,-4.458,9.627,-0.021,1.251,0.612,sad
3.62,2866,3984,3696,2301,1455,0,0,0,1519,2633,0,2485,2542,1727,1635,3103,1.803,4.345,8.935,0.808,0.078,0.023,1.683,-3.426,10.649,-0.118,1.087,0.416,sad
3.63,2943,3966,3681,2225,1322,0,0,0,1491,2633,5,2472,2515,1764,1679,3128,1.870,4.384,8.739,0.908,0.152,0.042,1.362,-3.153,9.663,-0.307,1.029,0.453,sad
3.64,3024,3921,3650,2132,1185,0,0,0,1560,2603,12,2493,2579,1717,1620,3126,1.982,4.594,8.569,1.033,0.223,0.106,0.175,-4.484,12.620,-0.546,0.542,0.368,sad
3.65,3091,3873,3613,2020,995,0,0,0,1562,2585,23,2485,2584,1741,1614,3109,2.231,5.061,8.509,1.126,0.314,0.131,1.733,-3.141,8.890,-0.437,0.485,0.296,sad
3.66,3168,3739,3519,1954,759,0,0,0,1565,2582,135,2458,2568,1712,1646,3103,1.765,4.956,8.444,1.278,0.291,0.131,1.623,-3.759,9.467,-0.233,0.362,0.239,sad
3.67,3198,3312,3356,1899,580,0,0,0,106,469,53,300,809,3,2281,3811,2.267,5.064,8.461,1.433,0.350,0.095,1.058,-3.850,9.708,-0.170,0.134,0.148,sad
3.68,3215,2864,2984,1679,178,0,0,0,150,2600,0,2521,2713,156,2426,3195,1.547,4.855,8.701,1.830,0.334,0.038,0.962,-3.792,9.792,-0.107,0.046,0.081,sad
3.69,3171,2501,2672,1424,0,0,0,0,1594,2657,71,2543,2647,1811,1655,3025,1.772,5.763,9.505,2.304,0.141,-0.252,1.221,-3.754,9.498,-0.024,-0.038,0.003,sad
3.70,2960,2065,1516,731,0,0,0,0,1598,2602,53,2531,2627,1689,1676,3144,2.753,6.584,10.642,2.993,-0.379,-0.886,1.276,-3.733,9.311,0.022,-0.040,-0.027,sad
3.71,2330,1183,51,83,0,0,0,0,61,935,74,739,1743,0,3109,4047,3.146,7.120,8.861,3.542,-0.135,-1.403,1.391,-3.627,9.244,0.118,-0.051,-0.057,sad
3.72,1789,797,0,0,0,0,0,0,35,1020,43,819,2009,3,3283,4095,2.650,8.071,8.842,3.939,0.055,-1.852,1.288,-3.314,9.440,0.062,-0.023,-0.012,sad
3.73,1235,43,0,0,0,0,0,0,57,988,952,876,2223,23,3405,4095,2.543,10.048,6.735,3.800,0.693,-2.078,1.250,-3.326,9.285,-0.015,0.043,0.070,sad
3.74,596,0,0,0,0,0,0,0,68,1003,1128,989,2297,43,3463,4095,2.155,9.479,13.815,2.288,0.742,-2.075,1.142,-3.285,9.345,-0.029,0.122,0.097,sad
3.75,0,0,0,0,0,0,0,0,115,1005,1167,1435,2331,29,3497,4095,6.340,2.737,10.963,-0.091,0.325,-1.792,1.164,-3.213,9.167,-0.091,0.314,0.197,sad
3.76,0,0,0,0,0,0,0,0,227,1087,1773,1810,2271,46,3487,4095,4.144,1.422,8.899,-0.866,0.172,-0.622,1.116,-3.469,9.357,-0.094,0.229,0.192,sad
3.77,0,0,0,0,0,0,0,0,315,1053,1799,1926,2151,47,3487,4095,2.614,2.344,8.820,-1.438,-0.202,-0.017,1.034,-3.512,9.397,-0.144,0.159,0.172,sad
3.78,0,0,0,0,0,0,0,0,443,971,2060,2190,1869,37,3420,4095,2.365,3.014,8.181,-2.147,-0.297,0.288,1.152,-3.682,9.215,-0.126,0.124,0.124,sad
3.79,0,0,0,0,0,0,0,0,423,985,1924,2329,1762,51,3385,4089,1.702,2.878,7.061,-2.450,-0.192,0.363,1.085,-3.783,9.342,-0.095,0.096,0.091,sad
3.80,0,0,0,0,0,0,0,0,531,1023,1950,2264,1611,51,3359,4095,1.082,3.160,7.094,-2.581,-0.209,0.386,1.030,-3.704,9.230,-0.070,0.087,0.067,sad
3.81,0,0,0,0,0,0,0,0,776,1096,2042,2392,1511,51,3299,4095,1.032,4.396,8.241,-2.904,-0.419,0.351,1.053,-3.666,9.287,-0.055,0.053,0.052,sad
3.82,0,0,0,0,0,0,0,0,765,1131,2047,2389,1512,53,3259,4095,1.293,5.064,8.320,-3.238,-0.584,0.288,1.161,-3.747,9.340,-0.035,0.053,0.054,sad
3.83,0,0,0,0,0,0,0,0,1069,1180,2075,2547,1614,51,3262,4095,2.138,5.602,7.855,-3.294,-0.629,0.282,1.030,-3.721,9.297,-0.013,-0.001,0.030,sad
3.84,0,0,0,0,0,0,0,0,1255,1211,2096,2671,1992,50,3273,4087,4.017,6.622,8.926,-3.188,-0.631,0.604,1.065,-3.656,9.340,-0.035,-0.015,0.007,sad
3.85,0,0,0,0,0,0,0,0,1291,1288,2096,2678,2095,51,3289,4083,4.223,6.393,9.414,-2.993,-0.643,1.240,1.037,-3.733,9.275,-0.003,-0.006,0.015,sad
3.86,0,0,0,0,0,0,0,0,1439,1331,2114,2735,2246,51,3310,4069,3.223,6.835,10.827,-2.724,-0.759,1.877,1.032,-3.733,9.371,0.013,-0.012,0.012,sad
3.87,0,0,0,0,0,0,0,0,1557,1323,2226,2715,2375,47,3311,4044,0.630,6.440,10.803,-2.401,-0.591,2.030,1.001,-3.740,9.424,-0.007,-0.013,0.014,sad
3.88,0,0,0,0,0,0,0,0,1399,1322,2178,2761,2423,48,3291,4037,-0.350,6.855,10.606,-1.749,-0.891,1.805,1.039,-3.680,9.313,0.007,-0.002,0.021,sad
3.89,0,0,0,0,0,0,0,0,1465,1327,2172,2787,2477,51,3253,4011,1.101,9.179,12.447,-1.301,-0.778,1.536,1.106,-3.701,9.330,0.029,0.004,0.021,sad
3.90,0,0,0,0,0,0,0,0,1365,1363,2183,2814,2553,53,3207,3940,0.536,11.092,13.537,-1.367,-0.603,1.267,1.125,-3.627,9.278,0.009,-0.078,0.002,sad
3.91,0,0,0,0,0,0,0,0,1545,1499,2183,2773,2578,48,3189,3960,-0.622,11.911,12.139,-1.697,-0.928,0.997,1.118,-3.716,9.366,0.015,-0.166,-0.010,sad
3.92,0,0,0,0,0,0,0,0,1648,1719,2267,2686,2787,47,3305,3921,-2.495,12.179,8.423,-1.846,-1.703,0.946,1.053,-3.689,9.366,0.054,-0.111,-0.032,sad
3.93,0,0,0,0,0,0,0,0,1405,1805,2203,2582,2887,72,3081,3870,-0.172,13.807,2.251,-1.806,-1.036,1.010,1.365,-3.864,9.397,0.177,0.036,-0.023,sad
3.94,0,0,0,0,0,0,0,0,1319,1883,2218,2591,2877,46,3033,3851,-2.478,11.765,-2.586,-0.761,0.180,1.025,1.243,-3.546,9.323,0.184,0.062,-0.018,sad
3.95,0,0,0,0,0,0,0,0,1371,1955,2224,2696,2899,47,2823,3812,-2.354,8.701,0.716,0.397,0.502,0.301,1.106,-3.484,9.488,0.145,0.035,-0.020,sad
3.96,0,0,0,0,0,0,0,0,1491,1977,2224,2789,2863,45,2696,3789,3.807,5.057,12.663,0.713,1.457,0.015,1.128,-3.455,9.297,0.119,0.035,-0.008,sad
3.97,0,0,0,0,0,0,0,0,1609,1965,2201,2862,2799,55,2470,3701,2.911,-0.369,10.484,0.543,0.401,0.534,1.113,-3.417,9.426,0.082,0.018,0.017,sad
3.98,0,0,0,0,0,0,145,61,1720,2058,2116,2975,2536,51,2221,3626,0.271,0.974,8.519,0.985,0.481,0.178,1.336,-3.448,9.424,0.011,0.073,0.033,sad
3.99,0,0,0,0,0,0,592,1719,1990,2026,2226,3063,2318,47,1767,3352,-0.898,0.101,9.328,1.592,-0.009,-0.118,1.247,-3.378,9.378,-0.081,0.072,0.027,sad
4.00,0,0,0,0,413,0,1055,2507,2171,2041,2226,3087,2249,48,1434,3124,2.308,5.691,11.937,1.338,-0.360,-0.093,1.192,-3.428,9.376,-0.118,0.037,0.017,sad
4.01,0,0,0,0,680,0,1626,2941,2471,2141,2229,3153,1766,47,905,2441,2.203,2.377,10.240,1.034,-0.457,-0.020,1.235,-3.541,9.443,-0.205,0.085,0.011,sad
4.02,0,59,0,0,922,0,2218,3097,2614,1899,2231,3198,1159,23,84,1855,5.207,4.963,9.270,0.366,0.288,-0.179,2.294,-2.782,9.807,-0.020,0.092,0.049,sad
4.03,0,529,0,0,1222,0,2320,3161,2623,1790,2203,3255,1053,9,10,1881,3.230,2.998,9.922,0.259,0.619,-0.268,1.192,-5.643,9.057,-0.237,0.122,0.074,sad
4.04,0,791,0,0,1703,0,2389,3214,2793,1734,2080,3381,411,5,69,1234,1.889,3.431,10.329,0.161,0.451,-0.125,1.063,-3.354,9.440,-0.484,0.198,-0.118,sad
4.05,0,1037,0,0,1877,0,2467,3249,2861,1461,2244,3356,165,7,2,1062,2.342,2.847,9.471,0.159,0.534,-0.154,1.125,-3.548,8.717,-0.648,0.172,-0.207,sad
4.06,0,1303,0,0,1992,0,2534,3287,2892,1605,2247,3411,45,4,3,965,2.342,2.746,9.584,0.115,0.521,-0.205,1.300,-3.677,9.134,-0.624,0.169,-0.210,sad
4.07,0,1520,0,0,2030,0,2608,3323,1626,2556,1563,2484,2573,1679,1578,3101,2.131,2.758,9.385,0.107,0.421,-0.148,1.530,-3.958,9.290,-0.764,0.299,-0.239,sad
4.08,0,1653,0,0,2256,0,2673,3354,1641,2556,1581,2479,2572,1673,1576,3102,2.112,2.928,9.488,0.087,0.455,-0.098,1.156,-4.508,9.093,-0.806,0.262,-0.204,sad
4.09,0,1811,0,0,2327,0,2754,3415,1607,2569,1589,2471,2553,1749,1587,3097,1.626,2.746,9.541,0.114,0.438,-0.095,1.429,-4.458,9.273,-0.874,0.303,-0.190,sad
4.10,0,1967,0,0,2509,0,2861,3439,1591,2573,1620,2463,2551,1689,1595,3099,1.932,2.622,9.366,0.107,0.376,-0.128,1.204,-4.401,8.914,-1.009,0.361,-0.144,sad
4.11,0,2164,0,0,2559,0,2902,3437,1573,2577,1620,2463,2549,1692,1594,3096,1.918,2.653,9.249,0.205,0.459,-0.157,0.804,-4.322,9.041,-1.212,0.226,0.086,sad
4.12,0,2527,0,0,2689,0,3030,3471,1532,2583,1612,2455,2541,1702,1599,3093,1.276,3.194,10.065,0.188,0.302,-0.116,1.097,-4.511,9.163,-1.415,0.257,0.149,sad
4.13,0,2761,122,0,2841,0,3101,3466,1518,2589,1284,2429,2533,1717,1614,3093,1.264,2.909,9.718,0.122,0.113,-0.054,1.161,-5.145,9.716,-1.897,0.403,0.415,sad
4.14,1,2883,609,0,2977,0,3182,3553,1523,2595,0,2451,2537,1708,1613,3095,1.441,2.952,9.646,0.168,0.020,-0.054,1.264,-5.492,9.601,-2.449,0.019,1.011,sad
4.15,2,3015,948,0,3106,0,3253,3565,1527,2587,0,2455,2541,1705,1607,3095,1.628,2.957,9.486,0.199,0.014,-0.064,0.946,-5.909,11.368,-2.542,-0.162,1.425,sad
4.16,46,3120,1395,0,3234,0,3303,3566,1525,2591,0,2455,2634,1708,1610,3095,1.769,3.048,9.467,0.190,-0.016,-0.044,0.575,-6.309,9.986,-2.841,-0.550,2.082,sad
4.17,19,3214,1700,0,3354,0,3344,3533,1525,2667,0,2430,2542,1701,1651,3155,1.808,3.093,9.431,0.158,-0.032,-0.039,0.584,-4.597,12.917,-1.384,-0.153,3.042,sad
4.18,49,3255,1889,0,3433,0,3365,3476,1448,2664,0,2549,2335,1946,1739,3173,1.839,2.954,9.306,0.155,-0.037,-0.042,3.958,-3.783,9.701,-0.745,0.163,3.111,sad
4.19,54,3296,2023,0,3497,0,3366,3394,0,0,0,0,0,0,0,0,1.832,3.033,9.290,0.144,-0.041,-0.024,7.532,-3.112,10.190,0.104,0.579,1.570,sad
4.20,55,3337,2117,0,3526,0,3366,3344,0,0,0,0,0,0,0,0,1.750,3.086,9.306,0.150,-0.020,-0.025,6.452,-2.461,6.828,0.286,0.517,0.772,sad
4.21,48,3376,2201,1,3536,0,3347,3283,1567,2604,0,2496,2653,1851,1645,3145,1.736,3.235,9.347,0.123,-0.005,-0.015,4.645,-1.599,6.886,0.290,0.189,-0.086,sad
4.22,36,3427,2308,80,3567,0,3333,3204,1587,2571,0,2495,2585,1679,1581,3116,1.762,2.938,9.182,0.140,0.007,-0.041,1.085,-2.435,9.333,0.587,-0.260,-0.970,sad
4.23,83,3483,2439,346,3583,0,3314,3127,1591,2573,0,2502,2591,1689,1585,3063,1.748,3.077,9.239,0.167,0.023,-0.054,-0.747,-2.844,10.211,1.010,-0.333,-0.980,sad
4.24,121,3528,2546,405,3610,0,3302,3071,1583,2580,0,2503,2590,1695,1591,3119,1.590,3.282,9.438,0.142,-0.007,-0.050,-1.930,-2.813,8.995,1.643,-0.388,-0.542,sad
4.25,176,3578,2640,577,3630,0,3307,3035,1589,2543,0,2523,2611,1723,1610,3133,1.628,3.287,9.416,0.125,0.004,-0.037,-0.259,-3.838,9.165,2.081,-0.511,-0.331,sad
4.26,203,3601,2721,641,3646,0,3303,3011,1556,2585,0,2516,2660,1693,1596,3131,1.681,3.110,9.220,0.104,0.004,-0.039,0.141,-4.164,9.151,2.224,-0.551,-0.401,sad
4.27,242,3643,2777,731,3701,0,3308,2990,1592,2575,0,2508,2597,1691,1591,3123,1.640,3.201,9.390,0.127,-0.012,-0.041,0.376,-4.480,9.282,2.342,-0.631,-0.587,sad
4.28,262,3665,2835,795,3671,0,3299,2945,1592,2552,0,2487,2599,1661,1637,3108,1.657,3.225,9.323,0.109,0.001,-0.027,0.539,-4.798,10.178,2.400,-0.561,-0.722,sad
4.29,273,3701,2895,862,3682,0,3287,2924,1603,2552,0,2487,2579,1672,1567,3104,1.863,3.041,9.380,0.120,-0.005,-0.037,0.563,-4.803,10.362,2.395,-0.551,-0.781,sad
4.30,256,3719,2929,927,3696,0,3280,2871,1577,2573,0,2503,2589,1583,1583,3117,1.841,3.330,9.361,0.105,-0.001,-0.029,0.723,-4.903,10.707,2.359,-0.515,-0.922,sad
4.31,208,3701,2781,962,3612,0,3059,2830,1587,2572,0,2495,2585,1687,1678,3116,1.707,3.268,9.215,0.129,0.001,-0.032,-0.144,-4.192,9.522,2.137,-0.315,-0.847,sad
4.32,307,3749,3023,992,3715,0,3243,2788,1587,2567,0,2490,2581,1679,1579,3103,1.676,3.335,9.388,0.119,-0.005,-0.033,-0.448,-4.046,9.598,1.885,-0.307,-0.707,sad
4.33,310,3770,3054,1073,3716,0,3216,2732,1590,2597,0,2523,2613,1725,1613,3142,1.774,3.381,9.222,0.145,-0.010,-0.035,0.333,-5.279,11.009,1.412,-0.633,-0.555,sad
4.34,311,3719,3091,991,3722,0,3183,2610,1,2745,0,2431,2723,0,2042,3288,1.784,3.400,9.208,0.131,-0.018,-0.041,0.503,-7.283,13.163,1.314,-0.984,-0.561,sad
4.35,396,3804,3133,1022,3730,0,3151,2637,1587,2583,0,2508,2599,1705,1599,3127,1.760,3.397,9.206,0.124,-0.012,-0.044,-0.141,-7.772,12.955,1.376,-1.138,-0.534,sad
4.36,378,3815,3176,1019,3739,0,3126,2586,0,0,0,0,0,0,0,0,1.762,3.352,9.165,0.129,-0.002,-0.041,-0.108,-9.117,11.823,1.391,-1.326,-0.456,sad
4.37,430,3835,3216,991,3729,0,3083,2544,0,0,99,0,0,0,0,0,1.793,3.428,9.203,0.122,-0.003,-0.044,-1.532,-10.216,10.269,1.709,-1.043,-0.401,sad
4.38,364,3858,3251,1114,3750,0,3037,2512,0,0,0,0,0,0,0,0,1.712,3.361,9.278,0.117,0.002,-0.045,-2.859,-9.323,7.075,1.652,-0.996,-0.291,sad
4.39,449,3861,3280,1156,3743,0,2997,2441,0,0,0,0,0,0,0,0,1.721,3.496,9.160,0.118,0.000,-0.034,-3.036,-9.510,2.828,0.985,-0.700,0.111,sad
4.40,423,3885,3306,1072,3738,0,2966,2429,0,0,0,0,0,0,0,0,1.745,3.498,9.210,0.107,0.007,-0.032,-2.500,-10.032,2.140,0.588,-0.421,0.158,sad
4.41,419,3877,3329,1102,3739,0,2924,2333,0,0,94,0,0,0,0,0,1.918,3.421,9.177,0.117,0.005,-0.056,-1.322,-8.693,1.666,-0.458,0.421,-0.011,sad
4.42,496,3899,3355,1214,3734,0,2855,2192,0,0,0,0,0,0,59,0,1.791,3.409,9.196,0.135,0.003,-0.062,-0.910,-8.442,3.752,-0.887,0.674,-0.074,sad
4.43,482,3907,3376,1247,3746,0,2747,2025,0,0,0,54,0,0,0,0,1.839,3.524,9.153,0.157,0.005,-0.073,7.034,4.171,7.171,-1.448,1.121,-0.569,sad
4.44,526,3908,3403,1207,3728,0,2659,1933,0,0,0,0,0,0,0,0,1.913,3.508,9.112,0.176,0.009,-0.079,7.068,3.299,19.613,-0.070,1.032,-0.316,sad
4.45,541,3920,3434,1286,3728,0,2544,1740,0,2,5,0,0,0,0,6,1.877,3.438,9.136,0.194,0.003,-0.090,3.862,5.605,18.510,0.056,-0.488,-0.558,sad
4.46,579,3937,3458,1386,3711,0,2444,1407,0,0,0,0,3,0,0,0,1.891,3.508,9.062,0.230,0.010,-0.093,0.977,2.986,1.554,-0.653,-0.683,-0.199,sad
4.47,575,3941,3478,1493,3680,0,2335,637,1560,2584,0,2483,2569,1701,1599,3111,1.925,3.584,9.069,0.256,0.033,-0.104,1.580,-1.911,7.089,-1.332,-0.249,0.067,sad
4.48,548,3951,3531,1634,3621,0,2103,0,0,0,0,0,0,0,63,1175,1.736,3.512,9.117,0.299,0.046,-0.090,-1.745,1.056,9.754,-1.092,-0.793,-0.055,sad
4.49,635,3968,3578,1711,3506,0,1668,0,0,13,0,11,5,1,125,1019,1.915,3.560,9.364,0.381,0.032,-0.084,-0.433,-1.171,8.997,-1.485,-0.972,0.217,sad
4.50,711,3981,3628,1818,3284,0,1015,0,0,0,0,0,0,0,886,2232,1.616,4.008,9.201,0.422,0.029,-0.086,2.492,-3.199,9.629,-1.200,-0.983,0.050,sad
4.51,912,3984,3658,1868,2849,0,454,0,0,0,0,0,0,0,1207,2835,1.712,3.512,9.177,0.404,-0.026,-0.173,8.282,-7.298,10.147,-0.453,0.587,0.301,sad
4.52,1127,3954,3664,1881,2112,0,358,0,4,0,0,0,57,0,1467,3038,1.571,4.228,9.187,0.664,-0.007,-0.005,4.393,-1.980,6.998,-0.169,0.858,0.349,sad
4.53,1191,3995,3689,1921,1843,0,243,0,0,0,0,0,141,0,1753,3347,1.664,4.250,8.873,0.723,0.003,0.052,1.472,-2.758,9.199,-0.146,0.926,0.412,sad
4.54,1382,3991,3696,2017,1631,0,92,0,1567,2575,0,2491,2581,1695,1593,3113,1.731,4.240,8.887,0.683,0.002,0.052,1.879,-2.751,8.940,-0.184,0.801,0.347,sad
4.55,1661,3998,3620,1990,1175,0,0,0,1581,2590,7,2517,2621,1752,1628,3131,1.753,4.494,8.906,0.716,0.069,0.070,1.362,-3.285,10.123,-0.172,0.772,0.350,sad
4.56,1921,3984,3703,2018,1072,0,0,0,1581,2572,2,2487,2572,1695,1588,3111,1.913,4.484,8.739,0.781,0.071,0.090,2.090,-3.311,9.677,-0.113,0.785,0.318,sad
4.57,2055,3887,3710,1897,984,0,0,0,1583,2579,0,2489,2577,1692,1594,3113,1.970,4.616,8.607,0.843,0.127,0.096,1.666,-3.385,9.819,-0.102,0.625,0.210,sad
4.58,2185,3932,3664,1889,826,0,0,0,1657,2581,2,2491,2579,1692,1595,3117,1.978,4.678,8.614,0.939,0.221,0.093,1.257,-3.244,9.747,-0.104,0.415,0.129,sad
4.59,2230,3870,3616,1898,816,0,0,0,1587,2600,0,2525,2632,1787,1643,3133,1.937,4.604,8.696,1.130,0.298,0.080,1.480,-3.168,9.577,-0.100,0.244,0.062,sad
4.60,2341,3561,3490,1840,403,0,0,0,1590,2571,0,2488,2579,1688,1591,3111,2.081,4.664,8.684,1.417,0.328,0.085,1.537,-3.206,9.491,-0.059,0.245,0.055,sad
4.61,2492,3066,3193,1666,22,0,0,0,1592,2572,2,2484,2579,1687,1589,3112,1.401,4.685,9.273,1.840,0.370,0.088,1.544,-3.206,9.450,-0.044,0.232,0.051,sad
4.62,2467,2469,2829,1439,0,0,0,0,1595,2569,20,2488,2579,1687,1589,3109,1.317,4.764,9.728,2.492,0.362,-0.128,1.358,-3.175,9.531,-0.044,0.162,0.036,sad
4.63,2672,1596,1467,775,0,0,0,0,1599,2572,120,2491,2581,1687,1591,2975,2.509,6.445,11.119,2.899,0.211,-0.799,1.367,-3.062,9.297,-0.059,0.082,0.035,sad
4.64,2540,830,0,51,0,0,0,0,1605,2568,33,2447,2581,1689,1589,3113,2.861,6.986,8.035,3.163,0.766,-1.344,1.408,-3.316,9.529,-0.046,0.093,0.041,sad
4.65,2248,290,0,0,0,0,0,0,1605,2567,33,2488,2573,1679,1586,3109,1.544,7.427,7.863,3.456,0.851,-1.636,1.451,-3.218,9.464,-0.021,0.089,0.045,sad
4.66,1503,0,0,0,0,0,0,0,1607,2569,40,2489,2579,1689,1589,3111,1.403,8.140,8.159,3.504,0.904,-1.988,1.336,-3.242,9.527,-0.011,0.080,0.040,sad
4.67,832,0,0,0,0,0,0,0,1608,2577,140,2503,2584,1681,1597,3119,0.441,10.525,11.806,2.408,0.935,-1.988,1.331,-3.182,9.438,-0.011,0.083,0.043,sad
4.68,0,0,0,0,0,0,0,0,1611,2709,51,2538,2619,1737,1644,3163,5.607,2.330,13.029,-0.359,0.495,-1.859,1.662,-3.464,9.416,0.016,0.056,0.030,sad
4.69,30,0,0,0,0,0,0,0,1610,2579,46,2503,2589,1702,1605,3117,4.604,1.001,9.222,-0.806,0.306,-0.661,1.456,-3.182,9.467,0.043,0.059,-0.006,sad
4.70,0,0,0,0,0,0,0,0,1606,2577,40,2495,2583,1691,1596,3116,3.742,2.339,8.921,-1.396,-0.323,0.116,1.379,-3.156,9.433,0.044,0.059,-0.011,sad
4.71,0,0,0,0,0,0,0,0,1613,2584,48,2510,2603,1707,1586,3127,2.933,2.847,8.310,-1.961,-0.409,0.626,1.456,-3.062,9.359,0.025,0.061,0.010,sad
4.72,0,0,0,0,0,0,0,0,53,815,33,477,2676,46,2451,4083,1.437,2.574,7.051,-2.196,-0.459,0.819,1.441,-3.043,9.352,0.003,0.016,0.032,sad
4.73,0,0,0,0,0,0,0,0,47,861,51,489,2521,3,3501,4055,1.192,3.045,7.556,-2.245,-0.508,0.835,1.293,-3.053,9.278,-0.010,-0.007,0.049,sad
4.74,0,0,0,0,0,0,0,0,52,890,12,541,2533,2,3563,4010,0.984,3.783,8.973,-2.438,-0.598,0.795,1.427,-3.146,9.369,-0.036,-0.004,0.061,sad
4.75,0,0,0,0,0,0,0,0,63,907,882,549,2509,20,3365,3684,0.400,4.336,9.864,-2.704,-0.658,0.735,1.444,-3.156,9.270,-0.044,-0.004,0.061,sad
4.76,0,0,0,0,0,0,0,0,63,907,882,549,2509,20,3365,3684,0.294,4.398,9.136,-2.902,-0.714,0.673,1.444,-3.156,9.270,-0.044,0.011,0.057,sad
4.77,0,0,0,0,0,0,0,0,75,986,1174,635,2645,22,3580,3989,0.302,4.108,8.554,-2.916,-0.739,0.597,1.468,-3.196,9.414,-0.028,0.003,0.050,sad
4.78,0,0,0,0,0,0,0,0,75,986,1174,635,2645,22,3580,3989,0.716,4.836,9.467,-2.936,-0.760,0.578,1.468,-3.196,9.414,-0.022,0.014,0.060,sad
4.79,0,0,0,0,0,0,0,0,1620,2585,977,2569,2605,1712,1609,3131,1.010,5.037,9.972,-2.968,-0.756,0.600,1.453,-3.184,9.388,-0.039,0.045,0.061,sad
4.80,0,0,0,0,0,0,0,0,1617,2567,1123,2493,2587,1685,1588,3115,0.661,4.997,10.678,-2.929,-0.814,0.695,1.365,-3.184,9.364,-0.056,0.053,0.066,sad
4.81,0,0,0,0,0,0,0,0,1614,2555,1184,2492,2582,1677,1581,3111,0.634,5.133,10.688,-2.914,-0.704,0.706,1.429,-3.311,9.524,-0.020,0.070,0.048,sad
4.82,0,0,0,0,0,0,0,0,1614,2573,1287,2501,2578,1658,1581,3119,-0.517,4.185,9.582,-2.501,-0.084,0.402,1.437,-3.249,9.378,-0.008,0.072,0.042,sad
4.83,0,0,0,0,0,0,0,0,1618,2567,1126,2495,2588,1687,1591,3112,-1.389,5.406,11.155,-1.762,-0.769,0.202,1.463,-3.148,9.337,-0.023,0.057,0.052,sad
4.84,0,0,0,0,0,0,0,0,158,1343,1904,811,2715,39,3391,3815,0.548,8.114,11.416,-1.052,-1.604,0.423,1.429,-3.259,9.349,-0.056,0.017,0.080,sad
4.85,0,0,0,0,0,0,0,0,93,1481,2024,1167,2933,27,3705,4067,2.049,15.605,17.133,-1.291,-1.154,0.741,1.384,-3.282,9.424,-0.038,0.041,0.093,sad
4.86,0,0,0,0,0,0,0,0,149,1512,2044,1188,2955,86,3725,4075,-1.958,18.668,14.068,-2.753,-0.357,1.050,1.413,-3.287,9.352,-0.039,0.019,0.086,sad
4.87,0,0,0,0,0,0,0,0,229,1525,2085,1351,3055,44,3741,4089,-3.491,13.707,-0.050,-2.466,-0.687,1.316,1.444,-3.273,9.416,-0.086,-0.000,0.106,sad
4.88,0,0,0,0,0,0,0,0,315,1771,2126,1648,3118,51,3764,4073,-2.897,13.961,-7.776,-0.499,-0.104,1.297,1.367,-3.385,9.436,-0.073,0.026,0.104,sad
4.89,0,0,0,0,0,0,0,0,460,1854,2152,1781,3131,30,3700,4055,-5.459,13.654,-4.599,1.231,0.671,0.677,1.446,-3.302,9.388,-0.071,0.030,0.116,sad
4.90,0,0,0,0,0,0,0,0,658,1946,2188,1929,3169,51,3555,4003,2.653,2.672,19.613,0.025,0.566,0.294,1.369,-3.297,9.357,-0.091,0.019,0.098,sad
4.91,0,0,0,0,0,0,178,0,683,1977,2203,2037,3177,52,3493,3955,1.870,-3.417,6.831,0.470,-0.086,0.391,1.362,-3.318,9.388,-0.127,0.011,0.090,sad
4.92,0,0,0,0,0,0,511,1580,1039,2086,2357,2207,3151,51,3108,3848,-0.177,0.215,7.994,1.772,0.328,-0.832,1.384,-3.467,9.388,-0.155,0.042,0.079,sad
4.93,0,0,0,0,254,0,994,2303,1195,2095,2234,2441,3126,51,2679,3755,2.538,4.913,9.845,1.225,-0.157,-0.252,1.365,-3.486,9.448,-0.140,0.060,0.074,sad
4.94,0,0,0,0,848,0,1445,2786,1533,2215,2249,2601,2921,52,2077,3347,2.964,5.428,15.172,1.236,1.189,-0.832,1.441,-3.412,9.333,-0.207,0.038,0.053,sad
4.95,0,509,0,0,943,0,1819,3002,1863,2366,2242,2729,2341,49,1085,2589,0.345,3.139,9.373,0.652,1.106,-0.404,1.367,-3.879,9.309,-0.245,0.016,0.036,sad
4.96,0,1296,0,0,1221,0,2079,3146,2021,2425,2244,2799,2069,49,792,2095,1.037,2.744,9.606,0.546,1.009,-0.365,1.410,-3.699,9.313,-0.312,0.054,0.027,sad
4.97,14,1808,0,0,1622,0,2202,3233,2339,2509,2247,2816,1523,6,16,1848,-0.414,4.573,12.967,0.507,0.316,-0.130,1.427,-1.628,10.125,-0.102,0.102,0.217,sad
4.98,67,2096,0,0,1733,0,2269,3265,2537,2252,2249,2921,639,0,0,1291,0.898,3.673,9.816,0.166,0.219,-0.115,1.149,-3.541,9.299,-0.554,0.195,-0.099,sad
4.99,160,2302,61,0,1824,0,2399,3370,2635,2007,2262,3004,477,5,7,1258,1.360,3.206,9.467,0.104,0.013,-0.176,1.149,-3.828,9.290,-0.584,0.199,-0.125,sad
5.00,213,2480,324,0,2014,0,2445,3398,2743,1788,2249,3043,173,5,3,1173,1.420,3.160,9.364,0.079,0.058,-0.120,1.065,-4.379,9.366,-0.675,0.214,-0.140,sad
5.01,306,2592,624,0,2095,0,2533,3438,2803,1463,2285,3043,27,2,0,827,1.389,3.048,9.318,0.157,0.059,-0.022,1.480,-3.922,9.206,-0.866,0.247,-0.156,sad
5.02,406,2722,969,54,2192,0,2611,3473,2811,1517,2316,3012,0,2,0,688,1.223,3.098,9.467,0.196,0.079,-0.043,1.599,-4.056,9.237,-0.975,0.288,-0.153,sad
5.03,528,2839,1459,349,2197,0,2689,3515,2791,1195,2362,2923,0,0,0,509,1.250,3.213,9.361,0.230,-0.001,-0.080,1.791,-4.168,9.021,-1.268,0.363,-0.128,sad
5.04,608,2955,1821,563,2365,0,2761,3561,2588,923,2439,2749,19,0,0,318,1.312,3.297,9.409,0.218,-0.054,-0.057,1.549,-4.401,9.242,-1.612,0.656,-0.084,sad
5.05,747,3034,2143,827,2529,0,2825,3601,1613,2572,1609,2473,2557,1679,1590,3100,1.125,3.397,9.414,0.180,-0.070,-0.030,1.235,-4.353,9.373,-1.938,0.754,-0.014,sad
5.06,810,3120,2320,1041,2628,0,2903,3634,1516,2597,1033,2459,2551,1734,1623,3097,1.269,3.474,9.440,0.126,-0.032,-0.024,1.106,-4.750,10.503,-2.623,0.447,0.452,sad
5.07,869,3174,2445,1196,2752,0,2988,3671,1513,2642,0,2441,2539,1716,1614,3089,1.372,3.273,9.299,0.129,-0.005,-0.028,1.879,-7.611,11.885,-3.103,-0.010,1.050,sad
5.08,958,3229,2559,1360,2778,0,3049,3678,1511,2597,135,2450,2533,1806,1610,3119,1.235,3.481,9.364,0.105,-0.017,-0.029,2.533,-7.894,10.393,-3.131,0.095,1.394,sad
5.09,1062,3282,2655,1465,2864,0,3103,3693,1515,2595,25,2452,2537,1715,1617,3093,1.362,3.340,9.261,0.102,-0.010,-0.025,2.313,-7.796,7.937,-3.119,0.010,2.101,sad
5.10,1118,3318,2720,1506,2916,0,3141,3694,1517,2590,0,2453,2539,1711,1621,3099,1.523,3.460,9.409,0.092,-0.029,-0.018,1.504,-4.381,10.570,-1.300,0.254,2.690,sad
5.11,1185,3367,2771,1639,2986,0,3163,3710,1498,2613,0,2467,2536,1775,1663,3110,1.432,3.335,9.266,0.125,-0.027,-0.025,3.512,-4.324,9.761,-0.455,0.209,2.801,sad
5.12,1254,3407,2822,1751,3014,0,3177,3702,1577,2599,0,2519,2605,1749,1583,3135,1.678,3.496,9.225,0.103,-0.043,0.023,5.332,-1.578,11.193,1.185,-0.050,1.951,sad
5.13,1295,3453,2879,1822,3047,0,3182,3681,1587,2605,0,2533,2611,1711,1621,3179,1.458,3.493,9.297,0.074,0.013,-0.010,3.809,-1.164,7.894,1.653,-0.335,1.060,sad
5.14,1201,3273,2720,1736,2863,0,2961,3457,1589,2617,0,2541,2615,1721,1625,3172,1.537,3.371,9.225,0.044,0.026,-0.004,3.287,-1.884,8.191,1.760,-0.685,0.610,sad
5.15,1360,3504,2975,1968,3093,0,3154,3663,1591,2573,0,2503,2591,1693,1589,3109,1.362,3.644,9.371,0.044,0.013,0.000,1.499,-2.054,8.701,2.171,-0.997,0.044,sad
5.16,1385,3523,3022,2047,3104,0,3138,3645,1591,2569,0,2493,2587,1687,1595,3115,1.355,3.534,9.333,0.018,0.033,-0.005,0.515,-2.746,9.426,2.417,-1.248,-0.101,sad
5.17,1411,3537,3067,2110,3120,0,3135,3646,1592,2568,0,2495,2584,1678,1579,3113,1.350,3.496,9.407,0.003,0.033,0.003,0.524,-3.443,10.396,2.585,-1.292,-0.210,sad
5.18,1435,3563,3102,2163,3141,0,3145,3648,1595,2599,0,2536,2616,1720,1615,3147,1.403,3.390,9.316,0.024,0.023,-0.004,0.156,-3.539,9.720,2.681,-1.349,-0.528,sad
5.19,1466,3570,3129,2198,3161,0,3152,3643,1595,2629,0,2516,2617,1719,1626,3187,1.319,3.349,9.278,0.026,0.022,0.002,-0.153,-3.759,10.831,2.595,-1.276,-0.958,sad
5.20,1479,3583,3153,2231,3183,0,3151,3645,1592,2591,0,2523,2606,1709,1607,3143,1.336,3.347,9.330,0.045,0.006,-0.001,-0.721,-3.742,11.523,2.536,-1.327,-1.092,sad
5.21,1510,3613,3184,2253,3193,0,3156,3643,1589,2597,0,2521,2603,1703,1610,3143,1.468,3.405,9.292,0.058,0.000,-0.006,-1.358,-3.680,11.370,2.478,-1.126,-0.978,sad
5.22,1535,3616,3205,2285,3210,0,3151,3632,1577,2604,0,2535,2621,1759,1625,3153,1.360,3.357,9.304,0.071,-0.007,-0.002,-1.144,-3.340,9.586,1.805,-0.948,-0.634,sad
5.23,1588,3632,3230,2314,3219,0,3149,3607,1581,2617,0,2547,2645,1799,1645,3160,1.389,3.464,9.246,0.070,-0.027,-0.005,0.002,-4.386,10.362,1.331,-0.984,-0.597,sad
5.24,1633,3647,3257,2349,3234,0,3135,3579,1588,2589,0,2510,2599,1709,1599,3131,1.393,3.369,9.232,0.075,-0.018,-0.003,1.975,-7.822,12.292,0.661,-1.152,-0.991,sad
5.25,1647,3659,3284,2352,3249,0,3124,3559,0,0,0,0,11,0,0,0,1.381,3.405,9.297,0.082,-0.025,-0.006,1.475,-11.942,12.809,0.800,-1.361,-1.436,sad
5.26,1722,3678,3324,2381,3266,0,3108,3520,8,0,0,0,0,0,0,0,1.472,3.464,9.230,0.076,-0.023,-0.006,0.649,-12.943,11.914,1.050,-1.295,-1.638,sad
5.27,1738,3696,3357,2411,3277,0,3088,3479,0,0,0,0,0,0,0,0,1.425,3.457,9.215,0.076,-0.010,-0.001,-2.373,-12.167,6.187,1.282,-0.740,-2.005,sad
5.28,1779,3729,3399,2452,3283,0,3038,3415,0,0,115,0,0,0,20,0,1.537,3.464,9.287,0.070,-0.033,0.003,-4.314,-13.065,0.630,0.637,-0.207,-1.705,sad
5.29,1794,3750,3433,2450,3313,0,2977,3330,0,0,0,0,0,0,0,0,1.513,3.464,9.309,0.058,0.019,0.002,-4.743,-13.400,-0.134,0.170,-0.067,-1.338,sad
5.30,1827,3763,3467,2467,3305,0,2857,3202,0,0,0,0,0,0,0,0,1.520,3.357,9.254,0.032,0.051,-0.001,3.663,-5.193,6.402,-1.203,1.370,-0.383,sad
5.31,1808,3789,3509,2438,3293,0,2704,2928,0,0,0,0,0,0,0,0,1.516,3.390,9.251,0.037,0.078,-0.009,3.596,0.572,10.982,-0.506,0.060,-0.633,sad
5.32,1813,3811,3541,2503,3247,0,2454,2319,0,0,0,41,0,0,0,672,1.571,3.412,9.175,0.084,0.106,-0.021,-1.501,2.207,5.258,-1.313,0.005,-0.056,sad
5.33,1532,3794,3547,2506,3107,0,1936,1298,0,0,0,0,0,0,188,1755,1.556,3.287,9.172,0.147,0.123,-0.047,-2.461,-3.261,12.543,-1.437,-0.203,0.347,sad
5.34,1488,3831,3646,2640,2982,0,1233,85,1563,2621,0,2516,2615,1776,1635,3131,1.520,2.964,9.529,0.195,0.115,-0.062,1.209,-3.340,10.542,-1.564,-0.758,0.137,sad
5.35,1554,3856,3549,2720,2547,0,624,0,0,0,0,0,0,0,1065,2844,1.334,3.642,9.335,0.341,0.080,-0.050,17.801,-2.023,16.498,-1.318,-1.059,0.166,sad
5.36,1740,3866,3664,2768,1931,0,171,0,1561,2575,0,2469,2555,1713,1659,3099,1.087,3.419,9.455,0.432,0.056,-0.094,1.800,-3.263,8.758,-0.160,0.949,0.480,sad
5.37,1774,3875,3675,2770,1526,0,0,0,1551,2587,0,2463,2525,1715,1611,3097,1.360,3.622,9.225,0.695,0.036,0.048,2.674,-2.969,9.347,-0.009,0.537,0.301,sad
5.38,1872,3877,3675,2721,1303,0,0,0,1525,2603,2,2471,2568,1752,1637,3109,1.199,3.833,9.139,0.894,0.004,0.128,1.087,-3.227,10.300,-0.046,0.262,0.118,sad
5.39,1919,3863,3677,2647,978,0,0,0,1559,2617,7,2507,2607,1787,1643,3182,1.168,4.044,9.450,0.984,0.062,0.172,1.980,-3.036,9.469,-0.073,0.077,0.056,sad
5.40,2015,3856,3664,2537,842,0,0,0,1562,2585,5,2477,2580,1737,1611,3102,1.604,4.183,8.947,1.081,0.107,0.161,2.409,-3.074,9.210,0.034,0.311,0.121,sad
5.41,2038,3813,3636,2383,573,0,0,0,1559,2579,2,2471,2553,1693,1597,3107,1.755,4.080,8.662,1.229,0.223,0.192,2.251,-3.060,9.194,0.060,0.385,0.173,sad
5.42,2093,3663,3583,2259,374,0,0,0,1565,2580,0,2473,2557,1696,1599,3101,2.198,4.851,9.064,1.393,0.270,0.163,1.927,-2.784,9.287,-0.025,0.394,0.173,sad
5.43,2187,3008,3443,2127,0,0,0,0,1567,2583,0,2476,2569,1705,1595,3107,1.817,4.274,8.636,1.699,0.451,0.168,1.858,-2.859,9.354,-0.102,0.365,0.155,sad
5.44,2306,2658,3120,1919,0,0,0,0,1575,2566,2,2477,2570,1708,1607,3112,1.171,3.742,9.675,2.036,0.524,-0.012,1.810,-3.031,9.455,-0.116,0.399,0.157,sad
5.45,2027,2025,2481,1728,0,0,0,0,1607,2581,61,2503,2585,1685,1591,3128,1.144,4.944,9.993,2.746,0.084,-0.415,1.765,-3.091,9.414,-0.099,0.396,0.153,sad
5.46,1936,1410,1535,1429,0,0,0,0,1592,2623,40,2575,2667,1895,1690,3172,1.681,5.634,11.478,3.420,-0.166,-0.976,1.583,-3.359,9.606,-0.135,0.278,0.147,sad
5.47,1702,720,0,448,0,0,0,0,1619,2611,17,2543,2639,1763,1640,3155,2.411,7.472,9.419,3.673,0.442,-1.593,1.525,-3.369,9.622,-0.068,0.206,0.082,sad
5.48,908,187,0,0,0,0,0,0,1612,2565,28,2506,2591,1695,1596,3189,2.222,8.133,8.064,3.644,1.049,-2.169,1.642,-3.299,9.594,-0.038,0.141,0.031,sad
5.49,158,0,0,0,0,0,0,0,1619,2584,25,2515,2601,1705,1607,3133,1.896,8.167,11.040,2.167,1.646,-2.218,1.607,-3.381,9.641,0.022,0.140,0.028,sad
5.50,0,0,0,0,0,0,0,0,1619,2584,20,2515,2600,1727,1605,3131,6.249,2.591,12.342,-0.103,0.574,-1.865,1.566,-3.156,9.455,0.030,0.107,0.017,sad
5.51,0,0,0,0,0,0,0,0,1619,2571,23,2507,2603,1726,1597,2997,4.903,0.196,7.784,-0.787,0.059,-0.590,1.614,-3.060,9.340,-0.028,0.077,0.029,sad
5.52,0,0,0,0,0,0,0,0,1615,2573,17,2505,2589,1689,1593,3125,2.205,2.198,7.918,-1.099,-0.241,0.035,1.513,-3.093,9.400,-0.067,0.075,0.053,sad
5.53,0,0,0,0,0,0,0,0,1618,2578,25,2509,2591,1692,1595,3127,1.403,2.634,8.368,-1.649,-0.423,0.213,1.535,-3.132,9.371,-0.076,0.072,0.060,sad
5.54,0,0,0,0,0,0,0,0,1659,2569,724,2503,2587,1681,1589,3118,0.692,2.380,7.223,-1.955,-0.653,0.188,1.539,-2.990,9.261,-0.115,0.069,0.090,sad
5.55,0,0,0,0,0,0,0,0,1619,2600,1005,2514,2597,1693,1599,3131,1.087,3.742,8.037,-2.212,-0.850,0.147,1.381,-3.153,9.500,-0.198,0.110,0.174,sad
5.56,0,0,0,0,0,0,0,0,1619,2567,970,2488,2575,1687,1591,3115,0.862,4.310,8.406,-2.417,-0.892,0.137,1.700,-3.170,9.206,-0.217,0.137,0.205,sad
5.57,0,0,0,0,0,0,0,0,1621,2567,1202,2495,2601,1677,1581,3117,0.678,4.791,8.729,-2.482,-1.158,0.211,1.492,-3.450,9.390,-0.215,0.118,0.190,sad
5.58,0,0,0,0,0,0,0,0,1619,2555,1328,2493,2483,1673,1580,3083,1.250,5.267,9.007,-2.418,-1.225,0.507,1.451,-3.316,9.206,-0.236,0.191,0.227,sad
5.59,0,0,0,0,0,0,0,0,299,1289,1341,1277,2935,141,3773,4069,1.635,6.084,10.247,-2.384,-1.142,0.887,1.439,-3.529,9.376,-0.224,0.145,0.230,sad
5.60,0,0,0,0,0,0,0,0,472,1189,2019,1765,2940,41,3733,4095,0.548,6.515,11.703,-2.430,-0.847,1.176,1.484,-3.615,9.390,-0.116,0.259,0.155,sad
5.61,0,0,0,0,0,0,0,0,635,1179,2047,1981,2725,47,3654,4039,-0.314,6.457,11.147,-2.482,-0.706,1.150,1.415,-3.728,9.251,-0.053,0.181,0.100,sad
5.62,0,0,0,0,0,0,0,0,712,1109,2062,2083,2651,51,3615,4031,0.074,6.036,9.790,-2.378,-0.351,1.022,1.322,-3.634,9.306,-0.061,0.147,0.078,sad
5.63,0,0,0,0,0,0,0,0,821,1144,2044,2204,2360,16,3463,3945,-0.654,5.588,9.847,-1.937,-0.213,0.929,1.300,-3.642,9.378,-0.009,0.150,0.057,sad
5.64,0,0,0,0,0,0,0,0,775,1141,2055,2375,2023,47,3323,3859,-2.337,5.614,9.299,-1.344,-0.847,0.832,1.214,-3.591,9.366,0.007,0.096,0.033,sad
5.65,0,0,0,0,0,0,0,0,973,1157,2073,2420,1971,47,3308,3877,-0.536,7.171,9.697,-0.810,-1.221,0.685,1.132,-3.563,9.342,0.004,0.069,0.029,sad
5.66,0,0,0,0,0,0,0,0,1145,1172,2142,2540,2038,47,3292,3922,0.369,9.388,11.930,-0.844,-0.544,0.585,1.192,-3.531,9.201,0.004,-0.024,0.013,sad
5.67,0,0,0,0,0,0,0,0,1309,1300,2165,2621,2303,40,3285,3934,-1.690,9.986,10.020,-1.229,-0.499,0.635,1.307,-3.548,9.287,0.004,-0.105,-0.012,sad
5.68,0,0,0,0,0,0,0,0,1350,1268,2162,2374,2373,41,3067,3321,-2.040,9.294,5.409,-1.091,-0.424,0.614,1.073,-3.534,9.371,0.008,-0.104,-0.006,sad
5.69,0,0,0,0,0,0,0,0,1369,1635,2147,2653,2585,50,3187,3903,-2.964,11.399,1.453,-0.196,-0.189,0.483,1.207,-3.627,9.333,0.019,0.013,0.008,sad
5.70,0,0,0,0,0,0,0,0,1303,1749,2208,2745,2607,47,2877,3864,-4.003,11.947,-0.737,0.685,0.090,0.014,1.255,-3.606,9.273,0.093,0.065,-0.002,sad
5.71,0,0,0,0,0,0,0,0,1243,1785,2208,2707,2589,53,2751,3839,3.570,2.294,18.507,-0.094,0.419,-0.474,1.223,-3.496,9.131,0.083,0.063,-0.010,sad
5.72,0,0,0,0,0,0,265,297,1331,1965,2221,2853,2521,43,2445,3764,3.536,-2.871,1.417,0.503,-0.212,-0.608,1.238,-3.474,9.325,0.023,-0.020,-0.002,sad
5.73,0,0,0,0,0,0,727,1639,1708,2035,2229,2989,2485,44,2247,3604,5.923,4.173,11.399,1.499,0.128,-0.537,1.221,-3.400,9.376,-0.040,-0.056,-0.005,sad
5.74,0,0,0,0,256,0,1152,2358,1779,2067,2234,3004,2472,47,1955,3433,3.591,3.000,9.203,1.015,-0.148,-0.027,1.302,-3.476,9.440,-0.071,0.063,0.012,sad
5.75,0,0,0,0,688,0,1639,2785,1775,2092,2188,2969,1820,46,1207,2891,1.410,3.448,9.546,0.796,0.526,0.052,1.381,-3.596,9.306,-0.122,0.154,0.017,sad
5.76,0,402,0,0,897,0,2031,2985,2067,2135,2267,3108,1183,50,463,2023,-0.800,4.159,12.775,0.564,0.332,-0.097,0.747,-3.460,9.009,-0.224,0.083,0.005,sad
5.77,0,996,0,0,1535,0,2242,3062,2126,1977,2244,3163,1125,41,232,1876,3.517,3.479,9.234,0.252,0.400,-0.132,1.312,-3.328,9.404,-0.146,0.125,-0.000,sad
5.78,0,1225,0,0,1655,0,2307,3086,2285,1805,2244,3235,619,5,2,1625,2.064,2.899,9.795,0.168,0.456,-0.115,0.761,-0.005,10.403,-0.407,0.076,-0.007,sad
5.79,0,1438,0,0,1811,0,2429,3183,2419,1699,2249,3283,247,5,0,1199,2.119,2.871,9.292,0.093,0.371,-0.157,1.132,-3.867,9.208,-0.481,0.149,-0.145,sad
5.80,0,1584,0,0,1901,0,2501,3222,2535,1739,2167,3310,125,21,3,1119,2.260,3.062,9.615,0.062,0.302,-0.174,1.377,-3.874,9.567,-0.503,0.164,-0.153,sad
5.81,0,1703,0,0,2015,0,2599,3291,1631,2567,1550,2493,2589,1688,1583,3103,1.681,2.825,9.632,0.031,0.327,-0.099,1.144,-4.082,9.199,-0.594,0.213,-0.189,sad
5.82,0,1826,0,0,2158,0,2659,3315,1629,2565,1561,2494,2585,1677,1580,3115,2.009,2.667,9.199,0.058,0.362,-0.064,1.140,-4.159,9.203,-0.637,0.218,-0.176,sad
5.83,0,1863,0,0,2331,0,2729,3376,1625,2551,1563,2487,2575,1669,1574,3107,1.724,2.531,9.189,0.085,0.480,-0.104,1.223,-4.171,9.139,-0.640,0.221,-0.161,sad
5.84,0,2064,0,0,2357,0,2787,3440,1581,2581,1589,2463,2551,1689,1592,3091,1.776,2.804,9.340,0.121,0.538,-0.176,1.334,-4.180,9.112,-0.782,0.276,-0.180,sad
5.85,0,2235,0,0,2435,0,2851,3514,1575,2571,1405,2464,2552,1688,1565,3096,1.068,3.036,9.737,0.120,0.310,-0.153,2.277,-4.951,9.570,-0.896,0.472,-0.144,sad
5.86,0,2453,0,0,2559,0,2918,3583,1575,2572,1553,2467,2550,1691,1592,3095,1.434,2.911,9.601,0.088,0.147,-0.120,1.578,-4.681,9.122,-1.010,0.590,-0.109,sad
5.87,0,2639,315,0,2624,0,2969,3635,1565,2573,1279,2468,2555,1642,1591,3097,1.329,2.705,9.419,0.125,0.120,-0.098,1.188,-4.776,9.041,-1.131,0.806,0.141,sad
5.88,0,2735,751,0,2687,0,3024,3622,1559,2575,0,2401,2550,1689,1592,2979,1.310,2.794,9.527,0.178,0.105,-0.112,0.919,-4.872,9.457,-1.377,0.849,0.597,sad
5.89,75,2879,1281,49,2800,0,3095,3709,1573,2566,0,2475,2565,1679,1581,3100,1.015,2.983,9.591,0.239,0.064,-0.112,0.654,-5.181,9.175,-1.549,0.682,0.871,sad
5.90,154,2981,1555,331,2797,0,2953,3745,2643,41,0,1125,2,10,0,69,1.432,3.065,9.373,0.257,0.064,-0.110,0.869,-6.031,9.414,-1.809,0.590,1.454,sad
5.91,253,3087,1927,477,2867,0,3181,3731,2333,0,0,499,0,24,0,25,1.369,2.851,9.426,0.226,0.083,-0.115,1.358,-6.105,10.257,-1.926,0.501,2.033,sad
5.92,313,3071,2117,651,2839,0,3180,3733,1959,13,0,205,0,0,0,31,1.358,2.974,9.385,0.251,0.096,-0.138,0.180,-7.020,9.031,-2.044,0.452,2.063,sad
5.93,491,3163,2295,801,2865,0,3196,3743,1611,2549,0,2495,2587,1675,1479,3111,1.279,3.077,9.428,0.255,0.068,-0.130,-0.345,-6.601,8.873,-1.581,0.467,2.295,sad
5.94,581,3226,2429,1137,2863,0,3186,3746,1546,2575,0,2547,2605,1707,1592,3125,1.338,3.366,9.503,0.223,0.093,-0.124,0.797,-2.636,12.517,-0.263,0.146,2.359,sad
5.95,765,3251,2559,1424,2817,0,3177,3730,0,0,33,0,0,0,0,8,1.298,3.247,9.376,0.181,0.077,-0.083,1.669,-4.353,11.226,-0.004,-0.387,1.283,sad
5.96,813,3281,2503,1634,2768,0,2944,3711,0,0,0,0,0,0,0,23,1.269,3.395,9.443,0.146,0.033,-0.042,1.441,-0.989,8.897,0.451,-0.539,0.613,sad
5.97,964,3309,2717,1751,2815,0,3158,3728,0,0,0,0,0,0,0,18,1.192,3.378,9.426,0.131,0.027,-0.038,1.132,-1.245,8.868,0.643,-0.676,0.378,sad
5.98,1019,3319,2752,1857,2826,0,3152,3719,0,0,0,0,0,0,0,3,1.252,3.345,9.311,0.107,0.030,-0.029,0.769,-1.360,9.254,0.879,-0.706,0.218,sad
5.99,1073,3344,2790,1940,2832,0,3153,3712,0,0,0,0,0,5,0,3,1.190,3.383,9.409,0.091,0.032,-0.026,0.060,-1.494,9.364,1.096,-0.790,0.112,sad
6.00,1136,3359,2819,2004,2838,0,3152,3716,0,0,0,0,0,0,0,0,1.235,3.306,9.335,0.074,0.039,-0.020,-0.148,-1.765,9.388,1.292,-0.860,0.037,sad
6.01,1222,3383,2879,2110,2895,0,3154,3715,0,0,0,0,0,0,0,0,1.252,3.290,9.323,0.078,0.035,-0.020,-0.285,-2.184,9.859,1.626,-0.905,-0.178,sad
6.02,1280,3395,2928,2179,2913,0,3151,3707,0,0,0,0,0,0,5,0,1.223,3.321,9.366,0.076,0.038,-0.020,-0.520,-2.243,9.888,1.745,-0.934,-0.284,sad
6.03,1339,3409,2966,2227,2927,0,3152,3700,0,0,0,0,0,0,0,0,1.231,3.338,9.361,0.074,0.032,-0.018,-0.512,-2.672,10.671,1.965,-0.925,-0.411,sad
6.04,1424,3430,2994,2288,2918,0,3152,3696,0,0,0,0,0,0,0,0,1.250,3.316,9.426,0.090,0.048,-0.025,0.041,-3.065,11.121,2.194,-0.881,-0.604,sad
6.05,1468,3440,3018,2339,2854,0,3135,3691,0,1,0,0,0,0,0,0,1.233,3.390,9.345,0.086,0.067,-0.041,0.213,-3.148,11.013,2.260,-0.864,-0.711,sad
6.06,1595,3454,3034,2337,2858,0,3123,3691,1597,2551,46,2488,2583,1670,1493,3108,1.209,3.347,9.299,0.084,0.070,-0.041,0.476,-3.519,11.298,2.351,-0.776,-0.907,sad
6.07,1692,3453,3049,2393,2794,146,3105,3683,1595,2571,0,2506,2595,1691,1592,3119,1.235,3.361,9.306,0.075,0.040,-0.041,0.445,-2.993,9.340,2.197,-0.530,-1.059,sad
6.08,1758,3460,3067,2435,2797,233,3090,3683,1597,2583,0,2520,2607,1761,1599,3135,1.235,3.347,9.313,0.075,0.027,-0.031,0.388,-2.832,8.473,1.858,-0.463,-1.076,sad
6.09,1818,3469,3090,2481,2746,257,3071,3662,1566,2579,0,2483,2572,1689,1593,3110,1.209,3.373,9.385,0.079,0.042,-0.029,0.644,-3.393,9.105,0.886,-0.644,-1.097,sad
6.10,1895,3478,3110,2512,2765,481,3046,3635,1568,2581,0,2501,2578,1694,1595,3114,1.180,3.395,9.309,0.076,0.014,-0.029,1.001,-5.851,11.246,0.418,-0.966,-1.303,sad
6.11,1959,3489,3131,2556,2789,625,3031,3632,1573,2584,0,2489,2595,1711,1605,3117,1.128,3.349,9.330,0.081,0.005,-0.012,0.704,-6.989,11.870,0.270,-1.126,-1.322,sad
6.12,2026,3493,3155,2606,2807,791,3013,3619,1573,2591,0,2504,2595,1717,1524,3127,1.180,3.376,9.261,0.078,-0.011,-0.010,0.804,-10.429,14.229,0.803,-0.912,-1.224,sad
6.13,2070,3541,3107,2617,2849,809,2954,3536,1573,2587,0,2494,2585,1703,1577,3125,1.164,3.342,9.316,0.103,-0.066,0.003,-0.560,-10.372,9.601,1.355,-0.842,-1.220,sad
6.14,2139,3531,3232,2690,2937,1043,2963,3533,1573,2588,0,2501,2585,1675,1605,3123,1.226,3.373,9.273,0.120,-0.063,0.000,-1.628,-10.709,7.211,1.349,-0.782,-1.133,sad
6.15,2222,3536,3268,2721,2945,1093,2915,3461,1571,2585,0,2495,2585,1700,1597,3123,1.267,3.460,9.234,0.118,-0.048,-0.002,-3.158,-13.453,3.606,1.163,-0.965,-0.807,sad
6.16,2255,3575,3303,2763,2963,1139,2865,3398,9,0,0,0,21,0,0,0,1.326,3.455,9.266,0.111,-0.038,-0.009,-3.836,-12.912,-6.165,-0.475,-0.553,-0.618,sad
6.17,2256,3583,3341,2803,2943,1051,2747,3289,1578,2575,0,2507,2589,1705,1603,3119,1.324,3.373,9.261,0.110,-0.024,0.002,0.412,-2.286,-0.168,-0.761,0.918,0.045,sad
6.18,2287,3607,3380,2841,2934,699,2559,3087,41,0,0,0,0,0,0,601,1.420,3.457,9.263,0.108,0.015,0.020,0.453,4.788,12.960,-0.612,-0.797,-0.329,sad
6.19,2189,3643,3410,2859,2829,0,2236,2660,0,0,0,0,0,28,120,1703,1.470,3.433,9.378,0.094,0.056,0.026,-2.808,-6.653,14.643,-1.696,-1.241,-0.041,sad
6.20,2097,3677,3443,2803,2699,0,1605,1488,0,0,0,0,0,0,426,2326,1.405,3.469,9.280,0.126,0.083,0.024,-1.621,-2.401,12.246,-1.148,-1.101,-0.067,sad
6.21,2124,3699,3487,2726,2271,0,763,70,0,0,0,1,0,0,1051,2879,1.367,3.306,9.747,0.193,0.083,0.018,5.260,-3.910,8.815,-1.335,-1.095,-0.001,sad
6.22,2089,3730,3506,2736,1893,0,286,0,0,0,35,0,7,0,1838,3415,1.250,3.397,9.108,0.414,0.025,0.018,6.938,-3.043,6.141,-0.146,0.398,0.179,sad
6.23,2182,3739,3536,2761,1446,0,0,0,0,7,0,0,30,0,2043,3572,0.960,3.893,9.622,0.513,0.001,-0.009,5.607,-3.670,8.724,-0.121,0.919,0.488,sad
6.24,2241,3734,3547,2667,928,0,0,0,1275,2661,7,2555,2318,1975,1740,3155,1.250,3.584,9.213,0.732,-0.003,0.044,2.358,-3.007,9.479,-0.098,0.934,0.491,sad
6.25,2370,3719,3532,2597,807,0,0,0,1555,2631,2,2517,2613,1763,1678,3135,1.362,3.847,9.045,0.840,0.083,0.099,1.906,-3.017,9.752,-0.114,0.725,0.395,sad
6.26,2448,3682,3510,2512,562,0,0,0,1553,2654,0,2536,2633,1853,1691,3155,1.489,4.046,8.825,0.860,0.142,0.121,2.289,-3.196,9.538,-0.078,0.757,0.396,sad
6.27,2505,3568,3405,2385,695,0,0,0,1549,2635,0,2477,2565,1717,1623,3159,1.621,4.271,8.909,0.922,0.180,0.139,2.602,-2.969,9.120,-0.094,0.932,0.429,sad
6.28,2617,3324,3340,2288,293,0,0,0,1547,2661,7,2549,2634,1875,1701,3177,1.652,4.472,8.753,0.960,0.254,0.136,1.903,-2.974,9.273,-0.209,0.895,0.407,sad
6.29,2642,3082,3214,2210,19,0,0,0,1560,2649,2,2531,2611,1774,1671,3165,1.614,4.762,8.796,0.981,0.302,0.121,1.678,-3.170,9.546,-0.233,0.894,0.377,sad
6.30,2669,2864,3122,2145,0,0,0,0,1561,2631,28,2513,2599,1767,1663,3143,1.760,5.121,9.074,1.052,0.370,0.061,1.772,-3.529,9.771,-0.278,0.575,0.230,sad
6.31,2697,2603,2989,2032,0,0,0,0,1567,2633,15,2521,2599,1745,1647,3159,1.525,4.791,8.701,1.165,0.528,0.013,1.317,-3.517,9.586,-0.125,0.311,0.124,sad
6.32,2714,2258,2739,1790,0,0,0,0,1575,2621,20,2517,2599,1753,1629,3148,1.358,4.860,9.050,1.361,0.496,-0.138,1.290,-3.299,9.862,-0.099,0.231,0.092,sad
6.33,2666,1720,2320,1627,0,0,0,0,1612,2611,17,2541,2620,1735,1629,3161,1.104,5.006,8.179,1.733,0.300,-0.392,1.317,-3.194,9.500,-0.059,0.094,0.043,sad
6.34,2649,1334,1503,1522,0,0,0,0,1621,2613,53,2551,2638,1764,1639,3165,1.628,5.727,9.416,1.960,0.244,-0.773,1.451,-3.163,9.383,-0.059,0.061,0.062,sad
6.35,2425,1090,494,1143,0,0,0,0,1621,2583,688,2518,2619,1711,1611,3129,1.458,6.491,8.715,2.185,0.376,-1.160,1.508,-3.163,9.366,-0.065,0.077,0.072,sad
6.36,2193,642,0,353,0,0,0,0,1593,2567,880,2501,2638,1687,1589,3123,1.427,6.713,8.016,2.325,0.539,-1.555,1.458,-3.182,9.179,-0.200,0.163,0.187,sad
6.37,2000,227,0,60,0,0,0,0,1624,2588,1256,2526,2629,1751,1622,3134,1.154,7.319,7.755,2.357,0.784,-1.826,1.427,-3.304,9.117,-0.279,0.279,0.295,sad
6.38,1573,0,0,0,0,0,0,0,1623,2603,1343,2517,2616,1723,1608,3119,0.232,8.052,7.582,2.405,0.992,-1.993,1.144,-3.359,9.383,-0.319,0.328,0.307,sad
6.39,1037,0,0,0,0,0,0,0,1625,2615,1389,2552,2636,1755,1638,3165,0.081,8.396,7.305,2.032,1.333,-2.363,1.255,-3.622,9.388,-0.191,0.288,0.254,sad
6.40,225,0,0,0,0,0,0,0,339,1301,2009,2217,1637,51,3305,4095,-0.345,8.267,10.453,0.962,0.913,-2.312,1.106,-3.673,9.400,-0.099,0.181,0.141,sad
6.41,0,0,0,0,0,0,0,0,403,1278,2065,2325,1545,53,3188,4095,9.682,8.600,12.079,-0.203,0.254,-0.837,1.051,-3.740,9.278,-0.050,0.164,0.126,sad
6.42,0,0,0,0,0,0,0,0,499,1365,2080,2453,1480,49,3197,4091,4.985,3.481,7.463,-1.026,-0.453,0.413,1.003,-3.555,9.318,0.006,0.147,0.073,sad
6.43,0,0,0,0,0,0,0,0,487,1336,2075,2526,1445,43,3143,4095,2.306,2.749,7.824,-1.089,-0.475,0.784,1.094,-3.531,9.261,-0.014,0.122,0.067,sad
6.44,0,0,0,0,0,0,0,0,627,1373,2160,2631,1293,51,2989,4013,-0.139,3.012,9.330,-1.466,-0.902,1.032,0.977,-3.723,9.385,-0.002,0.114,0.060,sad
6.45,0,0,0,0,0,0,0,0,665,1379,2167,2697,1306,47,2898,4067,-0.895,2.658,8.442,-1.892,-1.049,0.920,0.984,-3.570,9.285,0.003,0.105,0.058,sad
6.46,0,0,0,0,0,0,0,0,985,1366,2180,2949,1301,47,2759,4053,-1.516,2.480,8.396,-1.919,-1.001,0.653,0.982,-3.594,9.318,0.005,0.093,0.052,sad
6.47,0,0,0,0,0,0,0,0,1067,1307,2201,3015,1245,51,2683,4041,-1.338,3.340,10.139,-2.107,-1.091,0.405,0.936,-3.519,9.086,-0.022,0.074,0.039,sad
6.48,0,0,0,0,0,0,0,0,1362,1373,2193,3125,1189,47,2459,4004,-1.535,3.330,9.608,-2.360,-1.194,0.284,0.965,-3.610,9.431,-0.021,0.091,0.047,sad
6.49,0,0,0,0,0,0,0,0,1765,1466,2188,3243,1147,51,1935,3959,-2.100,3.491,10.113,-2.359,-1.323,0.114,0.848,-3.579,9.301,-0.028,0.073,0.033,sad
6.50,0,0,0,0,0,0,0,0,2045,1499,2208,3333,1097,47,1595,3925,-1.870,3.910,10.714,-2.473,-1.298,-0.050,0.881,-3.689,9.392,-0.027,0.057,0.029,sad
6.51,0,0,0,0,0,0,0,0,2139,1547,2218,3365,989,55,1656,3883,-1.676,4.231,10.846,-2.447,-1.191,-0.136,0.965,-3.654,9.330,-0.035,0.064,0.029,sad
6.52,0,0,0,0,0,0,0,0,2360,1567,2224,3439,987,47,1307,3836,-1.338,4.039,9.740,-2.261,-0.859,-0.130,0.821,-3.685,9.282,-0.035,0.048,0.017,sad
6.53,0,0,0,0,0,0,0,0,2507,1481,2224,3455,928,47,1225,3767,-2.409,4.384,10.633,-1.978,-0.272,-0.368,0.881,-3.716,9.414,-0.031,0.032,0.012,sad
6.54,0,0,0,0,0,0,0,0,2551,1593,2224,3509,988,48,1086,3733,-4.104,4.822,9.969,-1.522,-0.740,-0.737,0.898,-3.745,9.838,-0.002,0.054,0.010,sad
6.55,0,0,0,0,0,0,0,0,2701,1608,2206,3544,889,50,1065,3627,-3.000,5.430,8.313,-0.717,-1.348,-1.041,0.860,-3.730,9.301,-0.048,0.029,0.008,sad
6.56,0,0,0,0,0,0,0,0,2841,1557,2218,3591,819,48,1069,3493,-1.393,7.728,9.270,-0.095,-2.015,-0.951,0.857,-3.711,9.316,-0.050,0.041,0.007,sad
6.57,0,0,0,0,0,0,0,0,2851,1557,2208,3589,746,1,1051,3423,-0.517,10.175,10.898,-0.119,-1.927,-0.608,0.840,-3.761,9.304,-0.049,0.043,0.006,sad
6.58,0,0,0,0,0,0,0,0,2920,1591,2206,3605,701,45,867,3319,-1.920,12.086,13.163,-1.067,-1.153,-0.272,0.773,-3.735,9.385,0.010,0.103,0.004,sad
6.59,0,0,0,0,0,0,0,0,2963,1619,2218,3496,739,45,711,3228,-2.342,10.013,7.281,-1.802,-0.266,-0.019,0.783,-3.728,9.373,-0.021,0.034,0.010,sad
6.60,0,0,0,0,0,0,0,0,3027,1640,2208,3637,777,48,664,3188,-1.264,9.275,2.981,-1.303,-0.105,0.407,0.721,-3.699,9.234,-0.033,-0.006,-0.001,sad
6.61,0,0,0,0,0,0,0,0,3119,1815,2218,3641,887,47,509,3021,-0.800,9.572,2.808,-0.718,-0.046,0.931,0.845,-3.780,9.402,-0.015,0.024,0.015,sad
6.62,0,0,0,0,0,0,0,0,3149,1917,2218,3656,799,48,374,2889,-0.950,3.826,2.950,0.334,0.996,0.608,0.915,-3.682,9.311,-0.027,0.050,0.012,sad
6.63,0,0,0,0,0,0,0,0,3181,1804,2218,3643,727,44,286,2809,1.092,1.044,19.051,-0.092,0.800,0.386,0.864,-3.694,9.316,-0.031,0.020,0.001,sad
6.64,0,0,0,0,0,0,10,623,3231,1815,2224,3639,755,41,225,2627,-1.472,-2.978,10.314,0.346,-0.036,0.301,0.977,-3.658,9.029,-0.049,-0.047,-0.021,sad
6.65,0,0,0,0,0,0,253,1959,3197,2007,2221,3635,1019,45,221,2401,0.397,1.602,7.439,1.302,0.464,-0.706,0.733,-3.757,9.361,-0.023,-0.109,-0.025,sad
6.66,0,0,0,0,237,0,784,2485,3245,1933,2229,3609,831,0,5,1750,2.854,4.298,10.101,0.957,-0.182,-0.048,1.211,-3.764,9.515,-0.211,0.095,-0.017,sad
6.67,0,0,0,0,811,0,1164,2821,3245,1933,2229,3609,831,0,5,1750,-0.218,5.353,12.661,0.770,0.253,-0.099,1.211,-3.764,9.515,-0.211,0.095,-0.017,sad
6.68,0,638,0,0,869,0,1455,2941,3211,1693,2249,3531,565,5,3,1439,1.010,3.675,11.310,0.476,0.572,-0.179,1.039,-3.069,9.155,-0.361,0.232,-0.106,sad
6.69,0,1282,0,0,1296,0,1706,3002,3130,1503,2106,3607,111,4,2,1179,-0.098,3.649,12.064,0.418,0.129,-0.036,0.572,-3.979,8.799,-0.514,0.039,-0.207,sad
6.70,0,1751,0,0,1565,0,1846,3049,3181,1613,2234,3620,53,3,2,980,1.681,3.108,9.586,0.210,0.135,0.038,0.871,-3.828,9.658,-0.517,0.117,-0.216,sad
6.71,0,1879,25,0,1650,0,1978,3103,3238,1517,2244,3595,0,0,0,759,1.259,2.926,9.467,0.149,0.027,-0.049,1.233,-4.247,9.292,-0.625,0.274,-0.266,sad
6.72,0,2059,128,0,1831,0,2097,3162,1494,2643,1655,2459,2556,1838,1699,3112,1.415,2.914,9.488,0.087,-0.052,-0.128,1.369,-4.310,9.187,-0.690,0.344,-0.273,sad
6.73,0,2206,317,0,1984,0,2255,3230,1563,2599,1568,2451,2536,1711,1625,3099,1.312,2.847,9.519,0.075,-0.016,-0.043,0.778,-4.254,8.880,-0.682,0.365,-0.229,sad
6.74,0,2369,562,0,2107,0,2386,3317,1561,2600,1574,2451,2531,1721,1637,3097,1.530,2.727,9.282,0.131,0.011,-0.051,0.488,-4.513,8.720,-0.716,0.361,-0.196,sad
6.75,0,2524,1067,215,2193,0,2529,3391,1555,2599,1594,2455,2538,1735,1631,3097,1.492,2.732,9.290,0.249,0.001,-0.103,0.651,-4.439,8.954,-0.876,0.384,-0.172,sad
6.76,0,2730,1671,405,2381,0,2622,3455,1575,2590,1568,2455,2541,1768,1629,3095,1.283,3.024,9.481,0.227,0.063,-0.106,0.962,-4.695,9.105,-0.980,0.485,-0.203,sad
6.77,3,2896,2055,838,2503,0,2691,3515,1637,2587,1471,2461,2535,1703,1613,3093,1.346,3.385,9.685,0.179,0.032,-0.097,0.883,-5.456,9.127,-1.197,0.753,-0.061,sad
6.78,39,2989,2303,1131,2610,0,2768,3553,1561,2587,1205,2455,2539,1705,1609,3094,1.197,3.273,9.656,0.123,0.007,-0.042,0.654,-5.260,8.495,-1.431,0.862,0.140,sad
6.79,71,3058,2441,1274,2690,0,2831,3583,1561,2588,0,2463,2568,1718,1612,3107,1.341,3.220,9.555,0.100,0.002,-0.013,-0.089,-5.796,8.827,-1.613,0.655,0.575,sad
6.80,112,3136,2525,1374,2753,0,2873,3606,1550,2601,0,2473,2547,1711,1615,3131,1.288,3.213,9.598,0.036,-0.028,0.018,0.211,-5.918,8.260,-1.695,0.413,0.808,sad
6.81,123,3171,2559,1334,2829,0,2925,3631,1547,2604,2,2485,2583,1738,1627,3118,1.252,2.974,9.306,-0.007,-0.058,0.030,0.328,-6.302,8.894,-1.895,0.468,1.096,sad
6.82,171,3174,2595,1324,2863,0,2974,3583,1546,2599,0,2477,2557,1707,1618,3113,1.492,3.156,9.335,0.080,-0.069,0.007,0.462,-6.926,8.674,-2.023,0.969,1.212,sad
6.83,233,3256,2639,1375,2951,0,3021,3646,1545,2597,0,2477,2567,1715,1614,3113,1.472,3.211,9.416,0.052,-0.033,-0.000,0.627,-7.491,9.196,-2.029,1.228,1.272,sad
6.84,224,3241,2633,1347,2960,0,3021,3655,1553,2635,0,2483,2571,1717,1617,3131,1.384,3.105,9.443,0.013,-0.006,0.008,-0.211,-7.432,8.174,-1.940,1.724,1.192,sad
6.85,230,3311,2709,1231,3065,0,3118,3659,1553,2607,0,2507,2600,1751,1635,3129,1.504,3.041,9.340,0.024,0.009,0.010,-0.958,-8.250,6.821,-1.356,2.007,1.423,sad
6.86,206,3330,2678,1254,3134,0,3121,3664,1568,2591,97,2495,2587,1706,1607,3124,1.460,3.007,9.342,0.050,0.005,-0.009,-2.849,-9.644,8.131,-0.938,1.941,1.284,sad
6.87,224,3360,2770,1296,3179,0,3183,3664,1577,2591,0,2507,2653,1705,1610,3131,1.439,3.043,9.321,0.064,0.016,-0.013,4.729,-7.029,11.439,0.314,0.983,0.313,sad
6.88,190,3371,2803,1370,3218,0,3203,3648,1529,2605,0,2483,2568,1719,1625,3117,1.475,3.026,9.390,0.068,0.004,-0.014,2.193,-3.048,6.610,0.653,0.439,-0.869,sad
6.89,252,3391,2835,1447,3250,0,3216,3650,1606,2631,0,2511,2611,1785,1652,3134,1.504,3.036,9.313,0.095,0.006,-0.031,0.077,-3.589,8.128,0.776,0.303,-0.890,sad
6.90,307,3408,2867,1494,3286,0,3234,3644,1525,2573,0,2479,2556,1714,1612,3077,1.446,3.158,9.419,0.105,0.011,-0.033,-0.620,-3.931,9.730,1.378,0.070,-0.668,sad
6.91,272,3431,2887,1520,3312,0,3202,3630,1608,2591,0,2517,2566,1707,1608,3141,1.489,3.175,9.505,0.085,-0.033,-0.011,-0.110,-3.855,7.807,1.758,-0.071,-0.511,sad
6.92,306,3440,2915,1508,3343,0,3248,3606,1557,2617,0,2507,2585,1715,1619,3033,1.487,3.089,9.404,0.092,0.001,-0.004,0.697,-4.276,7.264,1.802,-0.062,-0.658,sad
6.93,385,3457,2949,1411,3387,0,3265,3423,1590,2581,0,2508,2569,1723,1675,3115,1.441,3.191,9.373,0.079,-0.050,-0.009,0.429,-4.958,7.614,1.795,-0.013,-1.086,sad
6.94,400,3487,2960,1562,3398,0,3255,3531,1591,2569,0,2495,2579,1681,1581,3116,1.535,3.117,9.364,0.059,-0.002,0.001,-0.189,-5.241,8.724,1.899,-0.122,-1.337,sad
6.95,435,3504,2986,1565,3412,0,3263,3550,1577,2565,0,2493,2573,1678,1559,3113,1.563,3.112,9.290,0.055,0.009,-0.009,0.321,-5.284,9.021,1.953,-0.056,-1.392,sad
6.96,432,3529,2995,1559,3429,0,3274,3542,1586,2567,0,2501,2587,1684,1580,3115,1.602,3.074,9.335,0.080,0.033,-0.035,1.487,-5.488,8.928,1.967,0.091,-1.727,sad
6.97,357,3330,2896,1406,3246,0,3103,3328,1658,2555,0,2491,2582,1661,1573,3111,1.465,3.112,9.357,0.103,0.030,-0.043,1.839,-5.550,9.321,1.897,0.077,-2.311,sad
6.98,455,3557,3025,1573,3437,0,3269,3536,1635,2549,0,2487,2591,1669,1515,3109,1.437,3.153,9.412,0.109,0.018,-0.038,1.508,-5.394,9.215,1.838,0.061,-2.566,sad
6.99,532,3583,3047,1675,3466,0,3271,3527,1592,2553,0,2488,2581,1670,1572,3104,1.530,3.105,9.256,0.131,0.019,-0.052,0.874,-5.394,10.192,1.705,0.000,-2.828,sad
7.00,646,3583,3083,1733,3472,0,3262,3498,1593,2551,0,2482,2581,1671,1567,3109,1.496,3.235,9.385,0.148,0.007,-0.065,0.498,-5.109,10.238,1.731,0.114,-2.840,sad
7.01,738,3583,3111,1920,3485,0,3249,3475,1593,2552,0,2488,2579,1671,1571,3107,1.458,3.203,9.301,0.176,-0.004,-0.078,0.611,-4.884,9.819,1.656,0.132,-2.785,sad
7.02,848,3607,3145,2007,3488,0,3241,3453,1592,2552,0,2486,2579,1670,1571,3104,1.422,3.251,9.304,0.175,0.017,-0.090,1.568,-5.107,10.242,1.334,-0.118,-2.793,sad
7.03,973,3631,3174,2091,3487,0,3223,3431,1530,2583,0,2460,2547,1702,1605,3097,1.441,3.328,9.340,0.167,0.003,-0.080,3.266,-5.763,8.978,1.191,0.159,-2.986,sad
7.04,1093,3632,3208,2209,3489,0,3186,3389,1544,2584,0,2460,2550,1701,1597,3092,1.537,3.371,9.347,0.153,0.007,-0.057,3.247,-6.515,8.792,1.005,0.446,-3.058,sad
7.05,1220,3653,3243,2307,3489,0,3183,3347,1545,2605,0,2462,2551,1692,1597,3095,1.456,3.383,9.342,0.117,-0.006,-0.047,4.187,-9.728,10.116,0.816,0.586,-3.314,sad
7.06,1314,3676,3264,2373,3498,0,3156,3297,1523,2591,0,2457,2540,1711,1611,3095,1.511,3.402,9.304,0.119,-0.016,-0.042,3.733,-10.903,6.586,0.560,0.543,-3.655,sad
7.07,1392,3681,3297,2427,3499,0,3121,3216,1481,2551,0,2445,2483,1726,1607,3089,1.511,3.431,9.354,0.124,-0.017,-0.044,3.093,-11.001,5.483,0.192,0.252,-3.676,sad
7.08,1472,3708,3312,2475,3502,16,3107,3136,1522,2585,0,2454,2541,1627,1607,3092,1.487,3.445,9.230,0.130,0.011,-0.058,3.488,-11.123,3.761,-0.508,-0.151,-3.688,sad
7.09,1587,3715,3327,2483,3504,401,3051,3043,1505,2605,0,2467,2521,1715,1628,3068,1.535,3.512,9.306,0.131,0.002,-0.064,2.828,-10.783,3.764,-1.163,-0.190,-3.347,sad
7.10,1678,3730,3344,2496,3517,590,3024,2958,1531,2587,0,2455,2483,1689,1596,3097,1.523,3.433,9.304,0.131,-0.006,-0.059,3.232,-10.683,5.016,-1.266,-0.073,-3.080,sad
7.11,1789,3735,3363,2507,3522,687,2960,2802,1519,2602,0,2429,2521,1707,1621,3096,1.508,3.455,9.254,0.150,-0.027,-0.055,3.505,-8.358,4.128,-1.266,-0.004,-2.668,sad
7.12,1889,3754,3386,2512,3535,647,2863,2646,1509,2595,0,2441,2531,1712,1613,3090,1.618,3.508,9.158,0.170,-0.051,-0.052,9.780,-5.660,3.421,-2.345,0.104,-2.184,sad
7.13,1935,3775,3383,2519,3524,411,2751,2450,1503,2588,0,2452,2538,1710,1617,3107,1.654,3.393,9.234,0.199,-0.066,-0.062,-12.565,-9.199,19.613,-0.045,3.412,-0.335,sad
7.14,2000,3787,3406,2544,3502,0,2506,2135,1533,2566,0,2478,2569,1685,1579,3101,1.762,3.491,9.218,0.249,-0.071,-0.045,0.414,-2.947,9.335,-0.341,0.895,0.788,sad
7.15,2074,3803,3344,2547,3444,0,2096,1557,1575,2571,0,2479,2572,1685,1587,3091,1.528,3.409,9.440,0.298,-0.087,-0.037,4.183,-3.843,8.339,-0.217,0.539,0.511,sad
7.16,2142,3824,3387,2458,3351,0,1790,215,1574,2571,0,2479,2555,1681,1583,3109,1.542,3.596,9.143,0.358,-0.089,-0.044,3.455,-3.979,8.246,-0.206,0.381,0.323,sad
7.17,2208,3833,3405,2331,3226,0,1183,0,1573,2553,0,2483,2573,1671,1573,3097,1.554,3.723,9.064,0.412,-0.100,-0.044,1.537,-3.309,9.270,-0.099,0.231,0.132,sad
7.18,2252,3846,3418,2209,2981,0,671,0,1515,2578,0,2459,2547,1699,1597,3096,1.353,4.276,9.143,0.453,-0.099,-0.121,1.566,-2.825,9.275,-0.162,0.032,0.102,sad
7.19,2292,3847,3414,2030,2610,0,272,0,1508,2605,15,2471,2541,1739,1630,3115,1.925,3.625,8.921,0.439,-0.163,-0.223,1.216,-2.899,9.270,-0.332,-0.168,0.087,sad
7.20,2236,3857,3399,1807,1930,0,208,0,1528,2612,28,2480,2571,1745,1640,3119,2.133,3.852,8.679,0.614,-0.119,-0.069,0.342,-2.272,9.833,-0.396,-0.117,0.166,sad
7.21,2288,3854,3381,1709,1779,0,0,0,1449,2619,25,2437,2477,1763,1655,3061,1.719,4.290,8.906,0.585,-0.031,-0.079,2.804,-3.608,8.399,-0.264,0.146,0.325,sad
7.22,2254,3839,3369,1575,1773,0,0,0,1541,2588,53,2451,2533,1701,1607,3095,2.014,4.274,8.727,0.553,0.066,-0.106,1.372,-4.008,9.661,-0.180,0.183,0.282,sad
7.23,2325,3821,3344,1581,1473,0,0,0,1589,2549,58,2475,2557,1677,1580,3096,1.920,4.357,8.854,0.551,0.195,-0.105,0.974,-3.673,9.536,-0.126,0.044,0.089,sad
7.24,2313,3771,3317,1502,1328,0,0,0,1509,2621,76,2491,2589,1803,1663,3131,1.817,4.542,8.866,0.562,0.258,-0.087,1.214,-3.606,9.373,-0.103,-0.090,0.063,sad
7.25,2326,3696,3257,1471,1072,0,0,0,1530,2623,74,2509,2605,1817,1673,3129,1.362,4.456,8.468,0.636,0.258,-0.106,1.537,-3.788,9.206,-0.099,-0.100,0.052,sad
7.26,2305,3536,3152,1415,737,0,0,0,1542,2619,63,2379,2555,1733,1637,3125,1.089,4.650,8.720,0.552,0.087,-0.426,1.403,-3.606,9.182,0.034,0.000,0.000,sad
7.27,2256,3216,2975,1271,690,0,0,0,1547,2628,522,2450,2539,1707,1613,3096,1.477,4.592,8.655,0.442,-0.203,-0.918,1.391,-3.663,9.301,0.065,-0.003,-0.065,sad
7.28,2300,2961,2707,998,567,0,0,0,1553,2587,552,2455,2539,1706,1609,3093,2.184,5.171,8.468,0.376,-0.596,-1.393,1.422,-3.388,9.254,0.012,-0.027,-0.050,sad
7.29,2368,2602,2390,947,432,0,0,0,1555,2600,0,2463,2548,1711,1617,3108,1.990,5.550,8.313,0.196,-0.932,-1.937,1.630,-3.567,9.203,-0.018,0.043,0.013,sad
7.30,2415,2120,2047,778,208,0,0,0,1554,2617,801,2483,2557,1738,1639,3119,2.545,5.854,8.310,-0.019,-1.277,-2.555,1.444,-3.479,9.309,0.020,0.033,0.008,sad
7.31,2435,1562,1415,398,0,0,0,0,1541,2621,1087,2495,2548,1747,1650,3117,2.217,5.851,8.076,-0.215,-1.478,-3.050,1.441,-3.400,9.182,-0.033,0.022,0.028,sad
7.32,2432,1123,647,176,0,0,0,0,1546,2607,1241,2430,2543,1727,1629,3108,2.054,5.681,8.040,-0.471,-1.670,-3.451,1.484,-3.567,9.263,-0.060,0.086,0.048,sad
7.33,2362,919,10,1,0,0,0,0,1546,2595,1292,2451,2535,1715,1619,3093,1.803,5.488,7.901,-0.687,-1.738,-3.659,1.607,-3.551,9.251,-0.081,0.158,0.077,sad
7.34,2256,535,0,0,0,0,0,0,1547,2557,1343,2451,2535,1711,1619,3093,1.571,4.973,8.334,-0.874,-1.584,-3.622,1.633,-3.752,9.115,-0.069,0.181,0.069,sad
7.35,2080,201,0,0,0,0,0,0,1555,2595,1295,2470,2554,1755,1623,3100,0.443,4.786,8.564,-0.981,-1.526,-3.485,1.065,-3.778,9.189,0.054,0.167,-0.015,sad
7.36,1776,213,0,0,0,0,0,0,1595,2577,1297,2491,2575,1735,1595,3117,0.259,4.417,8.756,-1.064,-1.614,-3.254,1.147,-3.670,9.278,-0.026,0.203,0.021,sad
7.37,1347,153,0,0,0,0,0,0,1607,2573,1325,2493,2583,1687,1591,3119,0.369,4.389,9.297,-1.013,-1.534,-3.077,1.178,-3.725,9.309,-0.000,0.216,0.024,sad
7.38,534,16,0,0,0,0,0,0,1609,2579,1343,2503,2587,1739,1595,3125,-0.637,4.360,8.954,-1.029,-1.372,-3.031,1.190,-3.663,9.256,0.035,0.243,0.015,sad
7.39,144,0,0,0,0,0,0,0,1609,2575,1343,2453,2585,1685,1591,3123,-1.159,6.208,10.116,-1.061,-1.471,-3.183,1.228,-3.536,9.318,0.033,0.300,0.037,sad
7.40,0,0,0,0,0,0,0,0,1609,2623,1330,2503,2588,1691,1593,3164,-2.239,6.634,8.660,-1.000,-1.970,-2.955,1.161,-3.639,9.285,0.013,0.276,0.043,sad
7.41,0,0,0,0,0,0,0,0,1257,1031,2037,2267,1305,53,2888,4066,-3.055,7.032,9.258,-1.051,-1.908,-3.109,1.077,-3.570,9.325,-0.011,0.192,0.041,sad
7.42,0,0,0,0,0,0,0,0,1531,1060,2075,2423,1170,46,2809,4095,-3.189,6.050,7.997,-0.892,-1.579,-3.447,1.154,-3.625,9.297,0.001,0.186,0.051,sad
7.43,0,0,0,0,0,0,0,0,1661,919,2085,2511,1052,51,2798,4095,-1.978,5.686,8.116,-0.631,-1.355,-3.443,1.137,-3.594,9.335,-0.001,0.177,0.045,sad
7.44,0,0,0,0,0,0,0,0,1656,981,2070,2647,947,29,2697,4095,-1.894,5.303,8.835,-0.410,-1.067,-3.369,0.994,-3.397,9.773,-0.002,0.126,0.034,sad
7.45,0,0,0,0,0,0,0,0,1737,866,2083,2760,779,47,2615,4095,-0.687,3.910,8.892,-0.260,-0.763,-3.457,1.070,-3.646,9.357,-0.009,0.140,0.035,sad
7.46,0,0,0,0,0,0,0,0,1718,859,2080,2781,789,71,2584,3989,1.346,2.751,10.154,-0.317,-0.795,-3.380,0.960,-3.630,9.290,-0.005,0.133,0.030,sad
7.47,0,0,0,0,0,0,0,0,1843,851,2157,2815,679,55,2551,4095,2.624,1.283,9.898,-0.424,-0.798,-3.008,0.883,-3.675,9.263,-0.002,0.079,0.015,sad
7.48,0,0,0,0,0,0,0,0,1943,845,2078,2841,563,47,2452,4095,1.551,0.555,9.596,-0.520,-0.736,-2.724,0.991,-3.716,9.278,0.003,0.070,0.000,sad
7.49,0,0,0,0,0,0,0,0,1929,795,2075,2847,584,47,2513,4095,0.625,0.134,9.177,-0.523,-0.845,-2.667,0.936,-3.656,9.311,0.000,0.073,-0.002,sad
7.50,0,0,0,0,0,0,0,0,1890,1001,2085,2778,600,47,2527,4095,0.122,1.334,9.321,-0.568,-0.581,-2.864,0.936,-3.687,9.347,-0.004,0.065,-0.008,sad
7.51,0,0,0,0,0,0,0,0,1705,749,2075,2758,575,47,2575,4095,-0.467,3.043,9.898,-0.570,-0.175,-3.194,0.955,-3.721,9.337,0.003,0.067,-0.006,sad
7.52,0,0,0,0,0,0,0,0,1543,713,2080,2707,547,47,2485,4095,-0.390,4.800,9.953,-0.623,-0.205,-3.497,0.879,-3.560,9.354,-0.008,0.085,-0.003,sad
7.53,0,0,0,0,0,0,0,0,1576,724,2078,2719,439,52,2381,4095,-0.766,7.855,7.276,-0.333,-0.448,-3.437,0.874,-3.733,9.234,0.062,0.094,0.004,sad
7.54,0,0,0,0,0,0,0,0,1575,672,2057,2759,279,45,2247,4095,4.922,7.535,3.347,0.318,-1.027,-2.641,0.692,-3.510,9.369,-0.035,0.086,0.008,sad
7.55,0,0,0,0,0,0,0,0,1625,585,2034,2795,220,43,2280,4095,4.853,7.755,2.914,0.841,-1.126,-2.060,0.785,-3.534,9.369,-0.037,0.083,0.009,sad
7.56,0,0,0,0,0,0,0,0,1647,594,2019,2735,143,36,2201,4095,4.647,7.051,3.366,1.215,-1.268,-1.512,0.852,-3.634,9.407,-0.027,0.089,0.015,sad
7.57,0,27,0,0,0,0,0,0,1663,523,2029,2815,136,31,2194,4095,19.613,17.605,19.613,0.540,-1.519,0.123,0.761,-3.610,9.388,-0.019,0.081,0.016,sad
7.58,0,193,0,0,0,0,0,0,1643,537,2037,2793,73,21,2159,4039,-1.693,4.396,16.345,-0.057,0.568,-0.140,0.778,-3.618,9.383,-0.019,0.094,0.025,sad
7.59,17,865,0,0,464,0,0,1151,1578,504,1881,2674,29,13,1903,3789,5.399,3.668,8.952,0.649,-0.182,-0.218,0.850,-3.654,9.414,-0.028,0.102,0.027,sad
7.60,352,1471,0,0,710,0,34,1681,1683,491,1914,2793,1,5,1979,4028,-0.927,4.324,11.001,0.510,-0.116,-0.233,0.737,-3.503,9.349,-0.043,0.129,0.029,sad
7.61,783,1796,573,341,845,0,222,1968,1710,408,1855,2809,4,1,1611,4019,1.307,4.027,9.694,0.398,0.090,-0.075,0.730,-3.658,9.483,-0.046,0.118,0.052,sad
7.62,1213,2007,1155,610,1059,0,418,2176,1709,343,1860,2793,3,3,1401,4019,0.737,3.373,9.352,0.228,-0.046,-0.030,0.747,-3.723,9.469,-0.022,0.151,0.074,sad
7.63,1618,2218,1488,895,862,0,473,2346,1427,276,1748,2732,0,5,1193,3980,0.860,3.491,9.177,0.150,-0.076,-0.018,0.692,-3.668,9.191,-0.020,0.167,0.078,sad
7.64,1904,2352,1815,1251,1129,0,588,2515,1170,250,1727,2678,3,0,1161,3951,1.300,3.558,9.187,0.141,-0.042,0.011,0.716,-3.761,9.378,-0.019,0.170,0.080,sad
7.65,2082,2459,2063,1603,1104,0,624,2642,1269,298,1712,2685,0,5,1173,3955,0.850,3.582,9.304,0.097,-0.014,0.050,0.670,-3.809,9.409,-0.011,0.182,0.093,sad
7.66,2245,2635,2230,1808,1117,0,834,2791,1351,223,1604,2697,3,0,973,3892,1.044,3.642,9.282,0.100,0.042,0.055,0.584,-3.790,9.402,0.003,0.200,0.100,sad
7.67,2364,2734,2386,1953,1419,0,1119,2896,1401,191,1415,2634,3,0,799,3881,0.948,3.515,9.115,0.079,-0.021,0.058,0.560,-3.759,9.445,0.036,0.250,0.132,sad
7.68,2466,2815,2506,2102,1616,0,1355,2977,1403,137,1353,2608,3,5,735,3853,1.111,3.508,9.249,0.065,-0.043,0.033,0.548,-3.749,9.361,0.062,0.283,0.149,sad
7.69,2559,2896,2605,2192,1735,0,1501,3038,1416,1,1266,2591,0,0,630,3758,1.128,3.575,9.201,0.082,-0.039,0.023,0.577,-3.725,9.469,0.047,0.299,0.150,sad
7.70,2635,2950,2693,2286,1809,0,1680,3106,1285,0,0,2605,0,0,474,3635,0.977,3.603,9.148,0.067,-0.061,0.036,0.065,-3.630,9.304,0.045,0.321,0.153,sad
7.71,2698,3003,2779,2337,1984,0,1841,3145,1295,0,0,2599,0,0,295,3486,1.137,3.610,9.210,0.055,-0.100,0.055,0.481,-3.754,9.629,0.070,0.373,0.159,sad
7.72,2739,3068,2867,2384,2129,0,2064,3198,1373,0,20,2591,0,5,0,3043,1.113,3.606,9.194,0.047,-0.140,0.072,0.460,-3.642,9.282,0.108,0.387,0.161,sad
7.73,2768,3150,2929,2397,2336,0,2257,3190,1366,0,0,2583,0,0,0,2281,1.065,3.608,9.206,0.039,-0.199,0.083,-0.283,-4.393,8.365,2.152,0.702,0.052,sad
7.74,2768,3262,3011,2439,2502,0,2437,3294,1033,0,0,2430,0,0,0,1949,1.374,3.546,9.424,0.042,-0.172,0.047,0.984,-4.137,10.769,0.190,0.700,0.152,sad
7.75,2771,3341,3092,2449,2735,0,2550,3345,173,0,0,2348,0,0,0,1683,1.434,3.548,9.299,0.038,-0.090,0.030,0.752,-3.177,10.168,0.343,1.170,0.155,sad
7.76,2785,3397,3163,2501,2819,0,2635,3371,0,0,0,1835,0,0,0,1590,1.346,3.582,9.333,0.052,-0.024,0.006,-0.433,-4.290,7.755,0.410,1.474,0.129,sad
7.77,2813,3442,3215,2517,2928,51,2688,3390,0,0,0,1261,0,0,0,1547,1.377,3.543,9.280,0.070,0.001,-0.003,0.029,-3.929,9.469,0.210,1.373,0.164,sad
7.78,2832,3478,3251,2547,2992,99,2721,3392,0,0,0,581,0,0,0,1467,1.302,3.587,9.237,0.076,-0.006,-0.004,3.972,-5.363,11.150,1.170,2.220,-0.167,sad
7.79,2842,3513,3283,2582,3063,69,2750,3391,0,0,0,174,0,0,0,1227,1.221,3.563,9.249,0.076,-0.055,-0.009,0.232,-4.503,10.173,1.810,2.853,-0.930,sad
7.80,2837,3542,3301,2582,3138,66,2767,3377,1523,2602,0,2483,2595,1657,1637,3111,1.401,3.584,9.189,0.087,-0.083,0.002,2.519,-3.361,7.630,1.282,2.962,-1.792,sad
7.81,2800,3563,3311,2559,3200,42,2775,3361,1591,2551,0,2527,2579,1670,1571,3102,1.398,3.570,9.246,0.093,-0.097,0.007,7.728,-10.427,12.325,1.193,1.900,-4.366,sad
7.82,2757,3597,3315,2533,3263,0,2786,3333,1449,2595,0,2419,2505,1747,1640,3079,1.358,3.565,9.187,0.102,-0.144,0.011,-5.684,-5.643,6.639,1.159,1.752,-4.366,sad
7.83,2641,3627,3312,2482,3339,0,2794,3255,0,0,66,0,55,0,0,1036,1.511,3.563,9.194,0.110,-0.159,0.022,-4.707,-4.468,5.672,0.686,1.508,-4.366,sad
7.84,2412,3663,3331,2433,3390,0,2816,3235,0,0,0,0,0,0,0,827,1.465,3.776,9.225,0.095,-0.140,0.039,-6.053,-3.876,8.145,0.265,1.301,-4.267,sad
7.85,1936,3694,3354,2333,3454,0,2826,3184,0,0,0,0,0,0,0,794,1.209,3.723,9.397,0.050,-0.163,0.052,-4.420,-2.114,9.366,0.137,0.869,-2.871,sad
7.86,1535,3707,3376,2160,3523,0,2857,3123,0,0,0,0,0,0,0,735,1.867,3.680,9.254,0.088,-0.151,0.045,-4.104,-1.618,9.694,0.185,0.767,-2.258,sad
7.87,1410,3727,3394,1968,3577,0,2903,3026,0,0,0,0,1,0,0,687,1.489,3.749,9.297,0.134,-0.144,0.030,-0.754,-2.083,10.386,0.430,0.740,-1.508,sad
7.88,1329,3734,3392,1727,3642,0,2940,2827,0,0,17,0,0,0,0,637,1.724,3.598,9.112,0.137,-0.162,0.027,1.958,-2.105,9.050,0.476,0.531,-1.494,sad
7.89,1328,3744,3395,1488,3668,0,2960,2626,0,0,0,0,21,0,0,587,1.860,3.637,9.000,0.139,-0.105,0.008,2.854,-2.806,9.807,0.529,0.408,-1.737,sad
7.90,1428,3755,3402,1307,3696,0,2961,2489,0,0,0,0,0,0,0,541,1.954,3.685,8.990,0.132,-0.030,-0.018,2.198,-2.950,10.070,0.548,0.106,-2.418,sad
7.91,1459,3761,3408,1322,3760,0,2950,2348,0,0,15,0,0,0,0,411,1.762,3.651,8.997,0.114,-0.003,-0.026,0.347,-2.875,9.991,0.550,-0.072,-2.669,sad
7.92,1489,3738,3376,1331,3689,0,2885,2221,36,0,0,0,0,0,0,413,2.040,3.673,8.866,0.097,0.029,-0.033,-0.254,-2.911,10.532,0.608,-0.117,-2.616,sad
7.93,1577,3792,3427,1470,3741,0,2891,2166,0,0,0,0,0,0,0,438,1.817,3.773,9.110,0.120,0.012,-0.041,-1.049,-2.552,10.187,0.705,-0.272,-2.250,sad
7.94,1630,3790,3359,1507,3753,0,2831,2011,0,0,0,0,0,0,0,316,1.707,3.867,9.050,0.124,0.012,-0.024,-0.522,-2.641,9.783,0.704,-0.492,-1.769,sad
7.95,1680,3821,3440,1600,3751,0,2809,2096,0,0,0,0,0,0,0,299,1.743,3.886,9.091,0.112,-0.001,-0.037,0.077,-2.873,10.403,0.721,-0.588,-1.609,sad
7.96,1728,3819,3455,1633,3739,0,2779,2061,0,0,76,0,12,0,0,229,1.800,3.725,8.985,0.107,-0.007,-0.031,0.850,-2.784,10.070,0.722,-0.796,-1.504,sad
7.97,1735,3839,3463,1650,3749,0,2737,2062,0,0,0,0,0,0,0,175,1.836,3.845,9.024,0.115,0.045,-0.037,1.331,-3.165,10.891,0.791,-0.977,-1.652,sad
7.98,1738,3803,3429,1715,3676,0,2661,1979,0,0,0,0,0,0,0,185,1.870,3.910,8.950,0.104,0.029,-0.037,1.219,-2.990,10.606,0.834,-0.982,-1.770,sad
7.99,1856,3856,3479,1806,3765,0,2659,2010,0,0,0,0,0,0,0,169,1.736,3.919,9.115,0.085,0.009,-0.025,0.742,-2.435,8.631,0.653,-0.886,-1.962,sad
8.00,1898,3874,3494,1851,3769,0,2631,2047,9,0,0,0,0,0,0,103,1.788,3.869,9.108,0.080,0.000,-0.018,1.233,-2.732,7.348,0.092,-0.641,-2.068,sad
8.01,1927,3731,3504,1707,3650,0,2594,1909,0,0,0,0,0,0,0,103,1.815,3.891,8.997,0.077,0.008,-0.031,1.341,-3.493,8.174,-0.229,-0.549,-2.140,sad
8.02,1993,3882,3513,1885,3767,0,2545,2025,0,0,0,0,0,0,0,45,1.776,3.915,9.009,0.080,0.015,-0.031,1.528,-6.352,11.736,-0.292,-0.332,-2.338,sad
8.03,2023,3878,3519,1887,3774,0,2545,2032,0,44,0,17,0,0,0,5,1.800,3.886,8.882,0.075,0.035,-0.026,-0.644,-6.934,10.618,-0.102,-0.419,-2.427,sad
8.04,2065,3889,3534,1927,3767,0,2530,1998,0,0,0,0,0,0,0,47,1.808,3.922,8.933,0.068,0.075,-0.032,-1.848,-7.070,9.871,-0.100,-0.548,-2.318,sad
8.05,2102,3894,3536,1946,3766,0,2503,1968,0,0,0,0,0,10,0,42,1.726,3.919,9.055,0.078,0.045,-0.038,-1.190,-8.727,8.392,-0.112,-0.126,-2.028,sad
8.06,2132,3907,3547,1971,3776,0,2479,1841,17,0,0,0,0,0,0,24,1.745,3.910,9.124,0.098,0.009,-0.028,-3.603,-9.941,7.578,-0.104,-0.125,-1.821,sad
8.07,2173,3908,3558,1963,3782,0,2401,1654,0,0,0,0,0,0,0,31,1.820,3.934,8.978,0.104,0.014,-0.041,-3.634,-10.879,7.664,-0.015,-0.111,-1.601,sad
8.08,2214,3925,3568,1975,3776,0,2369,1279,0,0,0,0,0,0,0,47,1.839,3.960,8.964,0.125,-0.002,-0.043,-3.874,-10.477,5.045,0.036,0.264,-1.225,sad
8.09,2281,3906,3583,1978,3698,0,2296,335,0,0,0,0,0,0,0,0,1.906,3.922,8.995,0.152,0.021,-0.050,-0.532,-4.108,3.977,-0.952,0.709,-0.846,sad
8.10,2338,3940,3600,2062,3734,0,2127,0,0,0,0,0,0,0,0,0,1.774,4.001,9.045,0.184,0.014,-0.055,2.787,-4.812,14.234,-0.406,0.688,-1.027,sad
8.11,2373,3940,3616,2094,3707,0,2022,0,0,0,94,0,0,0,5,185,1.745,3.974,8.938,0.212,-0.009,-0.056,2.093,-0.702,13.429,-0.022,0.535,-0.996,sad
8.12,2445,3954,3581,2112,3625,0,1707,0,0,0,0,0,0,0,169,1157,1.707,4.180,9.002,0.282,-0.025,-0.087,-7.740,2.983,6.390,-1.610,0.257,0.707,sad
8.13,2533,3965,3651,2101,3399,0,1101,0,0,0,0,0,0,0,445,1682,1.745,4.111,8.894,0.272,-0.020,-0.146,0.682,-19.613,19.613,0.165,2.769,1.622,sad
8.14,2473,3938,3650,2007,2611,0,401,0,0,0,53,0,0,0,807,1883,1.958,3.768,8.933,0.388,-0.028,-0.108,-2.600,-5.938,12.589,-0.381,-0.286,-0.090,sad
8.15,2670,3977,3662,1872,2352,0,230,0,0,0,0,1,109,0,1275,2699,1.985,3.785,8.801,0.582,-0.043,-0.041,2.021,-3.349,8.085,-0.232,0.121,0.080,sad
8.16,2731,3983,3658,1748,2094,0,64,0,1645,2571,0,2470,2556,1686,1592,3100,1.623,4.499,8.880,0.670,-0.025,0.023,1.195,-3.725,10.343,-0.251,0.425,0.311,sad
8.17,2785,3981,3650,1631,1898,0,0,0,46,7,0,118,93,0,1195,2952,1.499,4.561,8.617,0.709,-0.010,0.057,1.063,-3.175,9.615,-0.326,0.432,0.301,sad
8.18,2833,3978,3627,1476,1664,0,0,0,1545,2619,33,2518,2619,1816,1653,3136,1.652,4.697,8.701,0.698,0.014,0.043,0.491,-3.218,9.831,-0.356,0.368,0.320,sad
