timestamp,L1,L2,L3,L4,L5,L6,L7,L8,R1,R2,R3,R4,R5,R6,R7,R8,acc_x_left,acc_y_left,acc_z_left,gyro_x_left,gyro_y_left,gyro_z_left,acc_x_right,acc_y_right,acc_z_right,gyro_x_right,gyro_y_right,gyro_z_right,mood
0.00,1904,3555,2933,1535,3549,0,3085,3360,1578,2565,0,2463,2556,1676,1579,3113,1.446,3.668,9.227,-0.030,0.061,0.025,0.785,-4.676,9.239,-0.318,-0.137,0.035,sad
0.01,1821,3543,2930,1620,3543,0,3105,3440,1575,2519,0,2477,2607,1676,1579,3099,1.358,3.457,9.282,-0.076,0.062,0.047,1.195,-4.621,9.462,-0.576,-0.092,-0.013,sad
0.02,1739,3541,2928,1555,3551,0,3147,3461,1571,2557,0,2471,2556,1685,1559,3092,1.441,3.484,9.270,-0.070,0.054,0.045,1.772,-5.148,10.068,-0.775,-0.036,0.027,sad
0.03,1680,3543,2927,1528,3568,0,3180,3488,1565,2591,0,2473,2557,1681,1604,3095,1.362,3.433,9.268,-0.044,0.054,0.032,2.076,-5.933,9.855,-0.932,0.215,0.137,sad
0.04,1666,3552,2891,1415,3575,0,3212,3511,1563,2568,0,2471,2589,1683,1581,2975,1.396,3.361,9.318,-0.008,0.043,0.009,1.867,-5.657,10.034,-0.753,0.914,0.316,sad
0.05,1657,3546,2875,1414,3582,0,3229,3515,1563,2569,0,2471,2558,1683,1581,3097,1.535,3.235,9.256,0.052,0.027,-0.010,0.864,-3.457,11.487,-0.321,1.141,0.495,sad
0.06,1685,3554,2896,1523,3581,0,3233,3513,41,0,0,0,0,0,0,0,1.437,3.294,9.285,0.093,0.013,-0.030,4.118,3.359,12.246,0.351,0.663,0.452,sad
0.07,1718,3557,2899,1601,3574,0,3219,3513,47,0,0,0,0,0,0,0,1.480,3.409,9.210,0.098,0.012,-0.033,5.195,4.144,14.894,0.843,0.426,-0.004,sad
0.08,1748,3574,2944,1650,3583,0,3227,3504,1589,2585,0,2515,2616,1741,1611,3117,1.420,3.462,9.340,0.116,0.004,-0.044,3.934,5.116,13.329,1.742,-0.244,-0.551,sad
0.09,1792,3577,2971,1716,3582,0,3226,3475,1583,2579,0,2523,2581,1678,1581,3124,1.405,3.395,9.218,0.119,-0.005,-0.056,3.381,3.778,12.981,2.084,-0.415,-0.653,sad
0.10,1831,3600,2995,1798,3583,0,3215,3467,1582,2552,0,2483,2567,1671,1623,3101,1.501,3.519,9.225,0.134,-0.014,-0.061,1.379,-0.658,12.368,2.563,-0.556,-0.603,sad
0.11,1856,3613,3038,1924,3599,0,3210,3469,1579,2555,0,2479,2571,1672,1573,3103,1.367,3.467,9.232,0.135,-0.022,-0.070,0.235,-4.729,10.793,2.638,-0.838,-0.311,sad
0.12,1867,3630,3090,2005,3600,0,3212,3448,1579,2554,0,2477,2571,1674,1572,3099,1.288,3.555,9.287,0.138,-0.032,-0.065,0.227,-6.036,9.919,2.537,-0.868,-0.129,sad
0.13,1823,3658,3134,2057,3613,0,3211,3435,1578,2551,0,2479,2575,1673,1575,3102,1.437,3.606,9.194,0.134,-0.026,-0.056,1.573,-7.714,8.681,2.141,-0.802,0.049,sad
0.14,1750,3663,3162,2157,3612,0,3207,3427,14,0,2,0,0,0,0,0,1.547,3.800,9.249,0.153,0.005,-0.065,0.953,-9.282,8.068,1.556,-1.229,-0.218,sad
0.15,1711,3662,3195,2185,3613,0,3198,3381,1579,2555,0,2509,2573,1675,1574,3100,1.441,3.512,9.096,0.139,-0.037,-0.057,-0.271,-10.257,6.970,1.324,-1.381,-0.386,sad
0.16,1723,3651,3217,2233,3614,210,3175,3318,1578,2556,0,2481,2571,1673,1505,3103,1.504,3.587,9.254,0.147,-0.026,-0.056,-0.529,-12.998,3.333,0.917,-0.997,-0.580,sad
0.17,1790,3658,3248,2299,3623,683,3142,3254,1579,2555,0,2479,2579,1673,1575,3101,1.542,3.546,8.897,0.179,-0.001,-0.079,-2.686,-13.628,-1.556,0.065,-0.170,-0.655,sad
0.18,1875,3651,3266,2288,3618,877,3071,3136,1559,2570,0,2470,2553,1686,1567,3119,1.542,3.658,9.115,0.179,-0.024,-0.077,2.382,-1.968,1.128,-1.199,1.352,-0.484,sad
0.19,1936,3609,3155,2320,3605,645,2833,2942,0,0,56,0,0,0,0,0,1.733,3.689,9.100,0.191,-0.032,-0.071,3.871,4.168,11.511,-0.442,0.239,-0.842,sad
0.20,1984,3613,3253,2352,3572,0,2448,2544,1555,2495,0,2139,2637,2187,2263,423,1.719,3.682,9.141,0.217,-0.021,-0.052,-7.005,-2.325,11.928,-2.103,0.015,0.522,sad
0.21,2054,3635,3280,2348,3501,0,1808,1701,0,0,0,0,0,0,470,1891,1.597,3.850,9.206,0.256,-0.055,-0.044,-3.816,-5.188,14.380,-2.010,-0.357,0.567,sad
0.22,2036,3520,3216,2242,3298,0,1242,0,0,0,23,0,0,0,843,2941,1.542,4.132,9.031,0.322,-0.043,-0.030,3.021,-3.697,16.745,-0.702,2.064,1.576,sad
0.23,2075,3488,3340,2092,2920,0,713,0,1587,2555,0,2483,2620,1675,1575,3111,1.154,3.749,8.942,0.451,-0.064,-0.060,3.395,-6.433,12.704,-0.278,1.474,0.710,sad
0.24,2097,3683,3331,2087,2316,0,222,0,1591,2555,10,2476,2570,1669,1513,3101,2.342,3.215,8.420,0.544,-0.155,-0.166,1.401,-3.378,10.080,-0.202,1.499,0.607,sad
0.25,1975,3691,3287,1849,1497,0,134,0,1573,2557,10,2471,2569,1682,1580,3098,1.966,4.077,8.686,0.695,-0.099,-0.099,1.444,-3.919,10.077,-0.203,0.595,0.230,sad
0.26,1959,3648,3216,1622,1191,0,48,0,1587,2551,40,2478,2568,1672,1575,3098,1.944,4.341,8.727,0.728,0.086,-0.069,1.250,-3.697,9.637,-0.134,0.163,0.032,sad
0.27,2013,3527,3139,1425,742,0,0,0,1589,2549,0,2479,2571,1675,1573,3098,2.025,4.125,9.067,0.811,0.255,-0.037,1.535,-3.462,9.376,-0.074,0.174,0.054,sad
0.28,1981,3261,2983,1130,528,0,0,0,169,566,53,426,1142,3,2705,3755,0.543,4.482,8.882,1.147,0.319,-0.025,1.623,-3.328,9.404,-0.064,0.237,0.164,sad
0.29,1974,2874,2674,627,414,0,0,0,86,777,58,619,1559,3,2805,3790,2.162,4.951,9.337,1.203,-0.013,-0.458,0.984,-3.383,9.756,-0.223,0.084,0.186,sad
0.30,1919,2291,1781,381,71,0,0,0,104,815,53,710,1695,0,2824,3723,3.960,6.574,10.618,1.420,-0.052,-0.972,1.604,-3.596,9.333,-0.218,-0.023,0.141,sad
0.31,1726,1095,22,0,0,0,0,0,237,1021,1092,989,2063,59,3031,3816,2.883,5.698,9.615,1.564,-0.178,-1.626,1.429,-3.663,9.510,-0.076,0.003,0.100,sad
0.32,1655,685,0,0,0,0,0,0,262,1063,1778,1191,2291,46,3164,3896,4.331,6.275,9.608,1.612,0.169,-2.381,1.427,-3.603,9.309,-0.036,-0.016,0.075,sad
0.33,1203,112,0,0,0,0,0,0,211,1011,1701,1080,2181,46,2936,3455,2.806,7.302,9.548,1.506,0.779,-2.969,1.341,-3.529,9.287,-0.035,0.012,0.073,sad
0.34,371,0,0,0,0,0,0,0,1613,2547,1269,2484,2567,1671,1574,3103,3.699,6.656,9.804,0.980,1.443,-3.464,1.310,-3.551,9.390,-0.068,0.091,0.079,sad
0.35,0,0,0,0,0,0,0,0,1629,2547,1399,2485,2572,1662,1574,3163,11.059,7.211,10.374,0.711,1.229,-1.583,1.427,-3.558,9.323,-0.090,0.062,0.075,sad
0.36,0,0,0,0,0,0,0,0,1612,2540,1333,2483,2535,1663,1572,3100,8.760,1.676,6.239,0.422,0.303,0.391,1.410,-3.601,9.335,-0.057,0.049,0.047,sad
0.37,0,0,0,0,0,0,0,0,1613,2547,1338,2484,2572,1669,1575,3051,5.394,2.473,8.205,0.557,-0.110,1.693,1.369,-3.634,9.483,-0.037,0.013,0.032,sad
0.38,0,0,0,0,0,0,0,0,536,1439,1955,1991,2713,39,3319,3961,2.263,2.387,9.783,0.094,-0.135,2.255,1.369,-3.646,9.359,-0.039,-0.086,0.018,sad
0.39,0,0,0,0,0,0,0,0,581,1407,2003,1994,2893,53,3416,3877,-0.287,1.580,9.397,-0.115,-0.066,2.164,1.367,-3.637,9.278,-0.013,-0.088,-0.004,sad
0.40,0,0,0,0,0,0,0,0,586,1548,1891,1800,2719,87,3039,3387,-0.828,1.781,10.321,-0.501,-0.209,1.901,1.377,-3.644,9.254,0.029,-0.073,-0.015,sad
0.41,0,0,0,0,0,0,0,0,699,1824,2011,1947,2937,53,3213,3610,-0.529,2.523,10.827,-1.016,-0.233,1.529,1.456,-3.668,9.436,0.079,-0.018,-0.018,sad
0.42,0,0,0,0,0,0,0,0,709,1898,2057,2037,2997,52,3263,3819,0.273,3.019,10.728,-1.480,-0.079,1.221,1.367,-3.493,9.105,0.076,-0.030,-0.003,sad
0.43,0,0,0,0,0,0,0,0,825,2023,2183,2328,3247,51,3453,3893,1.640,3.445,10.582,-1.862,-0.054,1.144,1.484,-3.548,9.287,0.054,-0.013,0.012,sad
0.44,0,0,0,0,0,0,0,0,869,2091,2190,2328,3303,51,3405,3819,2.504,3.836,10.295,-2.067,-0.043,1.419,1.520,-3.565,9.270,0.040,0.005,0.027,sad
0.45,0,0,0,0,0,0,0,0,954,2086,2201,2477,3324,47,3355,3896,2.981,4.413,10.573,-2.042,0.062,1.839,1.441,-3.596,9.364,0.038,0.021,0.036,sad
0.46,0,0,0,0,0,0,0,0,1002,2101,2203,2461,3337,47,3272,3747,3.117,4.853,10.520,-2.046,0.147,2.087,1.472,-3.457,9.215,0.011,0.035,0.048,sad
0.47,0,0,0,0,0,0,0,0,1193,2137,2198,2591,3357,51,3065,3629,2.389,4.468,8.483,-1.895,0.596,2.283,1.458,-3.484,9.258,-0.010,0.029,0.057,sad
0.48,0,0,0,0,0,0,0,0,1352,2235,2183,2696,3380,59,2807,3529,1.030,4.106,8.289,-1.371,0.810,2.123,1.432,-3.570,9.419,-0.028,-0.008,0.053,sad
0.49,0,0,0,0,0,0,0,0,1481,2327,2206,2745,3379,61,2765,3476,2.042,5.468,9.919,-0.827,0.560,1.994,1.451,-3.610,9.309,-0.029,-0.001,0.049,sad
0.50,0,0,0,0,0,0,0,0,1643,2395,2213,2812,3383,47,2703,3391,2.437,7.190,10.218,-0.481,0.307,2.063,1.511,-3.579,9.270,-0.013,0.023,0.041,sad
0.51,0,0,0,0,0,0,0,0,1847,2505,2221,2869,3389,47,2635,3287,1.982,9.354,11.133,-0.218,0.155,2.021,1.520,-3.529,9.258,-0.024,0.027,0.014,sad
0.52,0,0,0,0,0,0,0,0,2065,2525,2226,2940,3429,49,2539,3155,1.420,11.272,13.214,-0.739,0.043,1.781,1.468,-3.524,9.263,-0.036,0.027,0.009,sad
0.53,0,0,0,0,0,0,0,0,2471,2607,2218,3036,3385,47,2346,2991,-0.972,12.416,12.859,-1.655,-0.442,1.672,1.427,-3.673,9.249,-0.111,0.002,0.015,sad
0.54,0,0,0,0,0,0,0,0,2825,2739,2229,3087,3359,55,2093,2830,-1.310,9.699,4.980,-1.994,-0.535,1.193,1.463,-3.759,9.165,-0.116,0.043,0.030,sad
0.55,0,0,0,0,0,0,0,0,2943,2773,2231,3160,3339,47,1865,2725,-1.417,8.147,0.800,-1.056,-0.151,0.438,1.398,-3.486,9.275,-0.091,0.096,0.038,sad
0.56,0,0,0,0,0,0,0,0,3134,2835,2229,3218,3157,47,1320,2426,0.840,10.501,4.499,-0.474,-0.260,0.045,1.549,-3.677,9.309,-0.120,0.091,0.045,sad
0.57,0,0,0,0,0,0,0,0,3301,2877,2239,3277,2828,108,918,2059,3.299,8.598,2.904,-0.338,0.120,0.216,1.403,-3.711,9.218,-0.117,0.125,0.053,sad
0.58,0,0,0,0,0,0,0,0,3363,2889,2234,3343,2727,47,605,2044,3.371,6.802,2.456,0.525,0.285,0.662,1.381,-3.871,9.273,-0.124,0.125,0.051,sad
0.59,0,0,0,0,0,0,0,0,3416,2888,2239,3327,2715,13,394,1971,2.452,0.261,3.843,1.036,-0.324,0.607,1.468,-3.745,9.340,-0.013,0.149,0.089,sad
0.60,0,0,0,0,0,0,0,0,3449,2866,2239,3438,2639,24,72,1623,6.215,3.445,12.644,0.865,0.123,0.745,1.477,-3.620,9.218,0.003,0.146,0.108,sad
0.61,0,0,0,0,0,0,0,0,3501,2831,2239,3483,2375,31,156,1459,3.395,0.280,12.354,0.836,0.042,0.937,1.413,-3.613,9.359,-0.028,0.102,0.096,sad
0.62,0,0,0,0,0,0,15,64,3540,2725,2239,3512,2135,10,92,1421,1.590,-0.184,6.438,1.015,0.220,0.734,1.372,-3.661,9.321,-0.171,0.088,0.045,sad
0.63,0,0,0,0,176,0,269,1792,3667,2636,2206,3565,1917,19,4,1187,-2.844,1.092,10.740,1.357,0.051,-0.159,1.192,-3.725,9.215,-0.319,0.102,-0.045,sad
0.64,0,0,0,0,549,0,691,2579,3625,2488,2239,3608,1452,11,43,1055,2.488,5.988,11.123,1.108,0.034,-0.446,1.307,-3.824,9.268,-0.377,0.112,-0.068,sad
0.65,0,0,0,0,766,0,1477,2846,3753,2351,2244,3614,1183,6,3,947,4.015,4.685,13.791,0.436,1.576,-0.915,1.358,-3.814,9.321,-0.414,0.119,-0.080,sad
0.66,0,232,0,0,764,0,1674,2733,3769,2300,2234,3626,615,5,5,796,3.005,2.413,8.823,0.078,1.910,-0.634,1.281,-4.063,9.227,-0.638,0.199,-0.086,sad
0.67,0,678,0,0,1158,0,1925,2963,3817,2199,2249,3621,295,5,3,659,-0.220,2.128,10.408,0.274,1.069,-0.171,1.496,-4.180,9.100,-0.893,0.199,-0.104,sad
0.68,0,1106,0,0,1329,0,2006,2973,3819,2095,2275,3637,210,18,8,631,1.161,2.564,9.845,0.494,0.683,-0.111,1.358,-3.984,8.938,-1.016,0.266,-0.114,sad
0.69,0,1587,0,0,1777,0,2147,3008,3849,1949,2357,3630,97,5,3,435,0.824,2.456,9.471,0.669,0.621,-0.310,1.760,-4.484,9.086,-1.099,0.309,-0.116,sad
0.70,0,2104,0,0,1968,0,2288,3052,3411,1511,2203,3126,5,1,1,249,0.790,3.491,10.214,0.861,0.105,-0.403,1.202,-5.030,8.964,-1.092,0.320,-0.110,sad
0.71,0,2559,85,48,2215,0,2412,3091,1645,2551,1635,2485,2577,1663,1572,3101,1.073,3.467,10.240,0.621,-0.100,-0.247,1.592,-4.975,9.009,-1.150,0.389,-0.102,sad
0.72,233,2832,976,379,2470,0,2511,3182,1609,2567,1604,2483,2577,1659,1595,3103,0.974,3.598,9.471,0.386,0.025,-0.150,1.444,-5.313,9.093,-1.355,0.191,0.017,sad
0.73,400,2887,1666,464,2688,0,2672,3135,1597,2551,1210,2483,2571,1661,1567,3100,1.338,3.335,9.361,0.315,-0.082,-0.089,1.556,-5.411,8.938,-1.645,-0.041,0.428,sad
0.74,507,3041,1971,624,2826,0,2785,3354,1597,2551,5,2505,2571,1661,1567,3103,1.381,3.517,9.464,0.194,-0.121,-0.087,0.931,-5.813,8.777,-1.856,-0.186,0.662,sad
0.75,647,3100,2151,764,2913,0,2889,3423,3415,237,2,1321,0,0,0,0,1.484,3.369,9.210,0.128,-0.104,-0.014,1.973,-6.711,9.048,-2.365,-0.351,1.275,sad
0.76,723,3037,2256,770,2999,0,2965,3310,2936,0,0,483,0,0,0,0,1.190,3.302,9.270,0.127,-0.059,-0.035,1.310,-7.321,10.063,-2.797,-0.196,2.013,sad
0.77,927,3213,2372,1008,3053,0,3045,3506,1571,2568,0,2476,2569,1685,1581,3099,1.427,3.067,9.139,0.212,-0.031,-0.126,1.595,-7.336,9.785,-2.808,-0.169,2.389,sad
0.78,1074,3250,2512,1238,3071,0,3051,3514,1554,2587,0,2464,2552,1687,1587,3096,1.439,3.505,9.280,0.221,-0.071,-0.112,-0.347,-8.045,8.107,-2.351,-0.354,2.971,sad
0.79,1252,3319,2647,1453,3067,0,3047,3440,1563,2569,92,2471,2557,1683,1583,3101,1.410,3.747,9.385,0.220,-0.030,-0.060,-0.069,-6.323,8.102,-0.949,-0.565,3.358,sad
0.80,1405,3344,2729,1868,2999,0,3011,3543,1583,2551,0,2525,2578,1663,1571,3103,1.334,3.515,9.103,0.136,0.076,-0.070,-3.282,-2.344,10.913,0.227,-0.580,3.615,sad
0.81,1559,3360,2801,2100,2886,0,2958,3537,1591,2555,0,2485,2585,1669,1611,3103,1.288,3.601,9.275,0.041,0.106,-0.028,-0.285,-0.491,10.867,1.321,-1.477,3.290,sad
0.82,1712,3198,2881,2173,2658,0,2909,3321,1583,2550,0,2504,2572,1670,1571,3101,1.271,3.572,9.337,0.048,0.072,0.002,1.599,-1.379,8.157,2.046,-1.458,2.546,sad
0.83,1890,3377,2937,2395,2651,0,2868,3534,1583,2551,0,2485,2577,1669,1567,3144,1.159,3.563,9.206,0.054,0.111,0.004,1.774,-1.932,8.586,2.290,-1.648,2.012,sad
0.84,2042,3391,2992,2503,2659,0,2802,3524,1590,2552,0,2487,2577,1670,1567,3101,1.144,3.548,9.246,0.046,0.094,-0.000,0.333,-1.805,7.697,2.526,-1.889,1.163,sad
0.85,2160,3216,3062,2510,2591,51,2791,3314,3,0,0,0,0,19,0,0,1.164,3.555,9.278,0.025,0.080,0.002,-1.393,-2.193,8.777,2.431,-1.984,0.990,sad
0.86,2240,3399,3088,2676,2645,419,2768,3517,0,0,0,0,0,0,0,0,1.195,3.527,9.275,0.032,0.079,0.010,-2.217,-2.653,10.166,2.479,-2.115,1.022,sad
0.87,2303,3410,3122,2738,2675,722,2763,3505,7,0,0,31,0,0,0,0,1.226,3.472,9.261,0.050,0.017,0.005,-2.373,-2.928,10.221,2.531,-2.244,1.129,sad
0.88,2378,3235,3171,2688,2615,957,2769,3334,0,8,0,0,0,0,0,0,1.238,3.570,9.215,0.052,0.025,0.002,-4.152,-2.581,11.100,2.355,-2.449,1.265,sad
0.89,2409,3430,3181,2811,2739,1046,2749,3489,0,0,0,27,0,0,0,0,1.190,3.555,9.249,0.040,0.057,-0.001,-4.934,-2.650,11.317,2.216,-2.650,1.423,sad
0.90,2442,3438,3200,2832,2719,1124,2734,3487,0,0,0,0,0,0,0,0,1.173,3.474,9.261,0.041,0.045,-0.001,-6.263,-3.139,11.899,2.141,-2.271,2.099,sad
0.91,2480,3251,3230,2788,2608,1302,2723,3259,0,0,0,0,0,0,0,0,1.154,3.529,9.301,0.056,0.016,0.006,-7.274,-4.025,10.647,1.479,-2.744,2.746,sad
0.92,2487,3452,3247,2926,2739,1383,2679,3445,1594,2551,0,2487,2584,1672,1609,3109,1.142,3.565,9.304,0.061,0.016,0.010,-6.098,-4.618,9.038,1.027,-2.984,2.846,sad
0.93,2539,3465,3269,2910,2763,1430,2656,3435,0,0,0,0,0,0,0,0,1.226,3.503,9.287,0.054,-0.018,0.009,-4.542,-6.395,9.129,0.206,-2.878,2.705,sad
0.94,2559,3312,3301,2814,2736,1447,2651,3196,1589,2552,0,2487,2579,1670,1567,3103,1.269,3.536,9.220,0.051,0.001,0.010,-2.574,-10.740,13.513,0.321,-2.195,2.182,sad
0.95,2593,3489,3312,2943,2787,1392,2617,3379,1590,2551,0,2487,2579,1668,1568,3103,1.302,3.598,9.225,0.043,0.047,0.010,-2.085,-10.364,14.181,0.927,-1.563,1.563,sad
0.96,2587,3509,3327,2965,2711,1410,2587,3347,1589,2553,0,2485,2578,1660,1567,3103,1.202,3.579,9.218,0.004,0.048,0.015,-3.457,-9.919,1.422,0.724,0.289,0.301,sad
0.97,2482,3328,3362,2911,2645,1369,2559,3109,1597,2552,0,2486,2557,1663,1559,3097,1.154,3.596,9.337,-0.023,0.042,0.025,-6.108,-7.834,-1.243,-0.920,0.617,0.108,sad
0.98,2182,3532,3371,2992,2725,1201,2523,3290,1589,2550,0,2472,2575,1672,1567,3103,1.250,3.644,9.426,0.001,0.038,0.026,3.012,-1.848,12.256,-1.050,0.723,0.015,sad
0.99,1931,3539,3387,2990,2726,813,2443,3249,0,25,0,0,0,9,220,95,1.283,3.519,9.349,0.023,0.040,0.005,13.970,-11.552,10.901,-0.740,1.758,0.762,sad
1.00,1824,3540,3376,2966,2672,213,2278,3184,1517,2586,0,2383,2543,1711,1609,3098,1.252,3.558,9.311,0.017,0.085,-0.002,-12.234,-1.674,16.235,-0.969,0.193,0.433,sad
1.01,1651,3531,3401,2928,2501,0,2055,3050,1590,2549,0,2485,2577,1662,1567,3104,1.331,3.342,9.124,0.071,0.087,-0.014,0.773,-3.395,6.551,-0.130,0.088,0.164,sad
1.02,1519,3529,3407,2832,2256,0,1643,2778,1555,2569,10,2462,2543,1685,1583,3093,1.099,3.369,9.359,0.159,0.050,-0.014,-0.843,-2.016,10.570,-0.387,-0.162,0.014,sad
1.03,1502,3509,3396,2751,1975,0,880,2166,5,467,23,355,491,0,1541,3063,1.135,3.529,9.266,0.239,0.032,0.012,0.630,-3.938,9.898,-0.173,-0.192,-0.103,sad
1.04,1441,3519,3419,2730,1657,0,331,983,1591,2555,12,2486,2573,1671,1575,3108,1.051,3.431,9.299,0.322,-0.015,0.014,1.925,-3.431,9.522,-0.064,0.080,-0.052,sad
1.05,1448,3523,3425,2689,1382,0,0,0,1639,2553,156,2483,2577,1671,1574,3107,1.298,2.813,8.734,0.497,0.002,0.053,1.271,-3.493,9.495,-0.034,0.037,0.002,sad
1.06,1454,3520,3380,2633,956,0,0,0,1592,2521,20,2485,2573,1673,1574,3103,0.742,4.532,9.500,0.622,0.054,0.218,1.267,-3.366,9.534,-0.003,-0.057,-0.020,sad
1.07,1471,3515,3434,2559,615,0,0,0,1595,2551,591,2485,2511,1669,1572,3089,1.211,3.867,8.856,0.673,0.008,0.154,1.441,-3.357,9.546,-0.004,-0.020,-0.005,sad
1.08,1582,3495,3433,2526,402,0,0,0,1598,2603,893,2487,2575,1645,1572,3103,1.290,3.785,9.129,0.737,0.074,0.167,1.530,-3.290,9.309,0.017,0.066,0.013,sad
1.09,1611,3450,3404,2423,107,0,0,0,1599,2542,1064,2539,2573,1663,1571,3102,1.235,4.132,8.801,0.796,0.126,0.190,1.544,-3.254,9.335,0.006,0.069,0.022,sad
1.10,1710,3305,3449,2355,0,0,0,0,1604,2551,1097,2485,2573,1669,1572,3103,1.456,4.140,9.012,0.892,0.178,0.207,1.482,-3.354,9.383,0.001,0.067,0.036,sad
1.11,1634,2745,3142,2035,0,0,0,0,1599,2551,1133,2485,2573,1669,1573,3107,1.638,4.345,8.995,1.023,0.299,0.238,1.437,-3.232,9.421,-0.029,0.086,0.063,sad
1.12,1831,2720,3247,1993,0,0,0,0,1607,2595,1159,2487,2577,1641,1573,3107,1.439,4.142,9.000,1.181,0.413,0.238,1.355,-3.218,9.424,-0.048,0.101,0.082,sad
1.13,1869,2364,3017,1702,0,0,0,0,1605,2551,1174,2485,2575,1671,1577,3043,2.037,4.690,9.436,1.320,0.526,0.182,1.350,-3.110,9.311,-0.067,0.101,0.105,sad
1.14,1770,1623,2245,1325,0,0,0,0,1605,2551,1179,2487,2573,1671,1572,3116,1.317,4.681,10.372,1.771,0.601,-0.076,1.575,-3.388,9.299,-0.169,0.130,0.163,sad
1.15,1503,939,947,709,0,0,0,0,1618,2551,1000,2503,2575,1669,1573,3103,1.705,5.550,10.903,2.057,0.822,-0.373,1.437,-3.543,9.311,-0.137,0.153,0.119,sad
1.16,1209,400,0,240,0,0,0,0,1606,2569,1003,2485,2584,1669,1573,3103,2.686,5.634,9.503,2.082,1.306,-0.734,1.283,-3.450,9.342,-0.124,0.119,0.082,sad
1.17,371,41,0,0,0,0,0,0,1591,2547,1225,2483,2572,1663,1575,3109,1.307,6.981,12.519,1.676,2.037,-0.709,1.350,-3.484,9.321,-0.085,0.112,0.073,sad
1.18,0,0,0,0,0,0,0,0,1607,2548,1128,2469,2571,1663,1573,3098,5.416,1.561,10.410,0.525,1.815,-0.370,1.408,-3.443,9.333,-0.059,0.136,0.074,sad
1.19,0,0,0,0,0,0,0,0,1531,2490,867,2479,2569,1663,1573,3099,6.153,2.169,9.112,-0.078,1.096,1.270,1.314,-3.572,9.349,-0.046,0.129,0.060,sad
1.20,0,0,0,0,0,0,0,0,1609,2549,1144,2479,2571,1669,1572,3099,4.367,1.173,8.847,-0.367,1.132,1.975,1.324,-3.517,9.388,-0.023,0.107,0.046,sad
1.21,0,0,0,0,0,0,0,0,1593,2547,1074,2483,2572,1662,1573,3100,3.285,1.183,9.076,-0.896,1.010,2.205,1.338,-3.582,9.294,-0.005,0.130,0.042,sad
1.22,0,0,0,0,0,0,0,0,1608,2548,1126,2483,2583,1669,1572,3099,3.072,1.192,8.629,-1.221,0.921,2.350,1.350,-3.529,9.323,-0.007,0.125,0.047,sad
1.23,0,0,0,0,0,0,0,0,1607,2548,1118,2483,2572,1663,1575,3101,3.249,1.982,9.620,-1.571,0.758,2.468,1.267,-3.472,9.380,-0.017,0.125,0.051,sad
1.24,0,0,0,0,0,0,0,0,1608,2549,1118,2483,2571,1669,1581,3107,3.395,2.892,10.391,-1.939,0.715,2.384,1.286,-3.539,9.294,-0.039,0.112,0.054,sad
1.25,0,0,0,0,0,0,0,0,1611,2547,1123,2483,2571,1575,1572,3099,4.463,4.080,10.776,-2.287,0.864,2.236,1.245,-3.615,9.335,-0.026,0.096,0.049,sad
1.26,0,0,0,0,0,0,0,0,112,436,1550,1933,954,25,3054,3711,9.131,6.249,10.647,-2.447,1.057,2.425,1.432,-3.962,9.522,0.020,0.037,0.035,sad
1.27,0,0,0,0,0,0,0,0,168,457,1689,2092,1007,39,3321,4095,10.511,7.851,9.996,-2.407,1.181,2.958,1.240,-3.539,9.397,0.031,0.037,0.041,sad
1.28,0,0,0,0,0,0,0,0,149,510,1627,2099,1045,37,3348,4095,10.192,9.364,8.083,-2.155,1.118,3.699,1.252,-3.510,9.278,0.031,0.031,0.036,sad
1.29,0,0,0,0,0,0,0,0,167,483,1714,2093,1133,36,3383,4095,7.317,10.199,6.479,-1.694,0.814,4.418,1.228,-3.553,9.328,0.022,0.032,0.039,sad
1.30,0,0,0,0,0,0,0,0,155,495,1891,2157,1141,39,3421,4095,3.335,10.824,6.184,-1.134,0.236,4.739,0.824,-3.326,9.780,0.003,0.027,0.043,sad
1.31,0,0,0,0,0,0,0,0,171,486,1550,2095,1145,39,3428,4095,3.134,11.684,5.974,-0.602,0.351,4.704,1.329,-3.484,9.175,0.007,0.054,0.042,sad
1.32,0,0,0,0,0,0,0,0,200,523,1829,2152,1127,41,3433,4095,1.310,11.461,6.108,-0.110,0.568,4.517,1.336,-3.484,9.311,-0.001,0.036,0.033,sad
1.33,0,0,0,0,0,0,0,0,249,575,1904,2125,1125,45,3427,4095,0.730,10.877,7.460,0.305,0.568,4.117,1.338,-3.555,9.378,0.002,0.032,0.036,sad
1.34,0,0,0,0,0,0,0,0,273,553,1911,2149,1245,45,3407,4095,0.627,10.295,8.234,0.256,0.463,3.600,1.322,-3.584,9.278,-0.016,0.029,0.031,sad
1.35,0,0,0,0,0,0,0,0,233,789,1932,2207,1263,46,3385,4095,1.310,9.337,8.138,0.212,0.417,3.180,1.257,-3.500,9.263,-0.006,0.019,0.027,sad
1.36,0,0,0,0,0,0,0,0,296,730,1932,2156,1291,45,3351,4056,1.678,7.958,7.542,0.258,0.387,2.855,1.226,-3.498,9.278,-0.001,0.001,0.023,sad
1.37,0,0,0,0,0,0,0,0,307,803,1916,2247,1337,47,3337,4023,2.370,7.202,7.314,0.351,0.530,2.670,1.290,-3.555,9.376,-0.000,-0.021,0.023,sad
1.38,0,0,0,0,0,0,0,0,348,859,1829,2253,1362,47,3288,3965,3.488,7.068,7.336,0.275,0.747,2.513,1.283,-3.505,9.268,0.010,-0.014,0.027,sad
1.39,0,0,0,0,0,0,0,0,391,923,1924,2293,1465,47,3316,3998,3.850,6.713,7.001,0.397,1.054,2.655,1.331,-3.536,9.397,0.012,-0.013,0.021,sad
1.40,0,0,0,0,0,0,0,0,445,876,1952,2271,1527,45,3320,4007,4.070,6.407,6.503,0.403,0.942,2.785,1.190,-3.668,9.421,0.021,0.000,0.029,sad
1.41,0,0,0,0,0,0,0,0,503,937,1963,2317,1654,51,3389,4053,4.542,6.771,6.558,0.550,0.771,3.090,1.202,-3.563,9.342,0.027,0.012,0.029,sad
1.42,0,0,0,0,0,0,0,0,471,996,1950,2295,1669,50,3307,3974,4.427,6.857,6.460,0.617,0.617,3.356,1.202,-3.572,9.306,0.042,0.007,0.030,sad
1.43,0,0,0,0,0,0,0,0,552,1015,2101,2295,1783,0,3404,4088,3.472,6.622,6.656,0.742,0.463,3.479,1.221,-3.510,9.290,0.048,-0.005,0.027,sad
1.44,0,0,0,0,0,0,0,0,573,1041,2024,2301,1895,47,3403,4073,1.580,8.507,6.029,1.000,0.248,3.443,1.286,-3.428,9.189,0.029,-0.034,0.019,sad
1.45,0,0,0,0,0,0,0,0,719,939,1914,2234,1899,50,3229,3807,0.943,8.916,4.262,1.339,0.122,2.894,1.283,-3.491,9.306,0.037,-0.044,0.023,sad
1.46,0,0,0,0,0,0,0,0,729,859,1911,2184,1977,51,3229,3801,0.888,10.259,3.867,1.479,0.012,2.296,1.765,-3.421,8.942,0.043,-0.022,0.020,sad
1.47,0,106,0,0,0,0,0,0,857,987,1922,2159,2059,47,3245,3879,-9.170,6.232,2.653,1.218,1.902,0.187,1.360,-3.484,9.218,0.033,-0.033,0.024,sad
1.48,64,453,0,0,592,0,0,0,763,1141,1986,2141,2197,51,3319,3982,3.280,4.681,11.875,-0.276,1.305,-0.314,1.068,-3.407,9.218,0.028,-0.017,0.020,sad
1.49,195,1104,0,0,722,0,194,1178,779,1177,2126,2101,2235,47,3306,3997,-3.651,3.072,11.590,0.636,0.942,-0.901,1.197,-3.529,9.443,0.032,-0.014,0.025,sad
1.50,293,2001,0,0,1040,0,477,1841,919,1075,2003,2001,2213,47,3183,4037,1.784,3.929,8.832,0.285,0.475,-0.659,1.580,-3.395,9.031,0.028,0.003,0.023,sad
1.51,419,2559,617,0,1515,0,759,2203,951,1147,1998,1967,1820,47,2707,3979,1.041,3.764,9.931,0.034,-0.226,-0.342,1.377,-3.565,9.378,0.035,0.000,0.016,sad
1.52,449,2785,1389,130,1573,0,1120,2314,943,1055,1965,1965,1417,24,2421,3957,1.755,3.634,9.986,0.097,0.095,0.031,1.360,-3.625,9.550,0.031,-0.023,0.008,sad
1.53,554,2963,1779,274,1859,0,1413,2486,1000,1215,1991,1772,1053,45,2103,3933,1.901,3.081,9.000,0.165,-0.184,0.077,1.125,-3.579,9.443,0.036,-0.048,0.011,sad
1.54,602,3053,2037,385,2011,0,1712,2627,873,815,1978,1493,1067,47,1879,3912,1.602,3.673,9.182,0.133,0.091,0.040,1.422,-3.474,9.392,0.038,-0.048,0.035,sad
1.55,725,3132,2271,431,2218,0,1951,2736,919,692,1942,1188,1036,45,1893,3764,1.377,3.656,9.184,0.058,0.068,0.030,1.415,-3.405,9.313,0.007,-0.048,0.026,sad
1.56,755,3123,2388,634,2187,0,2103,2816,803,760,1384,937,927,47,1580,3850,1.465,3.570,9.206,0.030,-0.066,-0.005,1.367,-3.486,9.376,-0.012,-0.044,0.030,sad
1.57,802,3215,2464,691,2415,0,2215,2942,688,675,314,729,825,63,1518,3812,1.355,3.445,9.158,-0.015,-0.092,-0.039,1.518,-3.472,9.187,0.003,-0.039,-0.018,sad
1.58,811,3234,2538,711,2480,0,2375,3018,729,741,209,589,807,22,1613,3772,1.518,3.572,9.244,-0.029,0.006,-0.007,1.262,-3.450,9.304,-0.009,-0.034,-0.029,sad
1.59,857,3243,2579,749,2592,0,2507,3107,611,743,0,347,691,3,1307,3683,1.448,3.417,9.254,-0.008,0.056,0.040,1.199,-3.677,9.584,-0.001,-0.054,-0.050,sad
1.60,804,3245,2417,760,2639,0,2394,3168,501,421,0,235,555,3,949,3513,1.427,3.541,9.313,-0.018,0.044,0.048,1.142,-3.091,9.491,0.054,-0.003,-0.039,sad
1.61,795,3247,2649,797,2697,0,2706,3249,441,0,0,135,455,0,745,3386,1.602,3.349,9.155,-0.022,0.028,0.041,0.390,-3.467,9.471,0.069,0.012,0.011,sad
1.62,761,3089,2483,720,2625,0,2597,3109,339,0,0,0,187,0,798,3020,1.539,3.213,9.177,0.033,0.013,-0.018,-3.304,-2.126,9.239,0.321,-0.048,0.346,sad
1.63,851,3287,2731,992,2869,0,2851,3350,185,0,0,0,20,0,469,2663,1.714,3.292,9.115,0.084,0.003,-0.040,-16.489,-3.048,12.136,1.106,-0.475,3.035,sad
1.64,946,3314,2789,1264,2959,0,2894,3379,1590,2551,0,2487,2578,1669,1571,3103,1.566,3.464,9.201,0.091,0.029,-0.045,-18.344,-7.367,12.797,1.485,-0.629,4.366,sad
1.65,1035,3347,2864,1524,3028,0,2905,3405,1591,2552,0,2501,2589,1671,1574,3108,1.513,3.462,9.239,0.093,0.036,-0.040,-7.934,-14.609,12.895,2.047,0.062,4.366,sad
1.66,1089,3371,2893,1759,3043,0,2934,3415,1591,2571,0,2489,2623,1669,1582,3101,1.477,3.484,9.318,0.080,0.075,-0.012,6.206,-12.589,3.067,1.450,-1.217,4.366,sad
1.67,1162,3395,2951,1881,3089,0,2960,3425,1592,2553,0,2490,2585,1672,1573,3109,1.405,3.515,9.340,0.066,0.055,0.009,3.768,-9.244,5.794,1.168,-1.276,4.366,sad
1.68,1218,3413,2992,1963,3127,0,2960,3431,142,0,0,0,0,0,0,1647,1.463,3.598,9.282,0.062,0.065,-0.007,0.029,-5.215,7.324,0.924,-1.869,4.366,sad
1.69,1236,3427,3003,2001,3133,0,2960,3440,0,0,0,0,17,0,0,1471,1.367,3.596,9.246,0.033,0.070,0.005,3.718,-3.994,6.280,0.318,-0.798,4.172,sad
1.70,1233,3430,3033,2077,3120,0,2969,3447,1566,2543,0,2475,2569,1677,1491,3101,1.444,3.428,9.282,0.034,0.069,0.014,2.277,-3.745,6.972,0.039,-0.196,3.558,sad
1.71,1264,3431,3067,2127,3123,0,2973,3436,1529,2577,0,2458,2543,1695,1596,3096,1.398,3.462,9.282,0.049,0.068,0.004,2.251,-3.929,8.370,-0.466,0.240,2.486,sad
1.72,1294,3434,3079,2202,3115,0,2965,3439,1553,2580,0,2459,2547,1700,1597,3094,1.417,3.467,9.199,0.054,0.070,0.002,0.618,-4.271,9.527,-0.487,0.325,1.958,sad
1.73,1344,3426,3113,2253,3122,0,2974,3438,1546,2458,0,2463,2548,1691,1591,3099,1.381,3.421,9.273,0.051,0.060,-0.004,0.201,-4.585,10.247,-0.368,0.243,1.901,sad
1.74,1378,3439,3141,2319,3103,0,2973,3442,1548,2573,0,2462,2551,1689,1560,3097,1.360,3.452,9.280,0.048,0.052,-0.003,0.000,-4.515,8.981,-0.198,-0.029,2.057,sad
1.75,1437,3439,3145,2347,3070,0,2963,3435,1551,2551,0,2463,2551,1689,1587,3096,1.314,3.515,9.278,0.048,0.065,0.009,0.716,-4.736,8.468,-0.194,-0.207,2.288,sad
1.76,1493,3430,3127,2402,3018,0,2952,3434,1549,2572,0,2462,2551,1691,1647,3096,1.312,3.433,9.299,0.052,0.067,-0.001,1.109,-4.760,8.461,-0.203,-0.281,2.390,sad
1.77,1535,3434,3195,2449,2960,113,2960,3424,1553,2575,0,2517,2553,1689,1590,3095,1.381,3.479,9.275,0.047,0.062,-0.004,2.030,-5.090,8.578,-0.215,-0.624,2.472,sad
1.78,1609,3431,3200,2496,2896,315,2947,3426,1549,2553,0,2467,2567,1695,1592,3096,1.322,3.443,9.254,0.063,0.073,-0.005,3.163,-6.017,8.468,-0.062,-0.790,2.385,sad
1.79,1669,3433,3216,2535,2863,435,2942,3417,1549,2573,0,2464,2569,1690,1589,3095,1.338,3.467,9.225,0.066,0.077,-0.011,3.840,-5.947,7.321,-0.112,-0.835,2.196,sad
1.80,1712,3430,3230,2559,2861,279,2915,3409,1553,2577,0,2463,2553,1691,1591,3065,1.336,3.503,9.321,0.070,0.081,-0.013,6.639,-4.518,9.694,-0.167,-2.305,1.670,sad
1.81,1749,3426,3227,2607,2849,33,2878,3391,0,0,0,0,0,0,0,1063,1.369,3.551,9.299,0.070,0.082,-0.020,13.510,1.120,11.475,-0.457,-0.957,0.076,sad
1.82,1805,3429,3248,2637,2813,0,2827,3366,0,0,0,0,0,0,0,1672,1.338,3.498,9.258,0.084,0.097,-0.032,2.109,1.551,5.069,-1.259,-1.713,-0.121,sad
1.83,1795,3367,3197,2608,2713,0,2643,3262,1608,2553,0,2487,2577,1651,1573,3103,1.305,3.515,9.179,0.092,0.099,-0.031,0.304,-3.986,9.237,-0.251,-0.063,0.039,sad
1.84,1889,3405,3235,2663,2705,0,2538,3202,1579,2570,2,2479,2567,1671,1579,3101,1.228,3.505,9.237,0.105,0.101,-0.039,1.331,-2.883,9.333,-0.414,-0.231,-0.018,sad
1.85,1917,3377,3228,2645,2654,0,2306,3059,1584,2613,2,2479,2577,1664,1572,3100,1.207,3.488,9.309,0.117,0.104,-0.050,0.915,-3.639,9.352,-0.387,-0.185,0.008,sad
1.86,1991,3397,3263,2709,2646,0,2096,2941,152,1,5,993,13,0,979,3263,1.221,3.541,9.234,0.117,0.108,-0.051,1.109,-3.589,9.424,-0.189,-0.010,0.057,sad
1.87,2025,3377,3248,2545,2544,0,1910,2679,1573,2552,33,2485,2573,1672,1573,3119,1.092,3.481,9.316,0.141,0.099,-0.061,1.061,-3.740,9.395,-0.163,-0.030,0.041,sad
1.88,2064,3369,3239,2727,2464,0,1535,2502,1593,2550,43,2485,2542,1669,1571,3097,1.152,3.567,9.280,0.165,0.110,-0.078,0.991,-3.747,9.438,-0.103,0.001,0.027,sad
1.89,1840,3140,3011,2527,2053,0,987,1967,1587,2547,33,2483,2573,1662,1570,3102,1.228,3.651,9.297,0.174,0.108,-0.073,0.989,-3.826,9.354,-0.062,0.002,0.005,sad
1.90,1897,3331,3190,2727,1857,0,699,1712,1593,2570,51,2485,2573,1663,1571,3103,1.089,3.625,9.187,0.169,0.060,-0.070,1.080,-3.721,9.290,-0.015,0.054,-0.020,sad
1.91,1777,3299,3139,2711,1482,0,257,496,1593,2549,56,2488,2573,1669,1567,3101,1.195,3.673,9.285,0.190,0.059,-0.078,0.977,-3.701,9.261,-0.008,0.026,-0.019,sad
1.92,1773,3255,3121,2635,1193,0,0,0,1595,2547,56,2485,2577,1670,1571,3101,1.580,3.493,9.194,0.209,0.061,-0.055,1.056,-3.582,9.210,-0.003,0.009,-0.013,sad
1.93,1703,3173,3051,2465,898,0,0,0,1593,2549,53,2479,2653,1663,1568,3064,1.518,3.361,9.201,0.283,0.077,-0.027,1.044,-3.608,9.280,-0.013,0.007,-0.011,sad
1.94,1638,3035,2942,2231,577,0,0,0,1591,2550,795,2389,2569,1565,1572,3051,1.539,4.221,9.067,0.264,0.205,-0.081,1.037,-3.634,9.316,-0.009,0.009,-0.017,sad
1.95,1676,2758,2771,2079,224,0,0,0,1595,2521,936,2483,2571,1661,1573,3102,1.386,3.953,9.380,0.250,0.410,-0.084,1.104,-3.608,9.278,-0.020,0.005,-0.027,sad
1.96,1617,2242,2449,1930,0,0,0,0,1596,2548,1039,2482,2571,1663,1573,3103,1.501,4.312,9.244,0.343,0.582,-0.108,1.097,-3.481,9.079,-0.017,-0.015,-0.024,sad
1.97,1562,1145,1664,1683,0,0,0,0,1593,2547,949,2475,2570,1725,1572,3099,1.640,4.587,9.380,0.288,0.815,-0.378,1.173,-3.639,9.254,-0.013,0.003,-0.020,sad
1.98,1216,413,60,921,0,0,0,0,1599,2549,1225,2483,2571,1671,1573,3101,2.131,4.970,10.020,0.277,1.070,-0.924,1.168,-3.706,9.388,0.022,0.015,-0.017,sad
1.99,493,0,0,174,0,0,0,0,403,797,1638,1928,1307,135,2632,3292,2.749,6.541,10.127,0.178,1.591,-1.502,1.159,-3.627,9.246,0.033,-0.052,-0.003,sad
2.00,0,0,0,0,0,0,0,0,1608,2547,1300,2482,2573,1663,1571,3031,6.850,7.697,9.507,-0.006,2.721,-1.727,1.195,-3.563,9.261,0.026,0.011,-0.006,sad
2.01,0,0,0,0,0,0,0,0,603,1179,1993,2324,1900,47,3273,4051,10.697,10.020,9.050,-0.006,1.623,1.326,1.164,-3.666,9.282,0.035,-0.073,0.002,sad
2.02,0,0,0,0,0,0,0,0,557,1304,1993,2355,2083,25,3337,4025,8.193,6.574,5.710,0.009,1.266,2.982,1.159,-3.630,9.256,0.059,-0.051,-0.005,sad
2.03,0,0,0,0,0,0,0,0,496,1293,1911,2360,2157,57,3359,4011,4.633,6.036,6.706,0.257,1.264,3.805,1.104,-3.560,9.318,0.064,-0.056,-0.014,sad
2.04,0,0,0,0,0,0,0,0,541,1336,1993,2319,2186,47,3283,3798,2.916,5.540,6.742,0.386,1.285,4.043,1.219,-3.534,9.177,0.053,-0.060,-0.017,sad
2.05,0,0,0,0,0,0,0,0,467,1371,1845,2107,2011,93,2989,3375,1.810,4.788,7.204,0.477,1.413,4.136,1.274,-3.608,9.347,0.058,-0.041,-0.007,sad
2.06,0,0,0,0,0,0,0,0,411,2439,1789,2471,1971,215,2135,3352,1.319,4.922,7.982,0.499,1.416,4.073,1.274,-3.462,9.261,0.066,-0.022,0.001,sad
2.07,0,0,0,0,0,0,0,0,1613,2547,1389,2483,2567,1661,1571,3103,1.250,4.487,8.557,0.497,1.473,3.972,1.216,-3.579,9.316,0.057,0.032,-0.000,sad
2.08,0,0,0,0,0,0,0,0,1613,2543,1405,2483,2633,1660,1515,3100,1.075,3.620,8.995,0.388,1.284,3.883,1.216,-3.539,9.354,0.065,0.040,0.001,sad
2.09,0,0,0,0,0,0,0,0,465,1499,2098,2329,2591,50,3464,3949,0.620,3.256,9.874,0.146,0.988,3.619,1.293,-3.503,9.369,0.035,-0.023,0.013,sad
2.10,0,0,0,0,0,0,0,0,487,1566,2116,2365,2652,59,3487,3943,0.311,3.084,10.374,-0.058,0.827,3.395,1.245,-3.546,9.330,0.044,-0.005,0.016,sad
2.11,0,0,0,0,0,0,0,0,457,1636,2147,2437,2733,48,3481,3931,-0.122,2.744,10.733,-0.430,0.586,2.907,1.223,-3.512,9.359,0.037,-0.005,0.027,sad
2.12,0,0,0,0,0,0,0,0,425,1720,2149,2463,2827,48,3495,3929,0.163,2.401,10.544,-0.761,0.384,2.529,1.264,-3.486,9.263,0.024,-0.013,0.029,sad
2.13,0,0,0,0,0,0,0,0,493,1764,2234,2537,2885,51,3501,3909,0.433,2.425,10.238,-0.978,0.231,2.178,1.341,-3.539,9.359,-0.005,-0.012,0.039,sad
2.14,0,0,0,0,0,0,0,0,499,1891,2188,2547,2924,51,3487,3859,0.649,2.880,10.807,-1.128,-0.050,1.860,1.381,-3.536,9.352,-0.018,-0.012,0.035,sad
2.15,0,0,0,0,0,0,0,0,567,2009,2201,2573,2975,50,3481,3852,1.063,3.033,9.943,-1.262,-0.188,1.586,1.314,-3.598,9.371,-0.013,-0.010,0.035,sad
2.16,0,0,0,0,0,0,0,0,682,2057,2195,2565,3019,50,3407,3775,1.094,2.722,8.677,-1.119,-0.095,1.329,1.362,-3.488,9.280,-0.022,-0.009,0.036,sad
2.17,0,0,0,0,0,0,0,0,792,2120,2203,2650,3061,51,3350,3723,0.917,3.508,9.507,-0.744,-0.273,1.261,1.377,-3.546,9.325,-0.022,-0.022,0.031,sad
2.18,0,0,0,0,0,0,0,0,852,2123,2208,2667,3093,51,3287,3676,1.250,5.423,11.653,-0.669,-0.449,1.392,1.372,-3.587,9.321,-0.020,-0.028,0.034,sad
2.19,0,0,0,0,0,0,0,0,1036,2165,2305,2715,3135,52,3170,3511,-0.160,6.203,11.677,-0.694,-0.644,1.574,1.377,-3.816,9.488,0.008,-0.006,0.040,sad
2.20,0,0,0,0,0,0,0,0,1223,2175,2218,2815,3173,47,3148,3453,0.017,7.774,12.170,-1.047,-0.347,1.483,1.379,-3.572,9.285,-0.005,-0.014,0.032,sad
2.21,0,0,0,0,0,0,0,0,1263,2174,2221,2771,3177,51,3098,3451,-1.832,8.456,11.296,-1.442,-0.110,1.361,1.393,-3.565,9.316,-0.005,-0.002,0.032,sad
2.22,0,0,0,0,0,0,0,0,1369,2223,2224,2796,3172,47,3119,3453,-3.627,7.863,7.602,-1.468,-0.312,1.185,1.398,-3.524,9.270,-0.006,0.016,0.033,sad
2.23,0,0,0,0,0,0,0,0,1468,2227,2224,2799,3181,55,3083,3469,-3.091,8.205,5.358,-1.028,0.103,0.839,1.336,-3.531,9.313,-0.007,0.039,0.037,sad
2.24,0,0,0,0,0,0,0,0,1559,2274,2224,2898,3111,47,3029,3465,-2.816,8.677,4.836,-0.612,0.372,0.439,1.389,-3.527,9.230,-0.016,0.026,0.040,sad
2.25,0,0,0,0,0,0,0,0,1836,2279,2218,2917,3148,51,2891,3461,-2.459,8.686,4.075,-0.224,-0.088,0.062,1.348,-3.299,9.021,-0.043,0.003,0.039,sad
2.26,0,0,0,0,0,0,0,0,2095,2284,2239,3003,3055,55,2792,3443,0.424,8.631,3.991,0.215,-0.159,0.118,1.420,-3.613,9.440,-0.029,0.054,0.043,sad
2.27,0,0,0,0,0,0,0,0,2157,2387,2234,3001,2997,45,2675,3418,1.322,3.206,12.335,0.367,0.579,-0.067,1.468,-3.613,9.357,-0.024,0.059,0.050,sad
2.28,0,0,0,0,0,0,0,0,2617,2516,2231,3087,2904,47,2508,3288,2.550,-1.738,10.884,0.379,0.092,-0.232,1.377,-3.601,9.285,-0.076,0.032,0.050,sad
2.29,0,0,0,0,0,0,66,971,2963,2589,2244,3219,2904,47,2162,2971,2.801,0.144,7.372,1.156,-0.004,-0.247,1.329,-3.682,9.347,-0.109,0.055,0.049,sad
2.30,0,0,0,0,0,0,302,2031,3180,2655,2244,3299,2639,47,1507,2611,3.213,2.995,11.111,1.205,-0.155,-0.068,1.358,-3.594,9.359,-0.174,0.083,0.038,sad
2.31,0,0,0,0,67,0,694,2590,3246,2653,2244,3339,2543,47,1258,2271,1.518,3.534,10.556,1.027,-0.213,0.042,1.417,-4.025,9.354,-0.163,0.112,0.058,sad
2.32,0,0,0,0,336,0,1092,2837,3355,2687,2331,3431,2260,99,505,1831,0.644,2.825,10.195,1.002,-0.296,-0.033,1.259,-3.508,9.210,-0.135,0.096,0.121,sad
2.33,0,0,0,0,576,0,1602,2947,3451,2460,2249,3503,1427,23,73,1553,6.864,6.584,10.851,0.629,0.130,-0.282,1.123,-2.686,9.421,-0.498,0.207,-0.029,sad
2.34,0,589,0,0,787,0,1887,2993,3469,2285,2249,3517,1087,3,5,1447,1.391,3.563,10.309,0.416,0.621,-0.222,1.195,-3.938,9.287,-0.436,0.186,-0.070,sad
2.35,0,1087,0,0,1168,0,2022,3024,3519,2275,2252,3615,555,5,5,1339,1.836,3.098,9.371,0.320,0.565,-0.199,1.140,-3.895,9.155,-0.508,0.155,-0.141,sad
2.36,0,1497,0,0,1311,0,2082,3056,3564,2285,2262,3627,445,5,3,1159,1.729,3.117,9.519,0.305,0.758,-0.284,1.171,-3.931,9.254,-0.575,0.134,-0.121,sad
2.37,0,1845,0,0,1533,0,2109,3068,3605,2139,2265,3644,169,0,5,991,1.437,3.153,9.665,0.270,0.711,-0.297,1.504,-4.005,9.395,-0.762,0.157,-0.084,sad
2.38,0,2070,0,0,1572,0,2159,3195,3628,1918,2321,3639,24,3,1,842,1.492,3.318,9.287,0.171,0.283,-0.164,1.092,-4.015,8.940,-1.020,0.168,-0.113,sad
2.39,0,2308,196,0,1797,0,2209,3277,3637,1677,2372,3606,0,1,0,685,1.501,3.158,9.505,0.101,0.125,-0.064,1.281,-4.223,8.942,-1.328,0.276,-0.122,sad
2.40,0,2512,658,0,1943,0,2368,3377,3629,1483,2395,3555,0,1,1,680,1.331,3.136,9.419,0.072,0.084,-0.056,1.456,-4.056,9.182,-1.554,0.359,-0.187,sad
2.41,0,2651,1122,299,2179,0,2499,3466,3597,960,2439,3423,0,0,0,553,1.386,3.134,9.421,0.061,-0.013,-0.026,1.417,-4.295,9.462,-2.197,0.498,-0.045,sad
2.42,0,2774,1566,417,2352,0,2622,3522,1597,2551,1507,2483,2569,1663,1573,3101,1.348,3.086,9.349,0.099,-0.058,-0.035,0.383,-4.168,10.467,-2.994,0.242,0.422,sad
2.43,32,2903,1847,666,2462,0,2736,3578,1587,2553,775,2393,2569,1642,1573,3095,1.372,3.225,9.459,0.115,0.004,-0.039,1.422,-6.744,11.588,-3.315,-0.409,0.826,sad
2.44,43,2931,1966,758,2398,0,2690,3583,1639,2615,0,2479,2568,1671,1567,3103,1.446,3.287,9.503,0.084,0.035,-0.027,2.610,-7.875,10.195,-3.937,-0.547,1.467,sad
2.45,147,3056,2163,843,2710,0,2935,3634,1573,2556,0,2475,2567,1675,1612,3103,1.415,3.072,9.354,0.102,0.027,-0.027,1.113,-8.839,8.384,-3.584,-0.968,2.401,sad
2.46,235,3111,2273,912,2768,0,2992,3643,1577,2557,0,2476,2569,1662,1575,3099,1.448,3.177,9.407,0.146,0.017,-0.031,1.348,-8.162,10.333,-2.671,-0.842,2.828,sad
2.47,339,3154,2355,928,2818,0,3027,3641,1579,2555,0,2479,2573,1671,1573,3079,1.439,3.266,9.471,0.140,0.009,-0.026,2.784,-3.776,11.509,-0.015,-0.174,3.141,sad
2.48,410,3189,2423,1008,2864,0,3037,3632,1587,2552,0,2485,2571,1663,1567,3091,1.408,3.177,9.309,0.132,0.027,-0.033,4.566,0.797,10.029,1.203,-0.243,2.128,sad
2.49,471,3219,2509,1191,2909,0,3018,3611,1584,2552,0,2485,2629,1671,1555,3103,1.405,3.144,9.256,0.163,0.005,-0.042,5.365,-1.563,6.972,1.526,-0.112,1.571,sad
2.50,507,3248,2598,1350,2946,0,3014,3598,1590,2551,0,2485,2579,1661,1571,3103,1.379,3.330,9.395,0.152,0.003,-0.035,3.915,-1.513,8.981,2.026,-0.443,0.294,sad
2.51,551,3281,2665,1455,2978,0,3008,3580,1591,2550,0,2485,2580,1663,1567,3107,1.365,3.359,9.357,0.119,0.017,-0.031,2.085,-1.776,8.803,2.567,-0.885,-0.377,sad
2.52,581,3317,2730,1557,3001,0,3013,3581,1589,2525,0,2487,2581,1663,1567,3103,1.355,3.354,9.311,0.119,0.010,-0.027,1.128,-2.229,9.196,2.758,-0.904,-0.469,sad
2.53,585,3333,2783,1615,3025,0,3024,3569,1571,2550,35,2485,2579,1657,1567,3103,1.386,3.330,9.285,0.093,-0.005,-0.026,0.050,-2.428,9.886,3.044,-0.982,-0.346,sad
2.54,622,3369,2832,1658,3059,0,3062,3583,1591,2567,0,2486,2579,1661,1567,3103,1.413,3.405,9.333,0.091,0.001,-0.020,0.634,-3.268,10.441,3.199,-1.155,-0.242,sad
2.55,651,3393,2880,1709,3088,0,3058,3581,1597,2549,89,2487,2581,1722,1565,3103,1.501,3.378,9.215,0.075,0.004,-0.021,1.223,-3.821,10.652,3.211,-1.224,-0.327,sad
2.56,681,3422,2921,1726,3115,0,3058,3583,1591,2549,0,2477,2579,1663,1565,3103,1.456,3.335,9.290,0.082,0.010,-0.015,1.788,-4.590,11.205,3.062,-1.323,-0.718,sad
2.57,719,3439,2935,1730,3145,0,3053,3573,1599,2551,0,2501,2577,1669,1568,3107,1.360,3.311,9.318,0.099,-0.009,-0.016,1.015,-4.707,12.028,2.687,-1.248,-1.071,sad
2.58,763,3462,2993,1808,3179,0,3067,3559,1589,2551,0,2485,2577,1669,1573,3101,1.439,3.328,9.287,0.122,-0.046,-0.024,0.081,-4.652,11.499,2.269,-1.281,-1.134,sad
2.59,852,3486,3043,1904,3200,0,3058,3525,1588,2551,0,2485,2577,1663,1567,3104,1.429,3.385,9.328,0.141,-0.049,-0.022,0.043,-6.941,11.849,1.137,-1.563,-1.094,sad
2.60,926,3507,3071,1966,3243,0,3052,3511,1587,2551,0,2484,2577,1670,1567,3100,1.329,3.407,9.306,0.145,-0.046,-0.034,1.216,-13.994,13.925,0.557,-1.707,-1.175,sad
2.61,871,3318,2922,1826,3066,0,2847,3266,1589,2549,0,2485,2579,1663,1565,3107,1.578,3.412,9.172,0.136,-0.025,-0.031,0.622,-17.198,13.226,0.902,-1.605,-1.323,sad
2.62,991,3543,3194,2083,3291,0,3022,3433,1587,2551,0,2489,2550,1670,1543,3103,1.559,3.443,9.196,0.171,-0.021,-0.041,-5.705,-15.897,4.678,1.621,-1.135,-1.536,sad
2.63,1085,3557,3243,2202,3312,0,2978,3370,1591,2533,0,2487,2581,1661,1567,3102,1.597,3.476,9.225,0.155,-0.010,-0.035,-7.889,-15.962,0.812,0.761,-0.387,-0.999,sad
2.64,1132,3534,3239,2213,3278,0,2891,3245,1591,2552,0,2487,2582,1669,1571,3077,1.468,3.486,9.179,0.133,0.002,-0.018,-6.005,-13.532,-5.308,-0.619,0.509,-0.628,sad
2.65,1197,3615,3344,2418,3331,13,2823,3140,1527,2551,0,2479,2571,1671,1571,3055,1.604,3.426,9.194,0.146,0.013,-0.027,5.198,-4.827,15.546,-1.200,1.428,-0.333,sad
2.66,1277,3638,3365,2512,3329,81,2661,2891,0,23,0,0,0,0,0,183,1.516,3.589,9.316,0.155,0.004,-0.029,0.852,1.374,7.695,-0.329,0.275,-0.620,sad
2.67,1258,3667,3413,2559,3296,0,2449,2353,0,0,0,0,0,0,101,731,1.590,3.496,9.266,0.194,0.008,-0.030,-3.713,3.191,5.806,-1.239,0.321,0.182,sad
2.68,1197,3702,3445,2602,3222,0,2038,1787,0,0,0,0,0,0,531,1804,1.626,3.613,9.256,0.239,0.041,-0.035,0.328,-5.243,12.072,-1.678,-0.374,0.487,sad
2.69,1251,3718,3472,2638,3085,0,1477,1073,1576,2555,0,2469,2555,1673,1662,3098,1.690,3.759,9.124,0.288,0.047,-0.053,3.531,-4.190,9.596,-0.367,0.732,0.217,sad
2.70,1377,3748,3507,2656,2819,0,704,0,1587,2551,0,2480,2571,1669,1565,3065,1.506,3.912,9.378,0.435,0.027,-0.032,1.482,-4.657,11.255,-0.410,0.623,0.360,sad
2.71,1388,3760,3531,2652,2011,0,107,0,1517,2591,0,2446,2533,1709,1615,3095,0.462,5.760,8.985,0.531,0.056,-0.136,1.918,-3.512,10.606,-0.066,0.542,0.242,sad
2.72,1516,3763,3545,2614,1503,0,0,0,1525,2589,0,2445,2535,1684,1611,3091,1.358,4.456,9.491,0.802,-0.050,0.033,2.167,-3.287,9.424,-0.031,0.204,0.059,sad
2.73,1446,3520,3504,2491,846,0,0,0,1529,2575,0,2452,2535,1709,1617,3095,1.369,3.984,9.103,0.879,0.039,0.062,1.314,-3.426,10.072,-0.053,-0.057,-0.029,sad
2.74,1621,3728,3514,2404,592,0,0,0,1533,2587,7,2411,2537,1706,1609,3012,1.482,4.192,8.815,0.881,0.080,0.104,1.932,-2.974,9.285,0.051,-0.096,-0.076,sad
2.75,1653,3675,3465,2212,619,0,0,0,1542,2585,2,2495,2539,1705,1607,3093,1.508,4.372,8.995,0.933,0.151,0.147,2.490,-3.057,8.720,0.042,-0.012,-0.048,sad
2.76,1646,3477,3342,1923,343,0,0,0,1592,2553,0,2487,2568,1674,1576,3087,1.561,4.537,8.923,0.986,0.159,0.151,1.834,-2.974,9.416,0.024,0.037,-0.006,sad
2.77,1590,3269,3162,1607,19,0,0,0,1599,2550,0,2479,2571,1671,1577,3101,1.779,4.247,8.478,1.143,0.163,0.121,1.992,-3.043,9.194,0.006,0.104,0.040,sad
2.78,1513,2903,2853,1211,0,0,0,0,1606,2631,2,2483,2575,1673,1575,3103,1.700,4.515,8.741,1.454,0.146,0.079,1.975,-2.945,9.395,-0.003,0.141,0.032,sad
2.79,1603,2474,2685,1089,0,0,0,0,1603,2549,2,2477,2571,1659,1575,2973,2.112,5.066,9.392,1.734,0.146,-0.046,1.654,-2.914,9.661,-0.008,0.160,0.034,sad
2.80,1535,2114,2223,959,0,0,0,0,0,821,7,6,2397,0,3407,3945,1.140,5.186,9.498,2.177,-0.055,-0.141,2.174,-3.005,9.254,-0.020,0.139,0.098,sad
2.81,1591,1635,1410,662,0,0,0,0,0,795,0,0,2458,0,3411,3865,2.174,6.237,10.853,2.657,-0.310,-0.407,1.798,-3.079,9.658,-0.009,0.146,0.081,sad
2.82,1399,1106,0,158,0,0,0,0,3,826,5,7,2426,0,3367,3946,1.762,7.307,10.214,3.104,-0.280,-0.627,1.793,-3.069,9.570,-0.002,0.100,0.064,sad
2.83,1009,799,0,22,0,0,0,0,1,877,2,8,2557,0,3503,3963,1.935,8.545,9.747,2.975,-0.283,-0.958,1.798,-3.168,9.577,0.017,0.059,0.035,sad
2.84,486,471,0,0,0,0,0,0,11,871,94,24,2654,1,3624,4083,2.200,5.868,11.322,2.098,0.102,-1.421,1.877,-3.122,9.507,0.025,0.053,0.019,sad
2.85,0,176,0,0,0,0,0,0,0,940,5,1,2715,0,3671,4095,0.704,3.831,11.837,1.087,0.400,-1.574,1.925,-3.182,9.632,0.036,0.061,0.022,sad
2.86,0,0,0,0,0,0,0,0,0,943,0,0,2763,0,3679,4095,0.251,1.386,11.363,0.204,0.272,-1.857,1.875,-2.945,9.481,0.040,0.072,0.019,sad
2.87,0,0,0,0,0,0,0,0,2,919,0,0,2809,0,3700,4095,1.607,1.288,9.637,-0.201,0.290,-1.972,1.875,-3.060,9.438,0.029,0.047,0.016,sad
2.88,0,0,0,0,0,0,0,0,0,869,0,0,2827,0,3823,4095,3.048,3.206,9.905,-0.589,0.146,-1.763,1.899,-3.000,9.390,0.026,0.042,0.011,sad
2.89,0,0,0,0,0,0,0,0,0,791,0,0,2847,0,3729,4095,4.480,2.085,10.199,-1.083,0.103,-1.495,1.908,-2.959,9.388,0.014,0.059,0.022,sad
2.90,0,0,0,0,0,0,0,0,0,688,0,1,2857,0,3743,4095,4.956,2.354,8.382,-1.379,0.215,-1.193,1.863,-2.904,9.373,0.009,0.071,0.031,sad
2.91,0,0,0,0,0,0,0,0,0,675,0,11,2857,0,3749,4095,4.642,2.380,8.303,-1.596,0.160,-0.776,1.918,-2.950,9.459,-0.011,0.072,0.054,sad
2.92,0,0,0,0,0,0,0,0,0,584,0,0,2893,0,3763,4095,4.604,2.380,7.695,-1.744,0.065,-0.321,1.772,-3.012,9.347,-0.011,0.075,0.051,sad
2.93,0,0,0,0,0,0,0,0,0,502,7,7,2837,0,3689,4025,4.144,2.380,7.760,-1.768,-0.135,0.116,1.958,-3.050,9.524,0.011,0.093,0.051,sad
2.94,0,0,0,0,0,0,0,0,0,403,0,0,2643,0,3357,3661,3.740,2.878,8.337,-1.816,-0.300,0.478,1.781,-2.966,9.395,-0.008,0.061,0.053,sad
2.95,0,0,0,0,0,0,0,0,0,519,30,0,2612,0,3326,3480,3.194,3.282,8.938,-1.900,-0.437,0.776,1.796,-2.988,9.419,-0.012,0.071,0.065,sad
2.96,0,0,0,0,0,0,0,0,1614,2549,0,2487,2579,1677,1577,3101,2.456,3.519,9.170,-1.962,-0.435,0.983,2.011,-3.026,9.266,-0.024,0.135,0.059,sad
2.97,0,0,0,0,0,0,0,0,1617,2551,5,2476,2584,1687,1580,3108,1.317,3.888,9.618,-2.046,-0.601,1.116,1.812,-2.976,9.263,-0.028,0.168,0.064,sad
2.98,0,0,0,0,0,0,0,0,1611,2548,0,2485,2572,1670,1575,3103,1.037,4.549,11.066,-2.157,-0.713,1.120,1.671,-3.072,9.495,-0.020,0.159,0.072,sad
2.99,0,0,0,0,0,0,0,0,1613,2548,7,2484,2565,1669,1573,3103,0.752,4.884,11.662,-2.355,-0.675,1.047,1.887,-3.086,9.196,-0.046,0.208,0.091,sad
3.00,0,0,0,0,0,0,0,0,1613,2543,5,2484,2575,1669,1573,3097,-0.019,4.810,10.798,-2.384,-0.531,0.812,1.726,-3.065,9.385,-0.064,0.251,0.108,sad
3.01,0,0,0,0,0,0,0,0,43,618,10,63,2645,0,3769,4095,-0.263,5.148,10.788,-2.158,-0.442,0.557,1.856,-3.249,9.263,-0.047,0.189,0.100,sad
3.02,0,0,0,0,0,0,0,0,61,665,7,217,2591,2,3764,4095,-0.247,5.648,11.147,-1.961,-0.470,0.489,1.623,-3.179,9.503,-0.024,0.184,0.085,sad
3.03,0,0,0,0,0,0,0,0,61,665,7,217,2591,2,3764,4095,-0.338,6.127,11.349,-1.725,-0.565,0.472,1.623,-3.179,9.503,-0.024,0.184,0.085,sad
3.04,0,0,0,0,0,0,0,0,61,672,7,266,2479,0,3739,4095,-0.486,6.721,11.332,-1.473,-0.715,0.473,1.657,-3.184,9.474,-0.020,0.160,0.075,sad
3.05,0,0,0,0,0,0,0,0,61,687,17,333,2397,1,3644,4015,-0.524,7.360,11.322,-1.328,-0.802,0.424,1.587,-3.120,9.541,-0.024,0.135,0.078,sad
3.06,0,0,0,0,0,0,0,0,31,598,0,439,2233,1,3433,3755,-0.204,7.384,10.985,-1.187,-0.759,0.285,1.602,-3.084,9.436,-0.023,0.128,0.075,sad
3.07,0,0,0,0,0,0,0,0,31,633,145,466,2215,9,3435,3796,-0.769,8.875,11.665,-1.278,-0.991,0.112,1.585,-3.117,9.500,-0.023,0.118,0.074,sad
3.08,0,0,0,0,0,0,0,0,69,713,1113,649,2213,13,3375,3799,-0.117,10.032,11.978,-1.523,-1.077,-0.035,1.501,-3.124,9.486,-0.036,0.112,0.077,sad
3.09,0,0,0,0,0,0,0,0,47,671,1118,567,2008,0,3157,3481,-0.304,9.778,9.136,-2.060,-0.664,-0.340,1.539,-3.124,9.258,-0.041,0.120,0.080,sad
3.10,0,0,0,0,0,0,0,0,72,645,1169,590,1933,57,3097,3367,-1.211,8.337,5.310,-2.034,-0.432,-0.620,1.425,-3.112,9.392,-0.037,0.097,0.082,sad
3.11,0,0,0,0,0,0,0,0,53,787,1241,789,2078,16,3326,3699,-1.628,8.215,3.127,-1.660,-0.453,-0.937,1.477,-3.132,9.421,-0.035,0.093,0.089,sad
3.12,0,0,0,0,0,0,0,0,45,823,1527,814,2101,17,3363,3754,-1.530,8.715,2.830,-1.247,-0.830,-1.116,1.492,-3.127,9.445,-0.050,0.083,0.105,sad
3.13,0,0,0,0,0,0,0,0,57,792,959,942,2011,20,3228,3635,0.649,8.993,2.332,-0.884,-1.002,-1.079,1.355,-3.134,9.505,-0.064,0.079,0.110,sad
3.14,0,0,0,0,0,0,0,0,55,917,1456,924,2093,17,3336,3707,2.217,8.928,2.246,-0.503,-0.638,-0.899,1.769,-3.625,9.886,-0.069,0.061,0.106,sad
3.15,0,0,0,0,0,0,0,0,58,851,1691,1103,2091,22,3149,3621,2.389,8.382,2.509,-0.101,-0.184,-0.624,1.334,-3.215,9.467,-0.045,0.082,0.106,sad
3.16,0,0,0,0,0,0,0,0,103,999,1835,1241,2195,28,3428,3967,7.685,1.712,-0.939,1.099,-0.099,-0.034,1.338,-3.196,9.380,-0.055,0.075,0.103,sad
3.17,0,0,0,0,0,0,0,0,147,1169,1906,1271,2202,33,3327,3751,3.680,-0.048,12.914,0.419,0.553,0.158,1.480,-3.141,9.206,-0.082,0.065,0.128,sad
3.18,0,0,0,0,0,0,0,0,191,1135,1870,1599,2247,43,3281,3702,2.016,-0.563,7.084,1.033,0.194,0.464,1.551,-3.074,9.141,-0.113,0.076,0.160,sad
3.19,0,0,0,0,0,0,0,413,215,1159,1609,1715,2151,61,3021,3449,1.257,0.517,8.784,1.246,0.077,0.537,2.195,-3.225,8.717,-0.062,0.163,0.178,sad
3.20,0,0,0,0,0,0,363,1973,427,1326,1909,1941,2205,55,3117,3507,-0.385,1.341,10.068,1.641,-0.364,0.233,1.506,-3.074,9.184,-0.140,0.100,0.180,sad
3.21,0,0,0,0,395,0,695,2652,1609,2549,1241,2486,2570,1663,1573,3103,1.824,4.810,11.578,1.577,-0.586,0.044,1.326,-3.378,9.380,-0.160,0.166,0.134,sad
3.22,0,112,0,0,778,0,1383,2930,1598,2537,1527,2479,2572,1659,1567,3101,4.039,3.335,11.073,1.057,-0.592,-0.167,1.243,-3.479,9.349,-0.205,0.189,0.093,sad
3.23,0,661,0,0,833,0,1870,3071,1599,2543,1451,2484,2568,1645,1567,3101,4.808,2.332,8.231,0.381,0.740,-0.538,1.279,-3.558,9.565,-0.218,0.193,0.086,sad
3.24,0,1005,0,0,1109,0,2015,3183,2359,1880,2126,2939,999,46,791,3053,0.814,3.213,10.889,0.413,0.887,-0.469,1.324,-3.563,9.663,-0.261,0.163,0.070,sad
3.25,0,1439,0,0,1302,0,2154,3280,2827,1799,2183,3097,559,36,174,1880,2.969,3.443,9.486,0.350,0.967,-0.339,1.087,-2.950,9.699,-0.471,0.210,0.000,sad
3.26,0,1808,0,0,1683,0,2263,3357,2895,1461,2183,3167,317,33,3,1784,1.702,3.218,9.934,0.304,0.996,-0.352,1.326,-3.563,9.385,-0.604,0.245,-0.060,sad
3.27,0,2022,0,0,1947,0,2346,3413,3225,1013,2198,3365,33,4,1,1391,1.846,3.345,9.771,0.247,0.959,-0.325,1.331,-3.850,9.874,-0.871,0.325,-0.288,sad
3.28,0,2240,0,0,2080,0,2409,3453,3407,761,2024,3434,0,9,0,1273,1.597,3.273,9.833,0.187,0.723,-0.273,2.696,-4.633,9.701,-1.163,0.495,-0.403,sad
3.29,0,2455,144,0,2182,0,2501,3501,3435,739,2224,3468,0,0,0,1202,1.499,3.364,9.505,0.158,0.373,-0.148,1.662,-4.149,9.481,-1.250,0.623,-0.374,sad
3.30,0,2416,414,0,2113,0,2377,3376,1645,2555,1471,2491,2585,1687,1587,3101,1.413,3.213,9.625,0.062,0.163,-0.083,2.468,-5.578,10.082,-1.424,1.031,-0.261,sad
3.31,0,2729,799,0,2425,0,2660,3557,1617,2550,931,2483,2573,1661,1571,3099,1.501,3.112,9.383,0.059,0.137,-0.042,1.791,-2.037,10.022,-1.958,1.426,0.169,sad
3.32,0,2825,1149,0,2497,0,2733,3581,1607,2550,0,2484,2568,1660,1564,3100,1.367,3.002,9.436,0.090,0.126,-0.050,2.174,-4.745,10.120,-2.481,1.512,0.628,sad
3.33,0,2928,1562,301,2559,0,2808,3610,1594,2550,0,2487,2575,1619,1561,3103,1.513,3.132,9.419,0.131,0.062,-0.056,1.458,-6.151,11.021,-2.964,1.262,1.855,sad
3.34,10,2823,1697,411,2475,0,2694,3413,1593,2550,0,2483,2575,1669,1567,3101,1.487,3.251,9.431,0.095,0.022,-0.049,1.856,-7.381,9.787,-2.926,1.024,2.772,sad
3.35,144,3098,2012,577,2757,0,2937,3645,1591,2552,0,2485,2577,1663,1567,3107,1.460,3.170,9.428,0.079,0.008,-0.030,0.014,-7.489,8.722,-2.697,0.972,2.804,sad
3.36,157,3153,2119,707,2863,0,3004,3652,1589,2553,0,2485,2582,1663,1621,3197,1.537,3.050,9.328,0.110,-0.001,-0.023,0.122,-6.184,9.409,-1.406,1.036,2.908,sad
3.37,177,3214,2242,799,2928,0,3035,3658,1589,2547,0,2485,2577,1669,1567,3103,1.492,3.184,9.390,0.115,0.002,-0.024,3.893,-4.041,14.418,-0.167,0.625,2.485,sad
3.38,203,3246,2357,830,2960,0,3085,3659,1565,2543,0,2474,2566,1681,1579,3097,1.563,3.156,9.359,0.090,0.004,-0.011,8.894,-1.223,8.396,0.850,0.217,-0.727,sad
3.39,229,3280,2447,928,2991,0,3099,3646,1561,2558,28,2471,2552,1692,1583,3099,1.511,2.962,9.313,0.108,0.010,-0.020,2.394,-1.223,8.016,0.925,-0.197,-1.669,sad
3.40,273,3312,2534,1033,3058,0,3099,3648,1589,2543,0,2485,2578,1669,1567,3035,1.563,3.033,9.234,0.169,0.002,-0.037,-0.364,-1.765,10.458,1.616,-0.534,-1.444,sad
3.41,315,3343,2640,1111,3097,0,3101,3623,1582,2553,0,2364,2573,1673,1572,3101,1.544,3.287,9.313,0.174,-0.018,-0.049,-1.951,-1.460,10.022,1.920,-0.780,-1.072,sad
3.42,351,3317,2719,1174,3091,0,3097,3550,1583,2642,0,2485,2575,1663,1573,3107,1.547,3.309,9.352,0.137,0.010,-0.037,-1.255,-1.788,9.792,2.242,-1.274,-0.278,sad
3.43,373,3408,2790,1184,3167,0,3104,3603,0,0,0,0,0,0,8,181,1.551,3.280,9.337,0.112,0.006,-0.034,0.048,-2.749,10.398,2.502,-1.621,-0.123,sad
3.44,444,3435,2842,1356,3218,0,3118,3607,0,0,66,0,0,0,0,155,1.551,3.345,9.278,0.088,0.011,-0.024,-0.045,-3.019,10.300,2.541,-1.746,-0.183,sad
3.45,435,3461,2891,1409,3249,0,3122,3606,1587,2589,0,2485,2577,1663,1567,3103,1.477,3.381,9.376,0.071,-0.002,-0.023,-0.017,-3.598,11.212,2.476,-1.851,-0.303,sad
3.46,467,3382,2925,1367,3247,0,3134,3525,1595,2595,0,2487,2579,1663,1566,3101,1.446,3.354,9.404,0.070,-0.003,-0.010,0.065,-3.812,11.028,2.388,-1.504,-0.331,sad
3.47,556,3507,2975,1447,3299,0,3130,3583,1593,2551,0,2488,2579,1669,1565,3103,1.501,3.318,9.280,0.076,0.015,-0.013,-0.448,-3.785,10.728,2.125,-1.457,-0.324,sad
3.48,593,3530,3014,1449,3330,0,3125,3568,1620,2554,0,2479,2573,1745,1574,3101,1.559,3.237,9.261,0.102,0.006,-0.025,0.249,-4.980,10.542,1.280,-1.768,-0.544,sad
3.49,624,3473,3047,1424,3341,0,3120,3491,0,0,0,0,0,0,0,75,1.460,3.268,9.182,0.118,-0.006,-0.018,1.568,-8.384,13.994,0.715,-1.571,-1.078,sad
3.50,670,3573,3094,1573,3366,0,3107,3518,0,28,0,0,0,0,0,103,1.528,3.223,9.203,0.149,-0.016,-0.030,0.953,-10.427,15.007,0.780,-1.447,-1.404,sad
3.51,672,3567,3030,1765,3324,0,2885,3475,6,0,0,0,0,0,0,75,1.547,3.323,9.261,0.182,-0.025,-0.045,-2.775,-12.852,12.143,1.235,-1.064,-1.682,sad
3.52,762,3632,3221,1932,3407,0,3051,3408,1587,0,0,0,0,0,0,75,1.592,3.378,9.182,0.193,-0.031,-0.058,-4.855,-13.774,4.549,1.443,-0.440,-1.129,sad
3.53,815,3663,3286,2094,3383,0,2943,3263,0,0,0,0,0,0,0,67,1.609,3.345,9.131,0.195,-0.015,-0.051,-7.003,-13.065,0.936,1.137,-0.401,-0.776,sad
3.54,933,3680,3347,2293,3445,0,2928,3161,0,0,0,0,0,0,0,22,1.626,3.373,9.184,0.207,-0.004,-0.076,-4.058,-11.583,-6.639,-1.014,0.654,-0.881,sad
3.55,1099,3709,3405,2432,3450,0,2788,2928,0,0,0,0,0,43,0,0,1.628,3.531,9.222,0.223,0.011,-0.094,4.987,-6.476,19.398,-0.971,1.245,-0.668,sad
3.56,1184,3753,3446,2546,3439,0,2608,2489,0,0,0,0,0,0,0,236,1.683,3.625,9.244,0.223,0.019,-0.062,3.036,-0.816,15.826,-0.119,0.711,-0.711,sad
3.57,1202,3776,3488,2645,3395,0,2325,2004,0,0,0,0,0,0,0,885,1.686,3.577,9.369,0.204,0.016,-0.059,-2.121,-0.199,8.981,-0.857,0.804,0.303,sad
3.58,1296,3810,3523,2705,3329,0,1858,1384,0,0,0,0,0,0,423,1772,1.662,3.634,9.194,0.248,0.037,-0.047,-1.362,-1.882,9.572,-1.017,0.176,0.477,sad
3.59,1445,3824,3557,2694,3187,0,1245,5,1565,2567,0,2475,2567,1682,1581,3099,1.923,3.888,8.902,0.356,0.061,-0.030,0.498,-3.622,10.068,-1.197,-0.562,0.122,sad
3.60,1573,3829,3583,2741,2919,0,546,0,0,0,0,0,38,0,1237,2751,1.501,3.929,9.033,0.382,0.082,-0.047,1.389,-3.168,8.080,-0.646,-0.034,0.038,sad
3.61,1428,3649,3392,2598,2089,0,150,0,1567,2557,0,2469,2566,1681,1580,3101,1.621,3.510,8.799,0.338,0.069,-0.187,1.956,-3.800,10.997,-0.020,0.833,0.278,sad
3.62,1687,3843,3631,2806,1603,0,0,0,1553,2569,0,2463,2543,1693,1605,3096,1.817,3.845,9.139,0.591,0.051,-0.002,1.255,-3.326,10.233,-0.068,0.688,0.179,sad
3.63,1809,3845,3632,2778,1134,0,0,0,1591,2554,0,2485,2535,1687,1595,3103,1.535,4.099,8.899,0.755,0.125,0.100,1.231,-3.675,10.834,-0.057,0.226,0.038,sad
3.64,1933,3827,3633,2768,823,0,0,0,1571,2568,0,2365,2555,1678,1583,3099,1.554,4.154,8.820,0.836,0.203,0.128,1.618,-3.110,9.622,-0.024,0.095,-0.014,sad
3.65,2034,3787,3613,2715,654,0,0,0,1573,2557,0,2472,2543,1680,1583,3103,1.513,4.257,8.882,0.890,0.261,0.143,1.913,-3.191,9.349,0.002,0.147,0.028,sad
3.66,2114,3711,3583,2599,273,0,0,0,1595,2551,7,2485,2571,1671,1579,3107,1.621,4.384,8.818,0.996,0.332,0.171,1.911,-3.191,9.297,-0.014,0.237,0.096,sad
3.67,2185,3500,3529,2503,144,0,0,0,1643,2547,74,2479,2575,1691,1567,3107,1.755,4.724,8.756,1.082,0.341,0.163,1.573,-3.036,9.503,-0.032,0.120,0.047,sad
3.68,2335,3187,3469,2319,0,0,0,0,1599,2549,12,2485,2527,1661,1570,3107,1.492,4.764,8.823,1.203,0.369,0.141,1.597,-3.112,9.562,-0.022,0.085,0.051,sad
3.69,2382,2834,3311,2102,0,0,0,0,1599,2546,15,2495,2573,1669,1567,3101,1.607,4.875,8.684,1.411,0.339,0.145,1.614,-3.148,9.421,-0.039,0.096,0.049,sad
3.70,2398,2511,2869,1798,0,0,0,0,1606,2568,12,2483,2559,1669,1529,3099,1.118,4.776,9.536,1.714,0.361,0.059,1.793,-3.206,9.409,0.018,0.121,0.053,sad
3.71,2271,2162,2550,1425,0,0,0,0,1609,2503,15,2486,2572,1663,1568,3100,1.575,5.234,9.452,2.216,0.281,-0.143,1.769,-3.069,9.261,0.009,0.128,0.051,sad
3.72,1989,1409,1815,1120,0,0,0,0,1611,2547,23,2471,2569,1669,1571,3102,1.128,6.397,11.073,2.657,-0.074,-0.387,1.731,-3.069,9.409,-0.002,0.138,0.043,sad
3.73,1697,988,385,707,0,0,0,0,1618,2547,12,2485,2577,1720,1587,3101,2.004,6.584,9.120,3.118,0.166,-0.811,1.611,-3.060,9.395,-0.011,0.127,0.039,sad
3.74,1426,329,0,119,0,0,0,0,1612,2600,563,2485,2572,1663,1571,3102,1.494,7.570,8.878,3.033,0.873,-1.189,1.585,-3.230,9.464,-0.002,0.148,0.054,sad
3.75,481,16,0,0,0,0,0,0,1588,2547,624,2483,2571,1661,1571,3104,0.646,7.640,9.946,2.267,1.515,-1.597,1.518,-3.055,9.486,0.011,0.132,0.048,sad
3.76,0,0,0,0,0,0,0,0,1517,2547,719,2485,2572,1727,1573,3102,0.611,4.846,12.196,0.498,0.760,-1.693,1.580,-3.132,9.369,0.011,0.122,0.038,sad
3.77,0,0,0,0,0,0,0,0,1612,2547,734,2479,2603,1658,1573,3104,3.891,5.188,7.173,-0.212,0.371,-1.385,1.563,-3.144,9.491,0.016,0.113,0.020,sad
3.78,0,0,0,0,0,0,0,0,1611,2547,749,2479,2572,1662,1572,3101,3.879,2.875,7.745,-0.829,0.118,-0.970,1.597,-3.110,9.476,0.023,0.110,0.024,sad
3.79,0,0,0,0,0,0,0,0,1619,2552,790,2492,2589,1691,1583,3109,3.634,2.995,7.934,-1.368,-0.295,-0.430,1.575,-3.060,9.395,0.017,0.058,0.035,sad
3.80,0,0,0,0,0,0,0,0,22,794,1103,889,2597,3,3571,3943,3.079,2.911,7.295,-1.609,-0.476,0.076,1.518,-3.045,9.373,0.004,0.045,0.042,sad
3.81,0,0,0,0,0,0,0,0,0,842,1123,866,2541,0,3463,3832,2.732,3.275,7.803,-1.686,-0.474,0.292,1.487,-3.057,9.419,0.000,0.052,0.047,sad
3.82,0,0,0,0,0,0,0,0,16,741,1090,879,2469,7,3369,3767,2.344,3.836,8.552,-1.836,-0.527,0.453,1.504,-3.017,9.474,-0.008,0.063,0.061,sad
3.83,0,0,0,0,0,0,0,0,46,649,755,761,2223,55,3110,3443,1.889,4.154,9.167,-2.012,-0.569,0.585,1.537,-3.017,9.414,-0.031,0.078,0.079,sad
3.84,0,0,0,0,0,0,0,0,33,681,1144,819,2524,7,3577,4044,1.264,4.413,9.371,-2.185,-0.654,0.695,1.571,-3.033,9.337,-0.035,0.093,0.080,sad
3.85,0,0,0,0,0,0,0,0,24,680,1136,855,2414,9,3405,3925,1.030,4.657,9.464,-2.284,-0.726,0.766,1.597,-3.112,9.416,-0.034,0.086,0.086,sad
3.86,0,0,0,0,0,0,0,0,30,639,1208,844,2396,10,3420,3804,1.116,4.702,9.287,-2.330,-0.724,0.842,1.650,-3.220,9.364,-0.028,0.083,0.082,sad
3.87,0,0,0,0,0,0,0,0,27,649,1248,911,2471,9,3547,3963,1.015,4.757,9.364,-2.326,-0.687,0.903,1.398,-3.187,9.493,-0.022,0.053,0.065,sad
3.88,0,0,0,0,0,0,0,0,55,699,1333,949,2505,17,3597,3997,0.953,4.901,9.723,-2.313,-0.677,0.971,1.626,-3.146,9.373,-0.022,0.036,0.057,sad
3.89,0,0,0,0,0,0,0,0,55,702,1328,983,2521,0,3542,3937,0.850,5.255,10.563,-2.341,-0.690,1.013,1.513,-3.184,9.488,-0.008,0.030,0.050,sad
3.90,0,0,0,0,0,0,0,0,63,856,1387,1047,2607,23,3669,4087,0.567,5.389,10.985,-2.388,-0.710,1.030,1.487,-3.179,9.402,0.004,0.032,0.039,sad
3.91,0,0,0,0,0,0,0,0,75,734,1292,1013,2423,0,3241,3427,0.311,5.612,11.396,-2.445,-0.717,1.012,1.532,-3.103,9.390,-0.006,0.029,0.043,sad
3.92,0,0,0,0,0,0,0,0,1465,2747,959,2687,2717,2073,2291,3273,0.146,5.531,11.265,-2.483,-0.693,0.939,1.578,-3.024,9.349,-0.011,0.044,0.057,sad
3.93,0,0,0,0,0,0,0,0,1613,2543,1205,2485,2571,1669,1577,3113,-0.096,5.006,9.890,-2.320,-0.646,0.747,1.417,-3.170,9.495,-0.038,0.077,0.049,sad
3.94,0,0,0,0,0,0,0,0,77,1035,1904,1419,2751,21,3766,4095,0.096,5.116,9.675,-1.922,-0.696,0.592,1.482,-3.148,9.335,-0.047,0.022,0.070,sad
3.95,0,0,0,0,0,0,0,0,75,1163,1947,1455,2787,23,3763,4095,0.285,5.511,9.993,-1.638,-0.829,0.565,1.465,-3.110,9.428,-0.041,0.031,0.079,sad
3.96,0,0,0,0,0,0,0,0,1624,1061,1392,2495,2597,1717,1589,4084,0.371,5.997,10.003,-1.322,-1.078,0.580,1.633,-3.112,9.268,-0.067,0.103,0.097,sad
3.97,0,0,0,0,0,0,0,0,97,1205,2011,1533,2825,39,3775,4095,1.075,7.336,10.065,-0.893,-1.321,0.598,1.391,-3.220,9.436,-0.078,0.032,0.112,sad
3.98,0,0,0,0,0,0,0,0,125,1261,2121,1523,2862,31,3773,4095,1.262,10.297,12.289,-1.032,-1.296,0.564,1.329,-3.249,9.512,-0.060,0.029,0.108,sad
3.99,0,0,0,0,0,0,0,0,217,1398,2055,1589,2926,31,3829,4093,-0.323,10.546,11.621,-1.552,-0.656,0.546,1.434,-3.292,9.476,-0.066,0.025,0.107,sad
4.00,0,0,0,0,0,0,0,0,255,1505,2073,1743,2972,57,3754,4095,-2.061,9.275,6.776,-1.535,-1.084,0.696,1.468,-3.148,9.299,-0.102,0.024,0.124,sad
4.01,0,0,0,0,0,0,0,0,364,1685,2142,2063,3035,45,3725,4077,0.163,8.985,2.851,-0.962,-0.411,0.627,1.451,-3.316,9.459,-0.095,0.029,0.134,sad
4.02,0,0,0,0,0,0,0,0,489,1944,2157,2175,3091,47,3657,4023,-1.824,9.278,2.085,-0.342,0.041,0.359,1.381,-3.424,9.340,-0.097,0.006,0.117,sad
4.03,0,0,0,0,0,0,0,0,718,1919,2178,2221,3087,101,3615,3933,1.290,10.221,-0.783,1.161,0.654,0.517,1.410,-3.335,9.481,-0.090,0.000,0.090,sad
4.04,0,0,0,0,0,0,0,0,1005,2003,2175,2456,3133,48,3403,3865,4.159,3.486,17.107,0.396,0.701,0.725,1.549,-3.393,9.340,-0.112,0.017,0.105,sad
4.05,0,0,0,0,0,0,0,41,1268,2009,2193,2566,3164,47,3259,3870,0.187,-2.004,5.950,0.698,0.234,0.515,1.468,-3.426,9.354,-0.106,0.018,0.085,sad
4.06,0,0,0,0,0,0,255,1465,1723,2087,2198,2739,3167,47,2567,3719,-2.138,1.015,11.413,1.278,0.188,-0.109,1.446,-3.431,9.290,-0.129,0.029,0.074,sad
4.07,0,0,0,0,42,0,533,2314,2197,2187,2144,2888,2959,44,1978,3404,1.111,1.896,9.802,1.535,-0.031,-0.315,1.511,-3.500,9.390,-0.133,0.057,0.066,sad
4.08,0,0,0,0,619,0,1073,2783,2501,2328,2195,3039,2373,45,1395,2793,2.392,3.347,9.902,1.307,-0.140,-0.172,1.441,-3.287,9.443,-0.208,0.095,0.050,sad
4.09,0,115,0,0,930,0,1777,3014,2617,2303,2203,3101,2079,47,813,2381,7.882,7.377,11.145,0.945,0.715,-0.536,1.609,-3.558,9.311,-0.220,0.128,0.050,sad
4.10,0,775,0,0,1075,0,2035,3150,2808,2361,2321,3165,1351,69,425,1704,0.946,4.362,11.973,0.531,0.921,-0.466,1.963,-4.889,9.299,-0.110,0.117,0.094,sad
4.11,0,1355,0,0,1360,0,2179,3201,2983,1891,2218,3193,727,4,3,1513,1.958,3.991,10.113,0.369,1.030,-0.492,1.132,-3.857,9.048,-0.549,0.204,-0.093,sad
4.12,0,1776,0,0,1639,0,2256,3243,3089,1833,2229,3346,475,3,0,1215,1.190,3.316,9.938,0.331,0.857,-0.331,1.085,-3.596,9.187,-0.632,0.276,-0.151,sad
4.13,80,2013,0,0,1843,0,2350,3278,3208,1651,2239,3436,120,5,13,925,1.149,3.220,9.910,0.229,0.673,-0.262,0.857,-3.833,8.248,-0.802,0.199,-0.246,sad
4.14,215,2247,0,0,1984,0,2421,3264,3240,1298,2270,3453,0,1,0,855,1.669,3.261,9.457,0.124,0.203,-0.095,2.485,-3.620,9.469,-1.192,0.463,-0.309,sad
4.15,318,2512,0,0,2107,0,2511,3381,1647,2547,1579,2488,2579,1673,1575,3103,1.360,3.062,9.414,0.149,0.133,-0.083,1.822,-3.706,9.369,-1.433,0.559,-0.322,sad
4.16,414,2685,365,0,2256,0,2589,3434,1611,2566,1550,2469,2553,1677,1583,3124,1.434,3.053,9.335,0.207,0.108,-0.128,1.611,-4.336,9.124,-1.817,0.912,-0.269,sad
4.17,463,2850,932,0,2427,0,2687,3506,1590,2555,1215,2536,2556,1675,1577,3099,1.245,3.158,9.536,0.226,0.038,-0.114,1.578,-4.219,9.337,-2.451,1.157,0.213,sad
4.18,570,2993,1567,251,2559,0,2778,3557,1658,2553,148,2476,2567,1669,1572,3101,1.245,3.395,9.565,0.201,-0.015,-0.069,0.350,-4.707,11.990,-2.854,0.944,0.586,sad
4.19,659,3091,1888,548,2667,0,2880,3599,1587,2553,0,2476,2569,1670,1572,3101,1.441,3.378,9.457,0.135,-0.011,-0.038,1.173,-6.235,11.224,-3.207,0.930,1.680,sad
4.20,717,3162,2081,624,2789,0,2965,3622,1581,2551,0,2479,2569,1671,1573,3101,1.477,3.249,9.357,0.152,-0.029,-0.036,1.657,-8.217,11.815,-3.457,0.651,2.342,sad
4.21,752,3211,2219,787,2853,0,3047,3633,1581,2552,0,2490,2571,1670,1573,3107,1.458,3.431,9.392,0.119,-0.032,-0.014,0.893,-7.987,8.528,-3.289,0.511,2.538,sad
4.22,719,3248,2342,832,2951,0,3105,3609,1579,2553,69,2479,2571,1705,1575,3101,1.472,3.450,9.397,0.078,-0.022,0.006,0.972,-5.571,12.646,-1.102,0.721,2.853,sad
4.23,674,3285,2414,824,3029,0,3144,3635,1587,2552,0,2485,2590,1672,1568,3103,1.475,3.364,9.311,0.046,-0.013,0.027,6.024,-1.156,11.945,0.831,0.028,1.173,sad
4.24,651,3312,2459,831,3105,0,3154,3625,1591,2551,0,2450,2577,1661,1568,3113,1.499,3.259,9.304,0.047,0.003,0.022,5.650,-1.207,6.596,1.036,0.074,0.705,sad
4.25,671,3345,2512,845,3161,0,3165,3605,1589,2551,43,2551,2577,1669,1571,3110,1.468,3.168,9.275,0.071,-0.003,0.010,4.106,-1.422,8.188,1.129,-0.382,-0.154,sad
4.26,742,3369,2559,899,3208,0,3165,3569,1591,2551,0,2539,2577,1663,1567,3093,1.458,3.227,9.304,0.093,-0.018,-0.005,2.021,-1.791,9.407,1.779,-0.688,-0.691,sad
4.27,753,3404,2640,1033,3248,0,3180,3551,1591,2551,0,2479,2579,1663,1567,3103,1.575,3.316,9.210,0.111,-0.020,-0.016,0.725,-1.939,9.333,2.034,-0.844,-0.751,sad
4.28,799,3429,2714,1089,3280,0,3185,3541,1590,2551,0,2485,2579,1669,1567,3103,1.537,3.335,9.266,0.106,-0.011,-0.017,-0.297,-2.215,9.823,2.445,-1.025,-0.592,sad
4.29,815,3463,2768,1153,3312,0,3191,3523,1591,2549,0,2477,2579,1676,1565,3103,1.535,3.290,9.275,0.114,-0.019,-0.020,-0.314,-3.012,10.314,2.704,-1.191,-0.425,sad
4.30,898,3495,2845,1232,3343,0,3193,3490,1591,2635,0,2487,2579,1663,1567,3103,1.525,3.464,9.292,0.121,-0.026,-0.017,0.093,-3.421,10.412,2.791,-1.246,-0.431,sad
4.31,943,3521,2890,1313,3374,0,3201,3487,1592,2550,0,2485,2577,1663,1564,3101,1.504,3.424,9.304,0.102,-0.042,-0.020,0.357,-3.886,11.054,2.779,-1.343,-0.578,sad
4.32,967,3554,2942,1361,3392,0,3200,3461,1591,2548,0,2486,2578,1689,1565,3107,1.568,3.354,9.278,0.108,-0.029,-0.015,0.017,-3.948,11.633,2.680,-1.399,-0.629,sad
4.33,994,3579,2987,1447,3422,0,3193,3410,1589,2551,0,2485,2577,1670,1572,3107,1.537,3.383,9.282,0.123,-0.024,-0.022,-0.153,-3.725,11.025,2.525,-1.238,-0.575,sad
4.34,1008,3621,3037,1535,3439,0,3175,3344,1589,2551,0,2473,2648,1663,1567,3103,1.528,3.452,9.256,0.126,-0.038,-0.026,-1.068,-4.135,10.886,1.823,-1.413,-0.335,sad
4.35,1037,3638,3107,1583,3463,0,3163,3254,1644,2551,0,2484,2578,1663,1568,3103,1.580,3.364,9.201,0.135,-0.038,-0.031,0.373,-6.278,12.301,1.070,-1.699,-0.400,sad
4.36,1072,3659,3152,1649,3481,0,3147,3125,1588,2547,23,2484,2579,1661,1567,3103,1.587,3.440,9.246,0.150,-0.041,-0.026,0.646,-8.681,14.758,0.984,-1.645,-0.533,sad
4.37,1037,3600,3210,1587,3451,0,3088,2816,1589,2568,0,2484,2575,1663,1587,3103,1.721,3.460,9.110,0.157,-0.045,-0.029,-0.934,-11.911,15.842,1.616,-1.700,-0.803,sad
4.38,1124,3706,3264,1877,3514,0,3049,2859,1640,2551,0,2485,2577,1669,1568,3103,1.755,3.603,9.096,0.159,-0.050,-0.040,-4.274,-11.540,8.205,1.886,-1.533,-1.091,sad
4.39,1198,3728,3312,2070,3536,0,3007,2775,1589,2549,0,2485,2577,1663,1568,3103,1.724,3.431,9.057,0.205,-0.049,-0.050,-5.066,-12.380,5.306,1.618,-1.164,-1.152,sad
4.40,1280,3767,3391,2250,3553,0,2912,2608,1582,2550,17,2485,2581,1656,1580,3103,1.743,3.515,9.124,0.269,-0.063,-0.067,-6.012,-15.653,-1.365,0.905,0.022,-1.352,sad
4.41,1383,3801,3438,2381,3568,0,2739,2270,1591,2551,0,2485,2579,1663,1567,3107,1.659,3.428,9.112,0.281,-0.074,-0.058,-0.529,-15.960,-7.096,-1.483,0.384,-1.418,sad
4.42,1461,3610,3277,2304,3355,0,2323,1565,1532,2551,0,2487,2577,1655,1567,3102,1.528,3.563,9.270,0.279,-0.070,-0.064,2.014,-0.905,13.338,-1.419,1.332,-0.853,sad
4.43,1882,3855,3515,2581,3529,0,2128,734,0,0,0,0,0,0,0,465,1.915,3.912,9.041,0.349,-0.044,-0.047,1.123,0.919,7.312,-0.708,0.474,-0.709,sad
4.44,2155,3878,3568,2655,3434,0,1601,0,1577,2556,0,2477,2571,1673,1576,3113,1.755,3.716,9.227,0.365,-0.042,-0.050,-1.123,-1.750,12.280,-1.273,0.961,0.171,sad
4.45,2361,3895,3603,2736,3216,0,766,0,1565,2557,0,2472,2557,1679,1581,3111,1.659,3.950,9.139,0.466,-0.055,-0.057,-1.982,-1.585,11.322,-1.309,0.396,0.164,sad
4.46,2509,3907,3628,2789,2473,0,192,0,0,0,99,0,0,0,531,2285,1.800,2.756,9.100,0.305,-0.017,-0.203,-0.177,-2.842,11.420,-1.579,-0.358,0.237,sad
4.47,2666,3911,3636,2794,1808,0,129,0,0,0,0,0,0,0,1017,2841,1.863,4.190,9.036,0.797,-0.025,0.005,2.959,-3.740,9.819,-1.403,-0.353,0.291,sad
4.48,2800,3921,3647,2736,1585,0,0,0,1583,2552,0,2479,2571,1672,1574,3101,1.951,4.266,8.952,0.902,0.075,0.038,6.443,-7.338,9.196,-0.423,0.981,0.305,sad
4.49,2897,3905,3648,2655,1302,0,0,0,1519,2581,0,2447,2532,1702,1608,3093,1.767,4.238,8.677,1.017,0.124,0.051,0.302,-3.977,11.583,-0.300,1.134,0.426,sad
4.50,3009,3891,3637,2498,1111,0,0,0,0,0,0,0,261,0,1367,2979,0.393,4.712,8.286,1.190,0.296,0.075,0.766,-3.247,10.623,-0.408,0.948,0.436,sad
4.51,3136,3851,3605,2384,697,0,0,0,1553,2571,0,2462,2549,1693,1592,3079,2.093,4.647,8.717,1.240,0.228,0.084,0.314,-3.642,10.360,-0.460,0.458,0.317,sad
4.52,3239,3702,3529,2152,559,0,0,0,1589,2551,12,2479,2572,1674,1575,3102,1.642,4.764,8.562,1.395,0.305,0.112,0.804,-3.464,9.615,-0.377,0.288,0.309,sad
4.53,3278,3065,3205,1856,253,0,0,0,23,278,0,651,428,0,2024,3785,2.313,5.169,8.538,1.589,0.446,0.096,1.697,-3.189,9.586,-0.239,0.458,0.426,sad
4.54,3386,2811,2912,1556,0,0,0,0,19,346,12,827,407,0,1982,3833,1.233,4.865,8.882,1.933,0.462,0.072,1.499,-3.663,9.687,-0.231,0.382,0.379,sad
4.55,3395,2373,2416,1207,0,0,0,0,51,429,12,1241,583,1,2253,3929,1.867,5.468,9.206,2.338,0.462,-0.181,1.123,-3.905,9.823,-0.209,0.171,0.244,sad
4.56,3359,1483,1033,529,0,0,0,0,105,427,46,1625,679,7,2397,4049,1.796,5.497,10.269,2.898,0.397,-0.690,1.166,-3.634,9.483,-0.156,0.101,0.139,sad
4.57,3106,1089,7,177,0,0,0,0,89,403,23,1722,761,3,2605,4067,2.174,6.680,9.500,3.449,0.518,-1.166,1.233,-3.508,9.462,-0.114,0.064,0.125,sad
4.58,2451,560,0,0,0,0,0,0,117,427,1461,1995,841,27,2761,4094,2.298,9.143,8.215,4.188,0.755,-1.475,1.164,-3.527,9.378,-0.049,0.056,0.088,sad
4.59,1558,34,0,0,0,0,0,0,109,356,1563,2283,1067,38,2969,4095,2.040,8.653,7.439,4.038,0.949,-1.836,1.010,-3.426,9.328,-0.035,-0.010,0.048,sad
4.60,720,0,0,0,0,0,0,0,121,397,1691,2375,1183,31,3098,4095,-0.227,9.622,15.237,2.501,0.429,-1.725,1.020,-3.524,9.455,-0.039,-0.044,0.036,sad
4.61,0,0,0,0,0,0,0,0,102,679,1876,2439,1401,25,3205,4095,4.223,0.172,14.557,-0.649,-0.268,-2.143,1.061,-3.512,9.500,0.013,0.005,0.027,sad
4.62,0,0,0,0,0,0,0,0,120,777,1870,2471,1525,30,3229,4015,3.575,0.393,9.704,-0.888,-0.139,-1.375,1.073,-3.371,9.206,0.010,-0.007,0.029,sad
4.63,0,0,0,0,0,0,0,0,125,850,1988,2505,1621,35,3251,4069,5.116,1.669,10.238,-1.616,-0.682,-0.723,1.132,-3.630,9.546,0.028,-0.006,0.019,sad
4.64,0,0,0,0,0,0,0,0,163,999,1955,2495,1714,39,3237,4027,4.791,2.512,10.175,-2.540,-0.625,0.016,1.030,-3.579,9.373,0.052,-0.030,-0.015,sad
4.65,0,0,0,0,0,0,0,0,157,1055,1881,2365,1711,63,2973,3647,2.514,1.781,7.678,-2.879,-0.648,0.445,1.173,-3.421,9.232,0.064,0.005,-0.009,sad
4.66,0,0,0,0,0,0,0,0,182,1177,2065,2568,1963,40,3308,4095,2.023,2.662,9.036,-3.058,-0.924,0.711,1.118,-3.395,9.426,0.060,0.024,0.002,sad
4.67,0,0,0,0,0,0,0,0,152,1223,2083,2605,2021,37,3292,4095,1.465,3.124,10.072,-3.210,-0.977,0.768,1.123,-3.417,9.383,0.052,0.053,0.026,sad
4.68,0,0,0,0,0,0,0,0,169,1196,2147,2687,2133,28,3253,4095,0.836,4.032,10.743,-3.546,-1.161,0.822,1.080,-3.500,9.378,0.045,0.058,0.039,sad
4.69,0,0,0,0,0,0,0,0,203,1303,2152,2877,2195,42,3215,4095,0.864,4.836,11.037,-3.634,-1.241,0.909,1.041,-3.445,9.416,0.040,0.067,0.047,sad
4.70,0,0,0,0,0,0,0,0,262,1304,2157,2903,2215,45,3177,4082,1.705,6.041,12.658,-3.601,-1.163,1.162,1.413,-3.740,9.634,0.026,0.059,0.060,sad
4.71,0,0,0,0,0,0,0,0,361,1373,2178,3032,2299,47,3169,4057,1.355,7.266,14.119,-3.637,-0.943,1.585,1.018,-3.419,9.395,0.031,0.057,0.049,sad
4.72,0,0,0,0,0,0,0,0,501,1404,2185,3133,2345,45,3143,4055,-0.704,6.807,12.282,-3.231,-0.888,1.699,-0.570,-2.801,9.392,-0.028,-0.006,0.033,sad
4.73,0,0,0,0,0,0,0,0,601,1445,2188,3181,2361,51,3094,4045,-0.108,9.115,12.771,-2.480,-0.793,1.390,0.915,-3.455,9.926,0.044,0.040,0.049,sad
4.74,0,0,0,0,0,0,0,0,782,1636,2193,3257,2367,43,2985,4014,0.381,12.481,15.081,-2.266,-0.291,1.015,0.678,-3.232,8.914,-0.013,0.027,0.052,sad
4.75,0,0,0,0,0,0,0,0,1011,1661,2106,3077,2250,41,2513,3531,-2.073,14.832,13.953,-2.585,-0.659,0.537,0.965,-3.496,9.589,-0.020,0.025,0.062,sad
4.76,0,0,0,0,0,0,0,0,1273,1907,2142,3192,2301,49,2441,3794,-2.861,15.807,6.661,-2.619,-1.421,0.420,1.130,-3.440,9.483,-0.036,-0.004,0.045,sad
4.77,0,0,0,0,0,0,0,0,1775,1990,2218,3350,2393,30,2091,3824,-2.334,19.051,-5.001,-1.961,-1.219,0.980,0.874,-3.314,9.414,-0.102,-0.063,0.030,sad
4.78,0,0,0,0,0,0,0,0,2314,2155,2203,3430,2363,41,1917,3701,-2.665,12.189,-8.856,0.240,0.186,0.720,1.104,-3.467,9.419,-0.095,-0.032,0.024,sad
4.79,0,0,0,0,0,0,0,0,2460,2159,2206,3475,2491,47,1735,3559,2.243,8.976,6.500,1.650,1.115,0.183,1.109,-3.383,9.294,-0.107,-0.032,0.027,sad
4.80,0,0,0,0,0,0,0,0,2785,2319,2208,3507,2329,11,1348,3179,3.656,-0.804,13.645,0.721,0.176,1.043,1.219,-3.555,9.170,-0.171,0.011,0.029,sad
4.81,0,0,0,0,0,0,210,1811,3038,2360,2218,3533,2126,44,804,2275,-3.701,-3.134,9.220,2.263,-0.267,0.221,1.130,-3.666,9.390,-0.222,0.054,0.022,sad
4.82,0,0,0,0,186,0,624,2810,3134,2332,2218,3559,1917,47,543,1775,-2.624,5.708,14.064,2.222,-1.132,-0.157,1.226,-3.333,9.287,-0.220,0.098,0.038,sad
4.83,0,0,0,0,510,0,1265,3157,3289,2031,2224,3637,1006,5,1,1581,4.786,3.845,10.841,1.545,-0.920,-0.006,0.943,-1.769,9.546,-0.571,0.210,-0.049,sad
4.84,0,0,0,0,737,0,1936,3295,3439,2038,2226,3711,331,5,3,1327,3.244,4.070,10.843,1.331,-0.189,-0.051,1.109,-4.891,8.519,-0.796,0.212,-0.232,sad
4.85,0,413,0,0,971,0,2239,3347,3462,1851,2218,3685,115,5,5,1163,7.061,4.970,9.064,0.801,0.470,-0.239,1.456,-3.158,9.773,-0.937,0.214,-0.331,sad
4.86,0,839,0,0,1303,0,2395,3381,3543,1481,2272,3757,0,17,0,924,1.891,3.282,9.687,0.561,1.005,-0.371,2.741,-3.675,10.113,-1.513,0.323,-0.469,sad
4.87,0,1379,0,0,1518,0,2480,3415,1593,2579,1620,2455,2547,1696,1606,3092,1.836,2.672,9.565,0.423,0.861,-0.364,1.946,-4.235,9.194,-2.321,0.818,-0.459,sad
4.88,0,1785,0,0,1863,0,2582,3473,1603,2553,1594,2459,2543,1690,1669,3096,1.836,2.497,9.170,0.338,1.077,-0.578,2.021,-3.584,9.021,-2.685,1.109,-0.371,sad
4.89,0,2096,0,0,2233,0,2682,3523,1578,2569,1128,2463,2549,1685,1591,3094,1.834,3.014,9.349,0.360,1.060,-0.604,1.513,-4.535,9.673,-3.300,1.490,0.517,sad
4.90,36,2629,25,0,2384,0,2838,3575,1571,2567,0,2469,2553,1699,1583,3097,0.464,3.824,12.189,0.509,0.698,-0.363,1.085,-6.440,12.014,-3.871,1.293,2.026,sad
4.91,187,2910,832,0,2559,0,2948,3627,1573,2558,0,2468,2555,1676,1580,3099,1.568,3.986,9.716,0.229,0.286,-0.056,1.355,-5.373,11.179,-4.050,1.154,2.404,sad
4.92,261,3060,1623,98,2763,0,3029,3648,1572,2557,0,2478,2567,1675,1578,3161,1.489,3.184,9.634,0.169,0.144,-0.074,0.690,-7.566,10.003,-4.181,0.834,3.032,sad
4.93,383,3166,2039,459,2877,0,3103,3660,1575,2557,0,2478,2566,1675,1577,3102,1.614,3.304,9.476,0.170,0.010,-0.074,0.630,-7.173,13.850,-1.341,0.951,3.394,sad
4.94,417,3231,2384,760,3019,0,3157,3659,1576,2555,0,2476,2568,1673,1577,3101,1.638,3.366,9.548,0.131,0.019,-0.031,6.292,-4.216,18.256,0.242,0.990,2.754,sad
4.95,413,3303,2559,994,3117,0,3173,3652,1583,2553,0,2473,2572,1671,1573,3101,1.434,3.259,9.483,0.116,0.042,-0.017,7.020,-0.646,6.385,0.876,-0.088,0.781,sad
4.96,470,3366,2684,1118,3173,0,3171,3617,1575,2555,145,2470,2568,1675,1575,3099,1.556,3.026,9.340,0.201,0.029,-0.052,5.059,-1.085,9.371,1.123,-0.582,-0.098,sad
4.97,556,3419,2812,1264,3216,0,3143,3563,1589,2552,0,2486,2577,1663,1559,3111,1.602,3.373,9.333,0.244,0.001,-0.061,4.781,-1.628,10.681,1.578,-0.748,-0.530,sad
4.98,639,3411,2909,1443,3200,0,3103,3441,1612,2548,0,2479,2579,1663,1565,3097,1.499,3.479,9.323,0.188,-0.018,-0.034,0.127,-0.778,8.906,2.330,-1.239,-0.890,sad
4.99,778,3520,3019,1653,3277,0,3071,3447,1587,2511,0,2483,2572,1669,1565,3103,1.563,3.314,9.251,0.192,-0.005,-0.043,-1.360,-1.235,9.787,2.683,-1.626,-0.519,sad
5.00,838,3483,3046,1764,3213,0,3017,3345,1581,2554,0,2477,2573,1674,1574,3103,1.609,3.395,9.242,0.175,-0.022,-0.051,-2.025,-1.384,10.781,2.875,-1.781,-0.291,sad
5.01,928,3607,3185,2016,3342,0,3045,3362,1575,2556,0,2477,2569,1559,1577,3097,1.539,3.548,9.342,0.145,-0.015,-0.027,-1.535,-2.284,11.406,3.189,-2.109,-0.068,sad
5.02,985,3641,3232,2160,3365,0,3023,3321,1571,2555,0,2475,2569,1676,1575,3097,1.566,3.414,9.218,0.137,-0.003,-0.027,-1.030,-2.772,12.005,3.213,-2.159,-0.329,sad
5.03,1022,3669,3325,2251,3392,0,3013,3266,1574,2555,0,2473,2571,1661,1559,3097,1.578,3.445,9.237,0.128,-0.003,-0.042,-0.977,-3.345,12.960,3.171,-2.154,-0.555,sad
5.04,1054,3701,3370,2335,3397,0,2987,3199,1573,2611,0,2472,2629,1677,1577,3099,1.551,3.472,9.234,0.125,0.013,-0.041,-0.160,-3.754,13.484,3.001,-1.938,-1.153,sad
5.05,1147,3744,3415,2402,3424,0,2946,3122,1571,2557,0,2473,2568,1677,1579,3100,1.453,3.433,9.256,0.123,0.010,-0.037,-0.807,-4.429,13.238,2.110,-1.792,-1.800,sad
5.06,1198,3757,3451,2484,3440,0,2896,3043,1573,2555,0,2476,2443,1677,1577,3100,1.516,3.555,9.280,0.131,-0.002,-0.043,0.409,-7.700,16.410,1.841,-1.461,-1.928,sad
5.07,1269,3766,3490,2589,3453,0,2819,2928,1563,2555,0,2477,2539,1619,1611,3101,1.549,3.457,9.249,0.113,0.005,-0.050,-2.030,-15.998,19.355,2.267,-0.796,-2.336,sad
5.08,1322,3795,3392,2665,3455,0,2655,2675,1624,2552,0,2479,2603,1671,1573,3100,1.614,3.450,9.282,0.158,-0.005,-0.048,-5.600,-19.613,5.344,3.065,-0.286,-1.849,sad
5.09,1367,3817,3562,2741,3454,0,2545,2221,1587,2607,0,2486,2575,1662,1567,3107,1.609,3.610,9.067,0.180,0.007,-0.039,-11.736,-18.076,-4.231,2.257,-1.610,-1.267,sad
5.10,1535,3839,3583,2860,3440,0,2320,1498,1587,2549,0,2457,2575,1669,1571,3006,1.705,3.548,9.213,0.153,0.051,-0.052,-3.768,-19.613,-7.989,-0.771,-1.028,-1.308,sad
5.11,1735,3856,3635,2944,3371,0,1872,458,0,0,0,0,0,0,0,228,1.657,3.649,9.313,0.196,0.067,-0.061,1.185,-0.946,19.613,-0.674,2.253,-0.185,sad
5.12,1852,3686,3664,2803,3084,0,1152,0,0,0,0,0,0,0,27,733,1.721,3.570,9.239,0.343,0.053,-0.042,1.041,3.273,19.613,1.590,0.824,-0.236,sad
5.13,2054,3900,3679,3022,2992,0,638,0,41,1,0,0,0,0,0,1455,1.468,3.587,9.199,0.454,0.047,-0.051,1.137,7.628,-2.533,-2.333,-0.499,-0.215,sad
5.14,2331,3901,3697,3071,2160,0,156,0,0,2665,0,2639,2700,0,2269,3271,1.358,3.306,9.428,0.454,0.018,-0.213,-7.994,-7.202,18.670,-2.034,-0.105,0.098,sad
5.15,2497,3909,3713,3095,1450,0,0,0,1431,2611,0,2472,2410,1885,1684,3149,2.181,3.347,9.120,0.952,0.001,0.089,5.499,-5.325,10.379,-2.048,-0.782,0.155,sad
5.16,2672,3901,3714,3056,1003,0,0,0,1591,2571,0,2483,2575,1669,1568,3100,1.839,3.836,9.184,1.180,0.180,0.148,19.613,-9.043,15.325,-2.340,1.455,0.127,sad
5.17,2768,3872,3701,2974,572,0,0,0,1583,2553,0,2471,2568,1673,1575,3097,2.095,3.843,9.170,1.449,0.394,0.199,1.027,-4.068,11.461,-0.279,1.537,0.527,sad
5.18,2874,3729,3658,2768,290,0,0,0,1549,2583,2,2468,2553,1709,1607,3101,1.547,4.266,8.950,1.752,0.496,0.264,-1.120,-5.586,16.295,-0.464,0.831,0.404,sad
5.19,2963,3120,3543,2445,0,0,0,0,1547,2575,12,2458,2543,1701,1594,3057,2.078,4.592,9.230,1.958,0.599,0.273,1.197,-2.734,9.589,-0.333,0.659,0.296,sad
5.20,2999,2653,3179,2047,0,0,0,0,0,503,17,803,571,2,2167,3884,1.738,4.726,9.400,2.138,0.680,0.079,1.915,-3.345,9.687,-0.281,0.136,0.170,sad
5.21,2999,2182,2546,1705,0,0,0,0,2,537,63,1213,745,0,2406,3967,2.018,5.777,8.995,2.653,0.569,-0.322,1.879,-3.500,9.495,-0.156,0.111,0.252,sad
5.22,2806,1569,1607,1402,0,0,0,0,1591,2552,1031,2477,2571,1674,1575,3098,1.128,5.861,10.925,3.114,0.307,-0.815,1.358,-3.223,9.586,-0.099,0.207,0.265,sad
5.23,2096,1066,430,700,0,0,0,0,1,774,1584,1672,1171,4,2943,4079,2.040,6.936,9.835,3.587,0.557,-1.367,1.379,-3.342,9.567,-0.036,0.080,0.167,sad
5.24,1635,576,0,97,0,0,0,0,34,762,1750,1735,1553,16,3023,3819,2.093,9.627,10.326,3.850,0.869,-1.714,1.331,-2.945,9.313,-0.085,-0.041,0.071,sad
5.25,783,62,0,0,0,0,0,0,41,857,1904,1919,1660,25,3208,4077,1.147,8.143,8.183,3.585,1.474,-2.283,1.250,-3.081,9.419,-0.094,-0.049,0.089,sad
5.26,0,0,0,0,0,0,0,0,86,872,1952,2111,1997,24,3336,4095,0.438,7.140,16.850,1.124,0.797,-2.152,1.451,-3.304,9.440,-0.043,0.025,0.102,sad
5.27,0,0,0,0,0,0,0,0,63,1093,1993,2195,2159,20,3406,4095,7.796,3.428,9.790,0.124,0.903,-1.902,1.322,-3.206,9.481,-0.025,0.016,0.088,sad
5.28,0,0,0,0,0,0,0,0,69,1100,2024,2252,2271,0,3452,4095,6.072,1.295,11.538,-0.630,-0.119,-0.942,1.300,-3.151,9.459,-0.005,0.020,0.094,sad
5.29,0,0,0,0,0,0,0,0,77,1159,2021,2302,2439,22,3462,4065,4.034,1.994,8.677,-0.908,-0.036,-0.447,1.437,-3.179,9.376,-0.094,0.000,0.103,sad
5.30,0,0,0,0,0,0,0,0,26,1105,1988,2303,2457,69,3403,3997,3.716,3.053,8.995,-1.490,-0.442,-0.053,1.441,-3.452,9.467,-0.082,0.001,0.083,sad
5.31,0,0,0,0,0,0,0,0,111,1271,2108,2462,2635,27,3481,4087,3.031,2.986,7.453,-1.998,-0.455,0.167,1.331,-3.349,9.392,-0.062,-0.009,0.080,sad
5.32,0,0,0,0,0,0,0,0,143,1396,2096,2581,2703,37,3384,4005,2.425,3.816,7.817,-2.238,-0.719,0.379,1.494,-3.318,9.352,-0.064,0.030,0.077,sad
5.33,0,0,0,0,0,0,0,0,157,1604,2154,2613,2797,35,3467,4049,2.418,4.839,8.578,-2.575,-1.009,0.536,1.317,-3.335,9.479,-0.063,0.004,0.084,sad
5.34,0,0,0,0,0,0,0,0,297,1639,2178,2729,2895,47,3420,4016,0.678,4.860,8.253,-2.702,-1.280,0.680,1.427,-3.316,9.364,-0.015,0.016,0.057,sad
5.35,0,0,0,0,0,0,0,0,367,1765,2231,2840,2979,48,3407,4058,0.668,5.480,9.000,-2.715,-1.429,0.659,1.444,-3.366,9.395,-0.015,0.017,0.074,sad
5.36,0,0,0,0,0,0,0,0,423,1807,2183,2891,3007,47,3397,3976,1.087,5.677,9.613,-2.680,-1.255,0.774,1.314,-3.225,9.268,-0.029,0.011,0.068,sad
5.37,0,0,0,0,0,0,0,0,595,1949,2188,2991,3059,47,3337,3933,0.950,5.816,10.585,-2.583,-1.269,1.021,1.288,-3.462,9.452,-0.030,0.024,0.058,sad
5.38,0,0,0,0,0,0,0,0,661,1975,2190,2989,3119,39,3240,3871,0.579,6.270,11.825,-2.607,-1.234,1.194,1.381,-3.407,9.378,-0.010,0.019,0.046,sad
5.39,0,0,0,0,0,0,0,0,711,2085,2190,3013,3140,46,3157,3849,0.120,5.725,11.066,-2.586,-0.920,1.234,1.305,-3.493,9.673,0.017,0.045,0.050,sad
5.40,0,0,0,0,0,0,0,0,883,2025,2183,3078,3146,51,2927,3756,-0.584,5.543,10.750,-2.271,-0.881,1.168,1.369,-3.491,9.392,0.000,0.065,0.058,sad
5.41,0,0,0,0,0,0,0,0,955,2120,2193,3131,3177,3,2619,3755,-1.223,6.488,11.741,-1.811,-1.123,1.090,1.099,-3.287,9.357,-0.012,0.070,0.056,sad
5.42,0,0,0,0,0,0,0,0,1000,2159,2193,3159,3166,51,2510,3678,-1.920,8.191,12.488,-1.496,-1.408,0.978,3.563,-4.195,10.582,0.043,0.072,0.082,sad
5.43,0,0,0,0,0,0,0,0,1139,2133,2188,3274,3127,50,2215,3591,-1.520,12.392,15.991,-2.082,-0.914,0.779,-0.383,-2.617,8.911,-0.054,0.120,0.060,sad
5.44,0,0,0,0,0,0,0,0,1619,2215,2346,3341,3080,43,2220,3465,0.802,12.850,10.223,-2.539,0.220,0.609,1.379,-3.349,9.409,-0.054,0.089,0.058,sad
5.45,0,0,0,0,0,0,0,0,1817,2229,2203,3388,3037,47,2133,3373,-4.503,10.494,1.501,-1.973,-0.329,0.419,1.425,-3.230,8.657,-0.053,0.091,0.054,sad
5.46,0,0,0,0,0,0,0,0,2207,2217,2203,3417,2802,47,1693,2997,-0.029,12.842,-0.247,-0.847,-0.890,0.706,1.331,-3.388,9.380,-0.136,0.086,0.031,sad
5.47,0,0,0,0,0,0,0,0,2453,2328,2229,3512,2637,47,1288,2522,-0.120,11.916,0.189,0.152,0.565,1.229,1.290,-3.661,9.577,-0.159,0.085,0.047,sad
5.48,0,0,0,0,0,0,0,0,2633,2391,2216,3493,2555,47,1001,2269,1.207,6.005,5.997,1.150,1.017,0.244,1.252,-3.797,9.476,-0.121,0.126,0.047,sad
5.49,0,0,0,0,0,0,0,0,2749,2284,2175,3601,2467,45,805,2038,2.780,1.592,19.613,0.295,0.838,0.086,1.226,-3.682,9.227,-0.137,0.119,0.046,sad
5.50,0,0,0,0,0,0,0,127,2852,2168,2224,3615,2378,47,605,1815,1.642,-3.773,8.653,0.877,-0.229,0.446,0.972,-3.359,9.050,-0.142,0.123,0.041,sad
5.51,0,0,0,0,0,0,272,1822,3029,2227,2224,3661,2071,45,295,1625,0.795,1.214,10.168,1.905,-0.113,-0.217,1.295,-4.413,9.196,0.082,0.071,0.152,sad
5.52,0,0,0,0,304,0,787,2651,3133,2135,2224,3743,1301,0,10,1502,0.687,4.061,12.179,1.618,-0.472,-0.132,1.132,-3.915,9.076,-0.478,0.243,-0.078,sad
5.53,0,0,0,0,720,0,1427,2992,3213,2125,2231,3769,933,6,4,1509,4.154,4.111,11.277,1.392,-0.187,-0.121,1.171,-3.481,9.270,-0.490,0.210,-0.105,sad
5.54,0,298,0,0,827,0,1968,3109,3234,2005,2203,3757,404,7,2,1278,6.634,6.522,9.886,0.844,0.632,-0.169,1.391,-3.917,9.096,-0.575,0.188,-0.257,sad
5.55,0,709,0,0,1008,0,2044,2967,3323,1949,2167,3839,30,2,0,1177,2.090,3.163,9.682,0.589,0.870,-0.315,1.446,-3.340,9.675,-1.133,0.175,-0.313,sad
5.56,0,1186,0,0,1415,0,2294,3223,3347,1741,2249,3880,8,1,0,1023,2.246,2.488,9.282,0.461,0.780,-0.137,1.221,-3.603,9.503,-1.225,0.199,-0.329,sad
5.57,0,1637,0,0,1671,0,2384,3296,1657,2523,1609,2479,2571,1675,1587,3100,1.549,2.612,9.395,0.340,0.858,-0.324,2.064,-3.989,9.524,-1.847,0.521,-0.398,sad
5.58,0,1927,0,0,1950,0,2496,3382,1655,2552,1658,2478,2568,1673,1576,3099,1.551,2.765,9.455,0.250,0.743,-0.446,1.726,-3.658,8.803,-2.343,0.989,-0.339,sad
5.59,0,2176,0,0,2188,0,2623,3398,1654,2547,1620,2478,2568,1671,1575,3100,1.875,3.158,9.685,0.180,0.662,-0.306,1.551,-4.791,9.323,-2.646,1.129,-0.137,sad
5.60,0,2539,194,0,2384,0,2789,3511,2911,463,1965,3103,5,0,0,532,1.381,3.065,9.771,0.160,0.338,-0.091,0.917,-4.592,10.664,-3.615,1.127,0.484,sad
5.61,0,2736,792,0,2559,0,2933,3575,1591,2585,2,2483,2569,1724,1573,3101,1.350,2.990,9.744,0.162,0.224,-0.059,1.906,-9.811,13.118,-4.246,0.669,1.960,sad
5.62,0,2911,1411,66,2731,0,3031,3630,1587,2567,2,2483,2571,1661,1573,3101,1.590,2.928,9.570,0.176,0.141,-0.096,2.282,-8.502,11.404,-4.299,0.539,2.390,sad
5.63,0,3024,1776,449,2862,0,3108,3649,1583,2552,0,2479,2569,1663,1571,3101,1.312,3.110,9.759,0.159,0.026,-0.043,0.493,-8.303,9.251,-4.366,0.265,3.155,sad
5.64,0,3110,2026,639,2975,0,3164,3651,1583,2553,0,2482,2570,1662,1575,3100,1.590,3.081,9.627,0.107,0.023,-0.016,2.428,-8.238,12.677,-1.221,0.365,3.405,sad
5.65,0,3173,2128,587,3066,0,3189,3638,1581,2553,0,2484,2573,1671,1571,3055,1.633,2.954,9.495,0.111,0.031,-0.050,6.072,-7.140,16.190,0.187,0.564,2.664,sad
5.66,43,3222,2214,677,3152,0,3198,3619,1577,2552,115,2483,2565,1605,1573,3103,1.707,2.830,9.323,0.157,0.002,-0.056,7.092,-1.283,5.023,1.180,0.071,1.133,sad
5.67,123,3273,2336,816,3196,0,3186,3569,1582,2551,0,2483,2572,1670,1567,3060,1.573,2.878,9.270,0.199,-0.008,-0.045,6.249,-2.488,9.079,1.539,-0.272,-0.050,sad
5.68,193,3312,2477,948,3232,0,3174,3526,1587,2552,0,2387,2577,1668,1568,3101,1.547,3.139,9.438,0.188,-0.005,-0.055,5.784,-1.817,9.335,1.993,-0.381,-0.683,sad
5.69,254,3356,2597,1041,3268,0,3157,3492,1589,2549,0,2485,2577,1668,1578,3096,1.520,3.160,9.400,0.154,0.005,-0.054,1.195,-1.925,8.854,2.556,-0.866,-1.506,sad
5.70,315,3413,2695,1211,3297,0,3142,3493,1623,2542,0,2487,2575,1669,1564,3102,1.549,3.134,9.371,0.139,-0.021,-0.057,-0.927,-2.437,9.507,2.980,-1.148,-1.347,sad
5.71,338,3449,2786,1310,3339,0,3159,3465,1588,2539,0,2483,2577,1669,1567,3104,1.671,3.211,9.342,0.148,-0.011,-0.058,-1.472,-2.741,10.111,3.195,-1.228,-1.085,sad
5.72,375,3503,2865,1373,3358,0,3171,3455,1575,2553,0,2479,2571,1671,1572,3118,1.535,3.244,9.426,0.124,-0.008,-0.046,-0.874,-3.582,10.635,3.484,-1.386,-0.735,sad
5.73,414,3535,2935,1451,3389,0,3171,3439,1587,2550,0,2485,2573,1669,1573,3113,1.645,3.247,9.402,0.093,-0.017,-0.031,-0.436,-4.324,11.353,3.517,-1.505,-0.706,sad
5.74,476,3568,2991,1507,3423,0,3172,3406,1588,2551,0,2483,2579,1669,1567,3101,1.609,3.230,9.349,0.117,-0.009,-0.035,-0.223,-4.539,11.854,3.429,-1.631,-0.780,sad
5.75,530,3630,2977,1535,3398,0,3118,3303,1579,2551,0,2483,2575,1699,1567,3107,1.635,3.134,9.304,0.143,-0.013,-0.056,0.115,-5.016,13.103,3.188,-1.659,-0.887,sad
5.76,547,3648,3108,1663,3472,0,3134,3223,1588,2551,133,2479,2575,1669,1570,3103,1.568,3.172,9.309,0.174,-0.025,-0.063,-0.385,-5.301,12.450,2.382,-1.757,-0.873,sad
5.77,576,3668,3176,1755,3491,0,3086,3089,1591,2552,74,2397,2577,1659,1568,3101,1.566,3.251,9.290,0.197,-0.037,-0.056,-0.184,-6.819,13.716,1.917,-1.707,-0.772,sad
5.78,633,3710,3233,1863,3500,0,3014,2978,1575,2553,0,2487,2551,1663,1571,3111,1.724,3.187,9.134,0.211,-0.023,-0.072,-0.323,-14.679,18.368,1.753,-1.706,-0.867,sad
5.79,658,3742,3311,2085,3516,0,2914,2827,1589,2552,0,2485,2578,1663,1567,3130,1.618,3.160,9.160,0.243,-0.033,-0.103,-3.421,-18.328,10.455,2.488,-1.415,-1.396,sad
5.80,667,3781,3376,2277,3520,0,2781,2559,1589,2551,0,2486,2578,1670,1575,3103,1.796,3.484,9.196,0.250,-0.022,-0.097,-7.266,-17.193,2.313,2.298,-1.056,-1.467,sad
5.81,833,3814,3440,2438,3525,0,2640,2243,1589,2552,0,2491,2582,1664,1567,3107,1.705,3.443,9.208,0.248,0.012,-0.109,-8.914,-19.613,-5.198,0.872,-0.271,-0.995,sad
5.82,960,3843,3505,2596,3523,0,2409,1777,1589,2551,0,2485,2495,1662,1566,3111,1.786,3.481,9.232,0.273,0.035,-0.124,-5.188,-6.239,-6.455,-1.755,1.563,-0.399,sad
5.83,1083,3877,3568,2691,3479,0,1966,1104,1591,2551,0,2485,2635,1663,1567,3101,1.530,3.596,9.294,0.274,0.047,-0.088,4.975,-2.054,19.613,-0.711,1.589,-0.333,sad
5.84,1229,3898,3622,2785,3344,0,1456,0,0,0,0,0,0,0,0,1439,1.635,3.627,9.385,0.382,0.055,-0.075,2.212,4.401,0.127,-2.099,-0.122,0.152,sad
5.85,1408,3910,3646,2848,3184,0,866,0,0,0,0,0,0,0,9,1963,1.650,3.558,9.390,0.460,0.061,-0.064,-0.596,-5.466,10.783,-2.038,0.602,0.482,sad
5.86,1555,3929,3670,2911,2415,0,177,0,1619,2553,0,2485,2573,1671,1573,3101,2.126,2.923,9.175,0.494,0.034,-0.236,-1.501,-1.154,9.024,-2.045,-0.279,0.400,sad
5.87,1691,3935,3691,2870,1703,0,27,0,1582,2550,0,2478,2571,1671,1575,3102,1.901,3.852,8.933,1.001,0.003,0.051,2.612,-4.094,10.116,-1.980,-0.619,0.354,sad
5.88,1838,3926,3702,2832,1520,0,0,0,1531,2573,0,2455,2539,1705,1607,3092,1.705,3.946,8.842,1.196,0.129,0.134,0.802,-2.727,7.489,-0.508,1.158,0.498,sad
5.89,2001,3922,3682,2768,959,0,0,0,1523,2587,2,2449,2536,1708,1611,3091,2.593,3.924,9.012,1.394,0.248,0.121,0.505,-3.316,11.933,-0.298,0.953,0.497,sad
5.90,2079,3858,3664,2544,592,0,0,0,1520,2604,15,2454,2571,1770,1619,3102,2.387,4.238,9.404,1.753,0.407,0.211,1.051,-3.658,10.111,-0.182,0.471,0.239,sad
5.91,2164,3673,3554,2185,365,0,0,0,1576,2556,12,2471,2556,1681,1581,3096,2.394,4.697,8.916,2.123,0.435,0.259,1.109,-3.378,9.931,-0.185,0.105,0.157,sad
5.92,2288,2944,3095,1808,0,0,0,0,1578,2557,15,2519,2556,1678,1583,3099,1.666,4.887,9.151,2.567,0.309,0.209,1.489,-3.316,9.668,-0.104,0.178,0.124,sad
5.93,2271,2478,2768,1389,0,0,0,0,1527,2633,79,2450,2540,1677,1611,3092,0.668,4.978,10.841,3.129,0.080,-0.106,1.978,-3.280,9.428,-0.072,0.220,0.127,sad
5.94,1958,1923,1937,1139,0,0,0,0,1611,2549,194,2477,2621,1669,1572,3103,1.856,6.483,13.324,3.747,-0.451,-0.598,1.583,-3.273,9.491,-0.049,0.102,0.114,sad
5.95,1642,1040,126,485,0,0,0,0,1399,763,1087,789,2681,2095,2359,3829,2.327,10.420,9.618,4.669,-0.080,-1.033,1.360,-3.187,9.555,-0.030,-0.027,0.054,sad
5.96,749,503,0,0,0,0,0,0,26,869,1563,1355,1964,4,3178,4015,2.816,9.033,9.668,4.139,0.663,-1.765,1.595,-3.194,9.725,0.008,0.009,0.039,sad
5.97,176,228,0,0,0,0,0,0,9,814,1571,1395,2088,3,3221,3832,0.019,8.102,18.253,2.514,0.648,-1.853,1.484,-3.297,9.519,0.056,0.026,0.037,sad
5.98,0,0,0,0,0,0,0,0,19,867,1737,1445,2257,6,3320,3967,-0.601,1.614,15.038,0.547,0.430,-2.395,1.348,-3.230,9.474,0.082,0.025,0.017,sad
5.99,0,0,0,0,0,0,0,0,31,949,1696,1485,2359,9,3388,3993,3.546,-0.038,9.084,-0.180,0.768,-2.785,1.401,-3.158,9.503,0.107,0.051,0.014,sad
6.00,0,0,0,0,0,0,0,0,8,985,1689,1525,2419,5,3440,3981,4.855,1.963,11.111,-0.627,0.405,-2.147,1.448,-3.105,9.579,0.093,0.035,0.002,sad
6.01,0,0,0,0,0,0,0,0,5,844,1568,1461,2345,4,3303,3753,5.794,1.757,9.323,-0.985,0.441,-1.970,1.446,-2.976,9.455,0.080,0.029,0.001,sad
6.02,0,0,0,0,0,0,0,0,1611,2577,1128,2485,2570,1670,1575,3101,5.959,1.875,9.407,-1.449,0.106,-1.504,1.530,-3.014,9.342,0.057,0.084,-0.003,sad
6.03,0,0,0,0,0,0,0,0,1611,2547,1118,2479,2571,1659,1573,3389,5.485,2.468,8.246,-1.969,-0.289,-0.583,1.484,-2.947,9.330,-0.010,0.100,0.043,sad
6.04,0,0,0,0,0,0,0,0,43,807,1717,1482,2455,8,3470,3767,4.231,2.265,6.742,-2.194,-0.561,-0.035,1.477,-3.043,9.340,-0.069,0.027,0.096,sad
6.05,0,0,0,0,0,0,0,0,55,923,1829,1688,2479,16,3608,4095,3.706,3.208,7.913,-2.319,-0.683,0.173,1.427,-3.062,9.392,-0.068,0.046,0.100,sad
6.06,0,0,0,0,0,0,0,0,59,920,1865,1660,2473,17,3573,4095,3.541,3.967,9.220,-2.502,-0.725,0.321,1.439,-2.899,9.313,-0.064,0.030,0.109,sad
6.07,0,0,0,0,0,0,0,0,60,859,1901,1755,2555,19,3560,4077,3.089,4.671,9.749,-2.775,-0.901,0.487,1.530,-2.935,9.297,-0.075,0.040,0.129,sad
6.08,0,0,0,0,0,0,0,0,75,870,1868,1709,2508,20,3401,3995,1.841,4.755,9.280,-2.946,-1.110,0.634,1.446,-3.074,9.352,-0.097,0.044,0.144,sad
6.09,0,0,0,0,0,0,0,0,97,889,2024,1903,2681,26,3638,4095,1.171,5.047,9.081,-2.989,-1.395,0.731,1.413,-3.203,9.507,-0.087,0.048,0.142,sad
6.10,0,0,0,0,0,0,0,0,78,907,1796,1717,2386,39,3103,3429,1.614,5.389,9.361,-2.965,-1.401,0.799,1.393,-3.230,9.471,-0.061,0.044,0.115,sad
6.11,0,0,0,0,0,0,0,0,93,1061,2003,2045,2741,26,3717,4095,1.968,5.643,9.907,-2.933,-1.223,0.917,1.429,-3.242,9.412,-0.051,0.041,0.097,sad
6.12,0,0,0,0,0,0,0,0,95,1147,2039,2135,2765,39,3621,4085,1.602,5.933,10.927,-2.874,-1.096,1.132,1.381,-3.261,9.431,-0.049,0.031,0.092,sad
6.13,0,0,0,0,0,0,0,0,103,1221,2044,2231,2833,30,3701,4095,1.305,6.476,12.359,-2.871,-1.091,1.484,0.958,-3.144,9.651,-0.053,0.045,0.091,sad
6.14,0,0,0,0,0,0,0,0,109,1279,2088,2349,2905,27,3705,4095,0.467,5.813,11.119,-2.728,-0.821,1.591,1.369,-3.139,9.380,-0.041,0.034,0.077,sad
6.15,0,0,0,0,0,0,0,0,143,1387,1957,2379,2971,31,3703,4095,0.220,6.199,11.327,-2.293,-0.697,1.481,1.733,-3.433,9.546,-0.035,0.023,0.076,sad
6.16,0,0,0,0,0,0,0,0,159,1469,2126,2397,2983,35,3695,4095,-0.388,7.618,12.871,-1.967,-0.710,1.347,1.367,-3.170,9.450,-0.032,0.045,0.084,sad
6.17,0,0,0,0,0,0,0,0,158,1625,2147,2505,3028,40,3665,4095,-2.090,9.510,14.382,-1.849,-1.063,1.090,1.401,-3.275,9.373,-0.032,0.037,0.081,sad
6.18,0,0,0,0,0,0,0,0,174,1627,2152,2547,3049,27,3605,4071,0.153,12.194,14.164,-2.125,-0.701,0.555,1.494,-3.081,9.273,-0.032,0.047,0.104,sad
6.19,0,0,0,0,0,0,0,0,252,1709,2157,2605,3083,47,3547,4059,-3.697,12.163,10.422,-2.847,-1.227,-0.016,2.239,-3.251,8.643,0.024,0.106,0.114,sad
6.20,0,0,0,0,0,0,0,0,437,1843,2167,2604,3101,47,3435,4023,-2.119,10.934,1.140,-2.265,-1.661,-0.326,2.911,-3.934,9.538,0.030,0.086,0.107,sad
6.21,0,0,0,0,0,0,0,0,539,1979,2185,2823,3069,0,3207,3987,0.919,14.212,-1.867,-1.018,-0.604,0.312,1.453,-3.247,9.311,-0.070,0.040,0.102,sad
6.22,0,0,0,0,0,0,0,0,741,1989,2183,2851,3133,41,3029,3867,-1.621,11.590,-3.007,0.335,0.420,0.607,1.544,-2.950,8.523,-0.092,0.064,0.116,sad
6.23,0,0,0,0,0,0,0,0,1287,2141,2190,2973,3111,47,2573,3887,4.944,5.952,7.506,1.314,1.407,0.296,1.365,-3.402,9.534,-0.109,0.031,0.088,sad
6.24,0,0,0,0,0,0,0,0,1583,2235,2093,3007,3095,28,2283,3789,3.608,1.884,18.806,0.832,0.764,0.824,1.369,-3.534,9.426,-0.119,0.048,0.088,sad
6.25,0,0,0,0,0,0,48,338,2195,2283,2188,3177,2841,47,1784,3465,0.450,-2.533,5.636,1.448,0.351,0.812,1.516,-3.421,9.433,-0.145,0.049,0.069,sad
6.26,0,0,0,0,0,0,374,1962,2412,2275,2190,3231,2579,53,1594,3196,-3.263,0.414,11.248,1.990,-0.060,0.114,1.408,-3.335,9.402,-0.189,0.063,0.056,sad
6.27,0,0,0,0,206,0,701,2757,2697,2351,2198,3369,2216,31,725,2103,1.123,4.542,11.978,1.800,-0.603,0.015,1.365,-3.503,9.378,-0.251,0.116,0.042,sad
6.28,0,0,0,0,462,0,1122,3086,2995,2219,2203,3468,1439,7,7,1786,2.792,3.053,10.652,1.458,-0.350,-0.130,1.554,-5.966,8.954,0.029,0.171,0.223,sad
6.29,0,101,0,0,487,0,1841,3215,3020,2041,2203,3509,1052,5,5,1508,3.551,3.828,10.602,1.099,-0.337,-0.295,1.824,-4.748,10.099,-0.850,0.247,-0.156,sad
6.30,0,556,0,0,1008,0,2097,3258,3195,1945,2198,3593,495,5,3,1421,5.629,2.049,8.186,0.597,0.855,-0.322,1.195,-3.043,9.457,-0.766,0.193,-0.187,sad
6.31,0,858,0,0,1226,0,2034,3081,3363,1822,2226,3659,61,4,3,1244,0.220,3.859,11.607,0.582,0.980,-0.294,1.726,-3.433,10.307,-1.201,0.310,-0.306,sad
6.32,0,1450,0,0,1516,0,2343,3344,3347,1543,2234,3592,4,0,0,1059,2.195,2.962,10.029,0.402,0.874,-0.344,1.697,-4.125,9.797,-1.421,0.382,-0.337,sad
6.33,0,1873,0,0,1602,0,2451,3385,1599,2578,1620,2457,2540,1701,1599,3091,2.327,2.741,9.301,0.283,0.922,-0.430,2.612,-3.249,10.384,-1.932,0.779,-0.415,sad
6.34,0,2080,0,0,1986,0,2550,3472,1599,2556,1563,2459,2542,1691,1595,3096,1.662,2.902,9.680,0.273,0.926,-0.394,2.047,-4.647,10.429,-2.582,1.084,-0.064,sad
6.35,0,2362,36,0,2218,0,2680,3542,1581,2573,1425,2391,2543,1691,1593,3095,0.845,3.608,11.270,0.307,0.572,-0.297,1.853,-4.817,9.625,-2.925,1.336,0.291,sad
6.36,0,2672,539,0,2427,0,2800,3614,1522,2569,0,2463,2548,1687,1591,3096,1.384,3.361,9.656,0.226,0.362,-0.158,1.590,-4.887,10.951,-3.857,1.085,1.414,sad
6.37,0,2895,1246,16,2559,0,2931,3665,1561,2569,0,2463,2551,1677,1587,3063,1.535,3.043,9.646,0.185,0.204,-0.117,2.382,-8.655,10.930,-4.149,0.873,2.439,sad
6.38,0,3053,1772,346,2715,0,3043,3691,1561,2607,0,2467,2477,1684,1583,3096,1.654,3.122,9.555,0.148,0.124,-0.083,0.182,-9.371,12.632,-3.937,0.806,2.673,sad
6.39,0,3136,2030,650,2830,0,3117,3699,1561,2573,76,2468,2553,1727,1587,3096,1.511,3.043,9.579,0.100,0.059,-0.039,-0.376,-8.126,8.911,-2.945,0.645,3.162,sad
6.40,49,3195,2231,882,2912,0,3170,3681,1557,2577,0,2468,2553,1687,1587,3097,1.535,3.005,9.534,0.097,0.060,-0.025,6.002,-10.250,16.158,0.481,0.634,2.487,sad
6.41,79,3254,2368,976,2985,0,3185,3686,1577,2553,0,2475,2571,1673,1575,3100,1.580,2.921,9.407,0.141,0.042,-0.049,7.061,1.583,11.044,0.909,-0.468,1.493,sad
6.42,138,3301,2502,1147,3054,0,3184,3663,1583,2552,10,2471,2575,1663,1572,3099,1.575,2.993,9.409,0.208,0.014,-0.063,5.480,-0.622,6.393,1.028,-0.284,0.431,sad
6.43,208,3281,2594,1298,3088,0,3150,3601,1589,2549,17,2484,2577,1669,1567,3103,1.532,3.139,9.419,0.202,0.008,-0.051,5.262,-2.567,10.388,1.790,-0.687,-0.716,sad
6.44,276,3397,2758,1424,3150,0,3151,3583,1589,2551,0,2484,2577,1663,1567,3103,1.535,3.077,9.316,0.167,-0.002,-0.057,2.966,-2.085,9.534,2.248,-0.831,-1.102,sad
6.45,320,3440,2819,1608,3183,0,3134,3554,1587,2549,0,2484,2569,1669,1568,3099,1.595,3.069,9.254,0.185,-0.004,-0.061,-0.721,-1.999,8.648,2.621,-1.344,-1.075,sad
6.46,322,3495,2947,1727,3232,0,3142,3541,1578,2555,0,2478,2456,1673,1572,3098,1.496,3.287,9.455,0.169,-0.001,-0.052,-1.015,-2.734,10.297,2.980,-1.461,-0.614,sad
6.47,368,3520,3024,1778,3277,0,3151,3517,1588,2551,17,2477,2573,1672,1575,3100,1.499,3.345,9.352,0.135,-0.005,-0.037,-1.178,-3.072,10.918,3.198,-1.523,-0.401,sad
6.48,469,3551,3083,1866,3309,0,3152,3508,1583,2551,0,2484,2575,1669,1510,3101,1.523,3.282,9.383,0.109,-0.004,-0.037,-0.862,-3.838,10.829,3.287,-1.807,-0.323,sad
6.49,508,3583,3134,1936,3331,0,3156,3507,1583,2550,0,2483,2577,1673,1573,3099,1.645,3.263,9.301,0.094,-0.004,-0.027,-1.173,-4.298,12.572,3.120,-2.027,-0.343,sad
6.50,559,3616,3179,1959,3355,0,3151,3475,1587,2551,0,2484,2663,1671,1568,3095,1.551,3.335,9.359,0.078,-0.003,-0.026,-0.974,-4.472,13.137,3.066,-2.055,-0.340,sad
6.51,523,3648,3215,1949,3378,0,3146,3452,1588,2551,0,2483,2575,1671,1571,3103,1.614,3.254,9.270,0.084,-0.001,-0.031,-2.344,-4.482,13.578,2.617,-1.995,-0.320,sad
6.52,613,3659,3243,2006,3403,0,3142,3414,1587,2551,0,2485,2574,1663,1567,3089,1.590,3.151,9.282,0.107,-0.001,-0.042,-3.359,-6.981,15.675,1.984,-2.149,-0.082,sad
6.53,624,3676,3273,2078,3405,0,3089,3360,1489,2555,0,2485,2575,1669,1567,3103,1.420,3.139,9.275,0.149,-0.004,-0.060,-1.872,-0.634,19.613,2.191,-2.175,-0.058,sad
6.54,746,3702,3331,2206,3422,0,3040,3266,0,0,0,0,0,0,0,47,1.609,3.328,9.155,0.174,-0.019,-0.058,-11.638,-12.474,17.080,2.283,-1.620,0.426,sad
6.55,735,3738,3376,2363,3427,0,2970,3139,1587,2551,0,2483,2575,1656,1571,3101,1.642,3.299,9.275,0.197,-0.018,-0.079,-6.613,-15.483,4.319,2.509,-1.526,0.015,sad
6.56,832,3759,3430,2481,3441,0,2860,2969,1581,2579,0,2484,2577,1671,1571,3101,1.726,3.376,9.165,0.193,0.025,-0.080,-7.329,-13.872,-2.107,1.749,-1.462,-0.149,sad
6.57,972,3789,3479,2608,3455,0,2707,2733,1587,2551,0,2483,2577,1669,1568,3102,1.765,3.251,9.115,0.228,0.034,-0.111,-9.242,-15.840,-7.276,-0.754,1.271,-0.696,sad
6.58,960,3815,3536,2766,3441,0,2499,2289,1581,2551,74,2587,2575,1591,1571,3109,1.753,3.534,9.404,0.207,0.033,-0.078,2.306,-3.168,19.613,-0.212,1.608,0.035,sad
6.59,1129,3850,3583,2856,3390,0,2027,1396,1583,2553,0,2483,2575,1670,1575,3102,1.602,3.510,9.278,0.253,0.067,-0.102,0.424,4.951,13.103,-0.796,0.044,0.234,sad
6.60,1295,3865,3625,2903,3243,0,1462,0,0,0,0,0,0,0,169,1683,1.626,3.498,9.093,0.331,0.076,-0.084,3.065,-4.654,11.320,-1.379,0.930,0.403,sad
6.61,1453,3866,3583,2959,2881,0,663,0,1589,2551,0,2479,2577,1671,1591,3101,1.279,3.644,9.400,0.466,0.048,-0.072,-0.864,-1.666,8.636,-1.616,0.030,0.345,sad
6.62,1582,3895,3675,2959,2128,0,161,0,1588,2550,0,2483,2575,1673,1571,3103,1.958,2.902,8.803,0.501,0.024,-0.211,19.613,-0.838,18.502,-1.913,0.608,0.366,sad
6.63,1722,3899,3686,2943,1611,0,0,0,1651,2554,0,2471,2567,1675,1577,3102,2.054,3.424,8.736,0.909,0.035,0.097,-0.230,-3.452,10.673,-0.912,0.972,0.367,sad
6.64,1791,3888,3677,2903,1175,0,0,0,45,88,0,94,139,45,1427,2872,1.331,4.056,9.079,1.024,0.075,0.123,1.168,-3.275,10.022,-0.514,0.506,0.291,sad
6.65,1911,3822,3670,2753,939,0,0,0,0,133,15,197,500,0,1757,3349,1.523,3.960,8.741,1.148,0.160,0.140,1.252,-3.493,9.948,-0.348,0.295,0.167,sad
6.66,2019,3824,3632,2610,606,0,0,0,1579,2553,15,2472,2567,1677,1579,3213,2.006,4.204,8.729,1.267,0.323,0.162,1.089,-3.218,10.048,-0.223,0.025,0.102,sad
6.67,2009,3667,3563,2396,389,0,0,0,1581,2556,17,2475,2565,1676,1580,3098,1.709,4.563,8.598,1.448,0.295,0.238,1.389,-3.175,9.582,-0.123,0.103,0.131,sad
6.68,2102,3287,3378,2117,42,0,0,0,1578,2552,15,2461,2553,1675,1575,3061,1.911,4.676,8.792,1.654,0.367,0.194,1.618,-3.373,9.661,-0.082,0.152,0.102,sad
6.69,2173,2684,3035,1712,0,0,0,0,1653,2549,606,2478,2549,1673,1575,3101,2.179,5.231,8.854,1.926,0.297,0.129,1.401,-3.105,9.251,-0.115,0.046,0.067,sad
6.70,2108,2491,2745,1456,0,0,0,0,1593,2549,775,2477,2568,1672,1564,3100,1.779,4.865,9.790,2.316,0.321,-0.064,1.427,-3.191,9.471,-0.043,0.047,0.037,sad
6.71,1906,1904,2128,1285,0,0,0,0,1595,2550,1033,2461,2569,1670,1575,3100,1.147,5.878,10.221,2.975,-0.258,-0.247,1.482,-3.268,9.481,-0.004,0.074,0.037,sad
6.72,1664,1107,586,930,0,0,0,0,1597,2517,1103,2478,2569,1671,1573,3099,2.672,7.207,9.694,3.736,-0.282,-0.740,1.398,-3.215,9.574,0.031,0.088,0.022,sad
6.73,1163,585,0,273,0,0,0,0,1589,2549,1123,2479,2463,1669,1573,3101,2.052,7.901,8.950,3.736,0.375,-1.053,1.384,-3.201,9.464,0.038,0.071,0.008,sad
6.74,261,179,0,0,0,0,0,0,1607,2549,1144,2478,2567,1669,1583,2971,1.310,7.348,14.854,2.373,1.154,-1.363,1.384,-3.215,9.534,0.040,0.065,0.005,sad
6.75,0,0,0,0,0,0,0,0,1607,2549,1164,2516,2568,1669,1576,3155,2.447,1.274,11.914,0.196,0.927,-1.441,1.350,-3.098,9.471,0.049,0.083,0.012,sad
6.76,0,0,0,0,0,0,0,0,1593,2567,1144,2477,2568,1661,1575,3099,3.615,3.184,10.762,-0.509,0.696,-0.913,1.413,-3.045,9.371,0.045,0.091,0.021,sad
6.77,0,0,0,0,0,0,0,0,1606,2549,1144,2479,2557,1669,1576,3101,3.869,1.772,8.803,-1.227,0.580,-0.766,1.358,-3.014,9.392,0.031,0.073,0.033,sad
6.78,0,0,0,0,0,0,0,0,1607,2463,1164,2478,2570,1671,1575,3101,3.462,2.346,8.516,-1.778,0.180,-0.569,1.384,-3.055,9.371,-0.011,0.080,0.043,sad
6.79,0,0,0,0,0,0,0,0,53,549,1742,1710,2117,12,3576,4095,3.792,2.629,7.946,-2.216,-0.099,-0.360,1.348,-3.031,9.361,-0.029,0.014,0.062,sad
6.80,0,0,0,0,0,0,0,0,77,573,1799,1781,2139,37,3561,4095,4.116,3.201,8.535,-2.325,-0.199,-0.152,1.437,-3.062,9.443,-0.044,0.036,0.078,sad
6.81,0,0,0,0,0,0,0,0,55,552,1832,1765,2143,18,3519,4082,4.496,3.895,9.074,-2.506,-0.324,0.023,1.422,-3.093,9.366,-0.063,0.036,0.090,sad
6.82,0,0,0,0,0,0,0,0,47,585,1891,1861,2207,17,3595,4095,4.697,4.324,8.832,-2.679,-0.440,0.258,1.494,-3.127,9.443,-0.069,0.037,0.091,sad
6.83,0,0,0,0,0,0,0,0,37,683,1922,1912,2258,23,3624,4095,4.065,4.590,8.705,-2.747,-0.574,0.504,1.417,-3.206,9.474,-0.064,0.039,0.085,sad
6.84,0,0,0,0,0,0,0,0,41,765,1891,1941,2271,13,3556,4095,3.606,5.171,9.134,-2.753,-0.770,0.731,1.389,-3.179,9.390,-0.063,0.038,0.086,sad
6.85,0,0,0,0,0,0,0,0,44,803,1980,1991,2342,16,3615,4095,4.082,5.612,9.445,-2.741,-0.839,0.970,1.341,-3.074,9.309,-0.072,0.037,0.077,sad
6.86,0,0,0,0,0,0,0,0,51,794,1991,2095,2312,17,3565,4095,4.475,5.765,9.692,-2.660,-0.774,1.266,1.441,-3.239,9.402,-0.084,0.025,0.073,sad
6.87,0,0,0,0,0,0,0,0,37,830,2044,2151,2427,11,3640,4095,4.523,5.962,10.171,-2.562,-0.653,1.602,1.429,-3.146,9.354,-0.100,0.045,0.101,sad
6.88,0,0,0,0,0,0,0,0,51,889,2075,2245,2479,19,3657,4095,4.245,6.194,10.961,-2.473,-0.564,1.925,1.350,-3.256,9.445,-0.090,0.046,0.101,sad
6.89,0,0,0,0,0,0,0,0,44,875,2073,2341,2557,31,3668,4095,3.826,6.548,11.729,-2.415,-0.538,2.184,1.276,-3.333,9.522,-0.078,0.033,0.087,sad
6.90,0,0,0,0,0,0,0,0,39,987,2078,2363,2606,11,3624,4095,3.713,6.886,12.170,-2.401,-0.466,2.402,1.369,-3.304,9.390,-0.064,0.035,0.086,sad
6.91,0,0,0,0,0,0,0,0,78,1036,2075,2441,2715,21,3615,4078,3.438,6.965,11.863,-2.362,-0.382,2.555,1.353,-3.275,9.421,-0.051,0.036,0.079,sad
6.92,0,0,0,0,0,0,0,0,52,1000,1988,2360,2523,27,3375,3736,3.302,6.867,10.503,-2.102,-0.329,2.674,1.360,-3.215,9.357,-0.053,0.019,0.084,sad
6.93,0,0,0,0,0,0,0,0,218,1081,2111,2583,2749,43,3615,4077,2.696,6.692,9.445,-1.623,-0.134,2.600,1.269,-3.223,9.292,-0.061,0.014,0.090,sad
6.94,0,0,0,0,0,0,0,0,350,1097,2144,2670,2860,50,3643,4095,1.099,9.100,4.250,-0.398,0.566,2.299,1.314,-3.338,9.452,-0.039,0.010,0.069,sad
6.95,0,0,0,0,0,0,0,0,416,1275,2111,2699,2909,51,3747,4095,-0.668,11.360,10.855,-0.235,0.329,1.882,1.310,-3.299,9.407,-0.031,0.007,0.072,sad
6.96,0,0,0,0,0,0,0,0,492,1316,2157,2711,2932,51,3621,4095,3.639,11.167,12.651,-0.849,-0.730,1.824,1.386,-3.254,9.361,-0.042,0.004,0.079,sad
6.97,0,0,0,0,0,0,0,0,812,1545,2172,2711,3031,54,3545,4067,3.199,8.349,9.347,-1.311,-0.496,1.752,1.341,-3.498,9.500,-0.036,0.007,0.069,sad
6.98,0,0,0,0,0,0,0,0,1059,1692,2178,2731,3087,55,3430,4016,1.942,7.080,4.903,-0.745,-0.173,1.665,1.240,-3.287,9.297,-0.042,0.015,0.056,sad
6.99,0,0,0,0,0,0,0,0,1307,1751,2183,2805,3103,51,3323,3987,3.555,6.112,6.797,-0.237,0.214,1.622,1.403,-3.397,9.464,-0.025,0.041,0.061,sad
7.00,0,0,0,0,0,0,0,0,1564,1879,2180,2910,3099,47,2973,3927,5.710,4.147,7.633,-0.071,0.529,1.940,1.235,-3.407,9.359,-0.029,0.090,0.066,sad
7.01,0,0,0,0,0,0,0,0,1767,1937,2190,3043,3045,82,2379,3831,4.274,3.345,8.234,-0.095,0.763,2.481,1.298,-3.397,9.515,-0.034,0.116,0.065,sad
7.02,0,0,0,0,0,0,0,0,1948,1893,2193,3125,2991,47,2141,3773,3.340,3.261,7.810,0.025,0.599,2.984,0.764,-3.239,9.507,-0.074,0.085,0.060,sad
7.03,0,0,0,0,0,0,0,0,2147,2011,2195,3177,2886,47,2055,3688,2.504,4.089,8.231,0.059,0.600,3.096,1.130,-3.402,9.483,-0.059,0.094,0.056,sad
7.04,0,0,0,0,0,0,0,0,2239,1991,2195,3240,2661,47,1949,3603,2.243,4.781,7.750,0.102,0.585,3.146,1.319,-3.531,9.515,-0.036,0.119,0.058,sad
7.05,0,0,0,0,0,0,0,0,2391,1941,2193,3300,2469,47,1711,3497,2.176,5.392,6.922,0.174,0.593,3.143,1.336,-3.553,9.304,-0.040,0.099,0.056,sad
7.06,0,0,0,0,0,0,0,0,2438,1948,2188,3349,2315,48,1604,3369,1.891,5.751,5.832,0.260,0.637,3.119,1.197,-3.687,9.574,-0.016,0.118,0.059,sad
7.07,0,0,0,0,0,0,0,0,2570,1865,2190,3348,2281,47,1383,3241,1.422,6.474,5.409,0.444,0.535,3.051,1.221,-3.618,9.366,-0.018,0.109,0.048,sad
7.08,0,0,0,0,0,0,0,0,2705,1844,2188,3421,2321,47,1359,3135,1.518,7.386,5.404,0.661,0.413,3.001,1.247,-3.481,9.412,-0.017,0.091,0.042,sad
7.09,0,0,0,0,0,0,0,0,2771,1934,2190,3468,2277,47,1300,2985,1.587,8.425,5.341,0.847,0.327,2.921,1.257,-3.491,9.342,-0.021,0.092,0.040,sad
7.10,0,0,0,0,10,0,0,0,2854,1972,2080,3488,2293,47,1113,2836,1.712,8.571,4.477,0.995,0.402,2.759,1.269,-3.464,9.361,-0.019,0.099,0.043,sad
7.11,0,0,0,0,0,0,0,0,2979,1995,2198,3542,2253,47,873,2396,4.654,9.062,1.508,2.174,-0.048,2.481,-1.410,-2.614,8.935,-0.108,0.143,0.032,sad
7.12,0,0,0,0,0,0,0,798,3032,2039,2203,3558,2019,87,887,2091,-4.745,-3.053,14.451,1.413,0.723,2.040,1.159,-2.502,10.671,-0.386,0.081,0.020,sad
7.13,0,0,0,0,179,0,279,2603,3107,1991,2203,3573,1843,47,487,2031,-16.755,1.963,16.891,3.054,-1.316,0.567,0.773,-3.146,8.729,-0.120,0.091,0.026,sad
7.14,0,0,0,0,191,0,530,3029,3146,1899,2203,3591,1303,11,1,1799,3.043,6.002,11.595,1.511,-1.042,-0.276,1.429,-3.237,9.778,-0.269,0.122,0.050,sad
7.15,0,28,0,0,277,0,1166,3216,3262,1700,2280,3604,804,21,3,1435,4.049,3.242,9.804,1.388,-0.637,-0.310,-0.393,-3.338,8.667,-0.513,0.195,-0.080,sad
7.16,0,700,0,0,889,0,1803,3280,3411,1626,2111,3641,476,5,4,1465,3.761,8.229,13.436,0.898,0.788,-0.357,0.946,-3.807,9.373,-0.573,0.126,-0.128,sad
7.17,0,1520,0,0,1046,0,2149,3296,3465,1343,2270,3639,180,57,0,1257,3.625,3.285,9.416,0.524,0.658,-0.442,1.290,-3.934,9.385,-0.589,0.078,-0.159,sad
7.18,0,1909,0,0,1378,0,2349,3320,3435,1016,2247,3565,0,0,0,1125,2.382,3.199,9.266,0.517,0.703,-0.498,2.674,-4.003,8.739,-0.832,0.130,-0.200,sad
7.19,0,2373,0,0,1752,0,2436,3215,3425,1095,2239,3545,0,0,0,1020,1.410,3.484,9.926,0.369,0.619,-0.497,1.401,-4.164,8.763,-0.889,0.228,-0.173,sad
7.20,0,2710,0,0,2096,0,2559,3373,3403,875,2213,3425,0,0,0,888,0.998,3.895,10.508,0.237,0.128,-0.287,1.753,-4.477,9.167,-0.961,0.277,0.205,sad
7.21,144,2842,386,0,2320,0,2676,3425,3388,1,2213,3299,0,0,0,742,1.358,3.601,9.685,0.155,-0.020,-0.083,0.989,-5.090,8.162,-0.898,-0.017,1.026,sad
7.22,294,2890,878,0,2509,0,2780,3440,3383,18,2108,3244,0,0,0,712,1.468,2.976,9.742,0.188,0.008,-0.063,1.724,-4.736,8.078,-0.802,-0.183,1.448,sad
7.23,432,2995,1443,0,2707,0,2864,3456,3270,0,1625,3017,0,0,0,522,1.748,3.402,9.352,0.176,-0.028,-0.042,1.243,-6.098,8.619,-0.554,-0.595,2.329,sad
7.24,474,2847,1807,129,2727,0,2957,3308,2984,0,0,2931,0,0,0,485,1.753,3.175,9.203,0.184,-0.002,-0.091,1.927,-6.292,8.473,-0.138,-1.064,3.140,sad
7.25,578,3110,2143,247,2981,0,2991,3467,2831,0,0,2799,18,0,0,295,1.779,3.349,9.258,0.222,0.036,-0.124,1.410,-5.811,8.181,0.000,-1.260,3.437,sad
7.26,704,3177,2432,336,3085,0,3039,3469,1595,2551,0,2467,2577,1661,1567,3103,1.630,3.273,9.263,0.213,0.017,-0.107,0.970,-6.122,7.609,0.323,-1.783,4.034,sad
7.27,880,3069,2642,567,3015,0,3090,3259,1659,2551,0,2475,2575,1662,1566,3101,1.566,3.503,9.335,0.190,0.052,-0.076,0.630,-5.787,7.757,0.608,-2.261,4.366,sad
7.28,1056,3267,2661,938,3165,0,3061,3411,1591,2572,0,2485,2573,1659,1565,3103,1.729,3.393,9.160,0.161,0.058,-0.069,0.182,-5.459,7.956,0.713,-2.473,4.366,sad
7.29,1105,3359,2846,1344,3213,0,3087,3459,1593,2551,0,2487,2575,1672,1563,3103,1.432,3.630,9.416,0.133,0.038,-0.034,-0.453,-4.791,8.590,0.799,-2.696,4.366,sad
7.30,1182,3216,2935,1535,3152,0,3085,3250,1572,2551,0,2549,2573,1661,1567,3102,1.446,3.673,9.306,0.091,0.046,0.000,-1.159,-5.341,8.684,0.829,-2.519,4.366,sad
7.31,1245,3431,3007,1731,3273,0,3091,3449,1591,2551,0,2488,2579,1660,1561,3101,1.506,3.462,9.256,0.096,0.058,-0.002,-0.261,-5.229,8.394,0.841,-2.530,4.366,sad
7.32,1265,3458,3056,1877,3298,0,3081,3457,1592,2549,0,2488,2579,1662,1565,3103,1.499,3.531,9.263,0.062,0.054,-0.019,0.108,-5.420,9.232,0.769,-2.335,4.366,sad
7.33,1255,3303,3117,1924,3264,0,3086,3182,1591,2551,0,2487,2580,1663,1567,3100,1.489,3.582,9.194,0.046,0.072,0.014,-2.500,-8.576,9.955,0.702,-1.036,2.832,sad
7.34,1275,3482,3150,2081,3332,0,3088,3447,1591,2549,0,2488,2643,1663,1568,3108,1.408,3.563,9.218,0.029,0.073,0.006,-4.729,-7.515,9.699,0.734,-1.144,2.473,sad
7.35,1269,3498,3186,2161,3338,0,3082,3460,1591,2551,0,2473,2589,1671,1568,3097,1.451,3.553,9.285,0.030,0.058,0.013,-3.912,-7.080,7.199,0.563,-1.099,3.117,sad
7.36,1282,3316,3231,2176,3216,0,3089,3309,1592,2549,0,2485,2579,1663,1512,3103,1.446,3.500,9.278,0.042,0.053,0.019,-2.239,-6.656,7.159,0.313,-0.810,3.448,sad
7.37,1276,3518,3248,2266,3361,0,3105,3456,1529,2549,0,2479,2557,1662,1567,3103,1.427,3.508,9.280,0.051,0.051,0.028,-2.128,-6.481,7.307,0.155,-0.580,3.628,sad
7.38,1219,3518,3267,2277,3362,0,3087,3447,1589,2549,0,2486,2579,1660,1566,3101,1.463,3.517,9.191,0.051,0.046,0.022,-1.779,-7.056,9.713,0.102,-0.549,4.147,sad
7.39,1232,3541,3288,2112,3371,0,3088,3272,1590,2551,0,2487,2579,1672,1567,3101,1.403,3.488,9.225,0.051,0.050,0.013,-0.242,-6.527,7.975,0.361,-0.750,4.366,sad
7.40,1249,3539,3306,2302,3359,0,3071,3409,1590,2551,0,2485,2579,1663,1568,3113,1.453,3.455,9.203,0.054,0.048,0.006,0.752,-6.203,6.888,0.269,-0.706,4.366,sad
7.41,1325,3536,3329,2371,3351,0,3063,3391,1589,2550,0,2487,2579,1663,1571,3104,1.475,3.496,9.199,0.074,0.061,0.003,3.383,-6.373,7.355,-0.062,-0.640,4.366,sad
7.42,1353,3334,3343,2381,3200,0,3050,3220,1591,2585,0,2488,2577,1663,1565,3103,1.511,3.464,9.170,0.075,0.059,0.000,6.024,-5.607,6.665,-0.359,-0.743,3.707,sad
7.43,1471,3531,3344,2507,3301,0,3024,3371,1591,2550,0,2479,2579,1669,1567,3104,1.446,3.548,9.278,0.078,0.060,0.002,6.718,-5.037,6.541,-0.585,-0.693,3.016,sad
7.44,1532,3531,3370,2559,3231,0,3013,3361,1592,2551,0,2487,2575,1669,1567,3103,1.417,3.457,9.234,0.074,0.067,0.003,-13.716,4.458,19.613,-1.206,-2.529,1.432,sad
7.45,1563,3536,3392,2416,3086,0,2993,3263,1553,2552,63,2444,2565,1663,1567,3117,1.427,3.543,9.249,0.082,0.072,-0.001,4.772,2.667,12.586,-0.258,-1.887,0.866,sad
7.46,1657,3505,3400,2642,3045,0,2963,3350,1509,2571,0,2460,2551,1699,1593,3099,1.429,3.632,9.244,0.069,0.085,-0.000,3.057,3.800,13.259,0.198,-1.854,1.098,sad
7.47,1678,3487,3394,2678,3046,0,2928,3353,1301,3,2,326,2315,2005,2089,0,1.448,3.519,9.258,0.069,0.074,0.002,3.093,0.915,11.315,-0.133,-1.816,1.356,sad
7.48,1750,3263,3405,2640,2928,0,2855,3216,122,0,0,651,0,0,0,0,1.381,3.603,9.306,0.059,0.071,-0.003,-0.225,-5.380,9.718,0.122,-1.038,0.541,sad
7.49,1730,3438,3396,2690,3054,0,2683,3370,104,0,0,838,0,0,0,0,1.396,3.596,9.261,0.059,0.073,0.004,0.316,1.949,7.843,0.421,-0.609,0.095,sad
7.50,1728,3369,3392,2682,3010,0,2526,3353,243,0,0,1247,0,21,0,41,1.283,3.563,9.203,0.058,0.078,-0.004,0.649,-3.558,10.082,-0.293,-1.037,-0.325,sad
7.51,1756,3158,3389,2638,2863,0,2467,3207,351,0,0,1419,0,0,0,201,1.341,3.529,9.237,0.055,0.061,-0.005,2.344,-5.112,10.101,0.227,0.051,-0.050,sad
7.52,1776,3351,3378,2709,2973,0,2393,3355,438,0,0,1655,21,0,39,508,1.398,3.527,9.313,0.058,0.068,-0.015,2.291,-5.409,11.210,-0.107,-0.118,-0.204,sad
7.53,1745,3312,3274,2682,2896,0,2193,3312,544,0,0,1971,0,0,311,1459,1.305,3.546,9.280,0.065,0.073,-0.021,1.666,-3.938,9.534,-0.079,-0.073,-0.033,sad
7.54,1830,3097,3361,2539,2754,0,2202,3123,581,0,0,2036,0,0,522,2248,1.259,3.587,9.182,0.059,0.071,-0.021,0.395,-3.436,9.234,-0.066,-0.106,-0.033,sad
7.55,1835,3310,3325,2703,2879,0,2066,3237,525,5,0,2109,0,0,633,2453,1.288,3.563,9.234,0.046,0.078,-0.027,0.184,-3.428,9.182,-0.117,-0.154,-0.081,sad
7.56,1831,3269,3280,2667,2813,0,1941,3223,667,1,1256,2227,0,0,701,2726,1.293,3.625,9.244,0.031,0.094,-0.038,1.120,-3.692,9.311,-0.082,-0.083,-0.094,sad
7.57,1813,3228,3233,2443,2723,0,1830,3152,808,397,1248,2387,6,4,767,2893,1.312,3.620,9.287,0.013,0.110,-0.050,0.915,-3.800,9.297,-0.010,-0.076,-0.053,sad
7.58,1744,3120,3125,2559,2525,0,1666,3198,683,419,1425,2461,69,45,858,2989,1.300,3.654,9.258,-0.008,0.135,-0.046,0.845,-3.785,9.369,-0.005,-0.092,-0.054,sad
7.59,1620,2987,2991,2453,2003,0,1535,3191,791,548,1732,2531,155,38,1081,3125,1.293,3.666,9.287,-0.049,0.140,-0.039,0.852,-3.685,9.203,0.020,-0.076,-0.043,sad
7.60,1487,2736,2813,2276,1443,0,1360,3184,1592,2551,1220,2483,2571,1663,1589,3100,1.346,3.701,9.359,-0.086,0.162,-0.024,0.943,-3.718,9.275,0.038,-0.014,-0.050,sad
7.61,1325,2317,2448,1857,1115,0,1045,3141,1593,2616,1236,2349,2565,1669,1572,3103,1.372,3.637,9.359,-0.159,0.217,-0.005,1.053,-3.740,9.278,0.045,0.002,-0.055,sad
7.62,1072,1393,1621,1150,713,0,576,3030,919,901,1942,2787,651,48,1863,3359,1.511,3.903,9.536,-0.245,0.283,0.047,1.116,-3.673,9.404,0.067,-0.064,-0.042,sad
7.63,658,847,667,557,202,0,336,2595,1587,2550,1369,2479,2569,1640,1575,3099,2.672,4.671,9.402,-0.319,0.447,0.196,0.927,-3.642,9.342,0.094,-0.006,-0.046,sad
7.64,101,82,42,176,0,0,30,2224,1577,2549,1379,2479,2568,1660,1575,3055,5.993,3.598,7.989,-0.286,0.541,0.415,1.032,-3.654,9.278,0.097,0.031,-0.029,sad
7.65,0,0,0,0,0,0,0,1168,1597,2550,1405,2479,2568,1662,1573,3101,15.517,6.091,9.172,-0.308,1.069,1.694,0.967,-3.670,9.318,0.117,0.020,-0.037,sad
7.66,0,0,0,0,0,0,0,276,1605,2547,1415,2483,2569,1669,1573,3101,11.126,7.075,9.653,-0.577,1.446,3.655,1.075,-3.565,9.450,0.111,0.042,-0.019,sad
7.67,0,0,0,0,0,0,0,0,1634,2550,1423,2495,2573,1675,1578,3103,6.855,5.947,7.350,-0.450,1.950,4.699,1.109,-3.491,9.424,0.097,0.053,-0.012,sad
7.68,0,0,0,0,0,0,0,0,1101,1353,2124,3066,2208,47,3067,3796,4.712,5.531,6.663,-0.261,2.116,5.247,1.013,-3.481,9.354,0.063,0.014,0.021,sad
7.69,0,0,0,0,0,0,0,0,1209,1363,2142,3035,2261,53,3081,3704,5.231,5.696,5.909,0.084,2.371,5.576,1.027,-3.536,9.416,0.054,0.005,0.017,sad
7.70,0,0,0,0,0,0,0,0,1227,1355,2157,3054,2313,47,3126,3699,4.077,6.764,6.400,0.293,2.724,5.732,1.010,-3.503,9.390,0.044,-0.006,0.017,sad
7.71,0,0,0,0,0,0,0,0,1215,1415,2106,3032,2339,51,3128,3707,3.929,7.870,6.639,0.527,2.712,5.868,1.101,-3.529,9.419,0.044,-0.005,0.023,sad
7.72,0,0,0,0,0,0,0,0,1183,1389,2154,3049,2355,47,3065,3683,0.194,7.441,8.011,0.444,2.426,5.571,1.111,-3.519,9.380,0.043,0.003,0.027,sad
7.73,0,0,0,0,0,0,0,0,1149,1435,2172,3055,2408,47,3159,3709,0.160,6.333,8.531,0.592,1.334,5.247,1.051,-3.575,9.407,0.046,0.008,0.032,sad
7.74,0,0,0,0,0,0,0,0,1139,1509,2149,3039,2397,48,3079,3543,0.134,4.846,8.602,0.578,0.737,4.539,1.056,-3.522,9.299,0.054,0.019,0.036,sad
7.75,0,0,0,0,0,0,0,0,1133,1421,2116,3034,2388,57,3064,3589,0.053,4.053,9.060,0.670,0.492,3.891,0.984,-3.778,9.740,0.035,0.009,0.044,sad
7.76,0,0,0,0,0,0,0,0,971,1405,2067,2950,2312,53,2962,3438,0.433,3.357,9.946,0.593,0.339,3.263,1.075,-3.551,9.424,0.050,0.031,0.034,sad
7.77,0,0,0,0,0,0,0,0,974,1484,2175,3113,2425,46,3095,3628,1.080,2.533,10.350,0.434,0.354,2.716,1.065,-3.541,9.352,0.048,0.026,0.040,sad
7.78,0,0,0,0,0,0,0,0,1013,1479,2178,3156,2439,53,3083,3613,1.800,1.484,10.609,0.267,0.294,2.286,1.065,-3.457,9.373,0.049,0.022,0.038,sad
7.79,0,0,0,0,0,0,0,0,943,1459,2208,3189,2453,47,3107,3613,2.025,1.082,11.131,0.027,0.144,1.943,1.085,-3.474,9.311,0.048,0.016,0.038,sad
7.80,0,0,0,0,0,0,0,0,1017,1511,2193,3206,2449,47,3108,3609,2.607,0.838,10.779,-0.155,-0.047,1.826,1.044,-3.467,9.318,0.047,0.009,0.035,sad
7.81,0,0,0,0,0,0,0,0,1017,1587,2165,3192,2415,111,3055,3482,2.916,0.632,9.395,-0.175,-0.248,1.877,1.070,-3.493,9.345,0.051,0.030,0.045,sad
7.82,0,0,0,0,0,0,0,0,933,1325,1993,2927,2216,48,2807,3175,3.026,1.513,8.914,0.011,-0.420,1.996,1.089,-3.462,9.409,0.051,0.043,0.046,sad
7.83,0,0,0,0,0,0,0,0,955,1461,2121,3225,2372,46,3051,3455,3.227,2.715,9.263,0.183,-0.501,2.170,1.087,-3.440,9.349,0.047,0.035,0.047,sad
7.84,0,0,0,0,0,0,0,0,998,1485,2188,3222,2324,48,3065,3438,2.516,3.864,9.766,0.237,-0.697,2.331,1.089,-3.448,9.280,0.041,0.032,0.047,sad
7.85,0,0,0,0,0,0,0,0,1045,1582,2188,3211,2281,59,3087,3400,2.172,4.958,10.204,0.282,-0.868,2.517,0.982,-3.347,8.732,0.042,0.041,0.035,sad
7.86,0,0,0,0,0,0,0,0,1203,1608,2190,3219,2325,5,2999,3356,2.504,7.769,12.718,-0.106,-0.364,2.659,0.996,-3.412,9.414,0.021,0.033,0.040,sad
7.87,0,0,0,0,0,0,0,0,1293,1715,2193,3237,2389,47,2923,3353,0.108,8.622,12.342,-0.779,0.315,2.681,1.018,-3.383,9.258,0.011,0.013,0.035,sad
7.88,0,0,0,0,0,0,0,0,1395,1816,2193,3224,2334,43,2878,3336,-1.946,8.674,9.002,-1.060,0.017,2.532,1.056,-3.428,9.359,-0.001,0.019,0.037,sad
7.89,0,0,0,0,0,0,0,0,1557,1831,2183,3225,2367,47,2651,3307,-2.143,9.500,6.026,-0.908,-0.341,2.247,1.216,-3.357,8.317,0.002,0.046,0.031,sad
7.90,0,0,0,0,0,0,0,0,1622,1962,2203,3303,2407,56,2494,3343,-2.064,10.700,3.936,-0.599,-0.391,2.216,0.986,-3.414,9.364,-0.013,0.010,0.034,sad
7.91,0,0,0,0,0,0,0,0,1737,1911,2208,3378,2397,47,2541,3354,-2.239,10.496,1.635,0.014,0.057,2.243,0.632,-3.153,9.052,0.001,0.051,0.037,sad
7.92,0,0,0,0,0,0,0,0,1933,1850,2218,3315,2379,47,2460,3349,-5.092,10.637,0.883,1.239,1.841,2.224,1.044,-3.366,9.538,-0.013,0.053,0.035,sad
7.93,0,0,0,0,0,0,0,5,2138,1967,2218,3337,2331,45,2359,3291,-4.424,2.195,17.329,0.245,1.160,1.863,1.750,-3.345,9.151,-0.050,0.109,0.046,sad
7.94,0,0,0,0,0,0,334,2105,2221,1939,2218,3399,2376,47,2193,3223,-19.613,-3.012,9.907,1.943,-0.528,-0.230,1.137,-3.256,9.316,-0.090,0.089,0.044,sad
7.95,0,0,0,0,15,0,786,2761,2503,1890,2221,3449,2185,57,1557,2919,4.676,8.195,12.797,1.338,-1.426,-0.238,1.226,-3.273,9.146,-0.142,0.132,0.051,sad
7.96,0,0,0,0,155,0,1667,3042,2747,1895,2224,3495,1609,69,919,2299,10.685,7.970,12.766,1.228,0.025,-0.274,1.204,-3.306,9.474,-0.151,0.134,0.085,sad
7.97,0,487,0,0,608,0,2105,3150,2869,1759,2290,3567,1197,47,688,1908,5.859,0.364,8.147,0.425,1.057,-0.407,1.391,-3.376,9.749,-0.268,0.154,0.080,sad
7.98,0,636,0,0,1089,0,2227,3216,3055,1446,2231,3679,521,5,4,1453,0.893,3.874,11.581,0.361,0.544,-0.195,1.027,-4.298,8.882,-0.297,0.121,0.112,sad
7.99,0,1173,0,0,1279,0,2286,3277,3171,1171,2234,3733,205,23,1,1484,2.832,3.938,10.185,0.082,0.564,-0.260,0.649,-3.637,9.237,-0.609,0.190,-0.167,sad
8.00,0,1426,0,0,1487,0,2381,3325,3245,1149,2188,3765,21,3,0,1351,0.950,3.287,10.403,0.280,0.826,-0.111,0.618,-3.833,9.474,-0.667,0.084,-0.247,sad
8.01,0,1535,0,0,1611,0,2300,3147,3357,1135,2270,3781,5,0,0,1151,1.894,2.658,9.330,0.121,0.472,-0.331,0.967,-3.869,9.213,-0.777,0.150,-0.303,sad
8.02,0,1616,0,0,1829,0,2559,3187,1663,2549,1574,2525,2571,1671,1576,3111,2.567,2.679,8.997,0.128,0.463,-0.191,0.982,-4.274,9.100,-0.913,0.322,-0.270,sad
8.03,0,1935,0,0,2112,0,2613,3391,1661,2549,1584,2479,2565,1671,1605,3096,0.948,2.923,9.598,0.098,0.551,-0.076,1.051,-4.736,8.803,-1.001,0.270,-0.273,sad
8.04,0,2192,0,0,2273,0,2672,3441,1662,2547,1604,2479,2572,1669,1567,3096,1.219,3.168,9.469,0.205,0.328,-0.088,1.087,-4.386,9.086,-1.094,0.473,-0.190,sad
8.05,0,2310,190,0,2237,0,2701,3302,1659,2549,1574,2459,2568,1659,1573,3101,1.520,2.976,9.433,0.179,0.122,-0.133,1.235,-4.927,9.067,-1.436,0.608,-0.090,sad
8.06,0,2711,706,0,2471,0,2817,3534,1740,2550,1548,2480,2575,1670,1461,3101,1.408,3.024,9.488,0.181,0.088,-0.072,1.006,-4.635,9.562,-1.664,0.717,0.023,sad
8.07,0,2879,1285,105,2622,0,2893,3575,1635,2579,1200,2479,2571,1661,1573,3102,1.381,3.254,9.503,0.139,0.010,-0.034,1.147,-4.958,8.629,-2.318,0.541,0.529,sad
8.08,0,2997,1699,370,2704,0,3000,3633,1593,2551,0,2483,2575,1663,1572,3160,1.408,3.115,9.488,0.119,0.016,-0.031,1.769,-6.053,9.941,-2.762,0.107,1.525,sad
8.09,0,3053,1925,653,2818,0,3098,3649,1589,2553,0,2483,2573,1663,1579,3093,1.551,3.081,9.419,0.124,0.002,-0.047,1.578,-8.401,11.530,-2.792,-0.132,2.134,sad
8.10,80,3126,2114,807,2918,0,3123,3649,1587,2551,0,2479,2569,1663,1572,3101,1.446,3.215,9.436,0.109,-0.026,-0.031,0.618,-7.865,9.024,-3.122,-0.803,2.905,sad
8.11,133,3019,2286,970,2960,0,3191,3456,1581,2553,0,2479,2571,1672,1573,3103,1.537,3.177,9.426,0.088,0.018,-0.011,-0.764,-9.098,10.185,-2.015,-1.177,3.540,sad
8.12,167,3251,2421,1120,3067,0,3210,3654,1583,2553,0,2477,2573,1651,1572,3101,1.549,3.081,9.311,0.105,0.028,-0.019,1.149,-5.665,10.511,-0.749,-1.015,3.904,sad
8.13,194,3289,2522,1248,3120,0,3216,3648,1584,2551,0,2483,2575,1669,1568,3100,1.511,3.172,9.345,0.127,0.012,-0.032,3.383,-4.484,10.491,0.727,-0.803,2.971,sad
