timestamp,L1,L2,L3,L4,L5,L6,L7,L8,R1,R2,R3,R4,R5,R6,R7,R8,acc_x_left,acc_y_left,acc_z_left,gyro_x_left,gyro_y_left,gyro_z_left,acc_x_right,acc_y_right,acc_z_right,gyro_x_right,gyro_y_right,gyro_z_right,mood
0.00,2969,2580,3504,3105,1920,0,1663,1959,1373,661,2961,3119,123,35,3111,3175,1.123,3.869,9.222,0.048,0.027,-0.002,0.646,-3.943,9.428,0.016,0.005,0.010,sad
0.01,2985,2559,3495,3101,1666,0,1523,1823,1371,831,3058,3161,304,39,3215,3350,1.106,3.857,9.199,0.051,0.031,-0.005,0.611,-3.847,9.364,0.007,-0.003,0.000,sad
0.02,2982,2507,3485,3090,1488,0,1360,1659,1375,821,3076,3135,190,43,3243,3231,1.092,3.814,9.194,0.046,0.032,-0.004,0.670,-3.840,9.340,-0.010,0.002,-0.005,sad
0.03,2987,2471,3471,3088,1418,0,1149,1343,1390,815,3101,3144,330,44,3320,3274,1.118,3.881,9.182,0.058,0.028,-0.003,0.699,-3.883,9.404,0.001,-0.003,0.004,sad
0.04,2989,2432,3431,3071,1249,0,1011,1122,1365,919,3160,3189,343,47,3401,3281,1.080,3.879,9.187,0.046,0.029,0.000,0.611,-3.938,9.376,0.015,0.011,0.018,sad
0.05,2993,2442,3455,3071,1203,0,909,959,1389,949,3037,3081,340,56,3415,3276,1.137,3.831,9.189,0.055,0.027,-0.003,0.697,-3.895,9.371,0.019,0.000,0.000,sad
0.06,3003,2426,3439,3083,1136,0,851,780,1401,1012,3165,3223,413,50,3450,3285,1.109,3.821,9.170,0.045,0.037,-0.008,0.663,-3.850,9.357,0.009,0.007,0.008,sad
0.07,2997,2418,3435,3071,1013,0,715,656,1388,1007,3176,3199,435,29,3484,3421,1.053,3.895,9.179,0.041,0.032,-0.004,0.694,-3.905,9.376,0.010,0.005,0.007,sad
0.08,3001,2394,3425,3063,1232,0,704,631,1384,1048,3183,3256,427,44,3493,3283,1.142,3.857,9.167,0.029,0.031,-0.004,0.709,-3.898,9.366,0.015,0.004,0.007,sad
0.09,2997,2393,3419,3067,1207,0,724,733,1351,1037,3178,3239,475,47,3629,3308,1.085,3.824,9.134,0.041,0.036,-0.008,0.699,-3.855,9.349,0.019,0.012,0.007,sad
0.10,3003,2412,3411,3071,1218,0,743,739,1268,1069,3181,3236,468,47,3525,3340,1.116,3.824,9.237,0.049,0.036,-0.010,0.706,-3.845,9.402,0.022,0.014,0.005,sad
0.11,3017,2446,3424,3070,1244,0,675,693,1199,1107,3176,3251,473,41,3484,3348,1.111,3.869,9.203,0.053,0.033,-0.006,0.728,-3.850,9.230,0.031,0.006,0.006,sad
0.12,3010,2425,3427,3085,1242,0,571,563,1165,1115,3176,3256,483,47,3543,3229,1.097,3.859,9.177,0.048,0.029,-0.008,0.706,-3.869,9.340,0.037,0.002,0.007,sad
0.13,3023,2430,3443,3071,1038,0,474,460,1053,1118,3127,3273,520,19,3556,3379,1.164,3.886,9.196,0.050,0.030,-0.003,0.678,-3.771,9.383,0.017,0.003,0.011,sad
0.14,3007,2409,3415,3061,1014,0,338,192,1107,1147,3176,3283,543,51,3560,3385,1.082,3.922,9.196,0.042,0.023,0.001,0.728,-3.843,9.361,0.003,0.002,0.006,sad
0.15,3019,2373,3407,3050,1125,0,224,64,1063,1211,3191,3283,593,102,3548,3389,1.070,3.654,9.086,0.055,0.028,0.000,0.721,-3.862,9.318,-0.003,0.005,0.013,sad
0.16,3027,2389,3405,3058,1181,0,115,0,1207,1049,3206,3299,599,51,3597,3391,1.118,3.891,9.210,0.069,0.028,0.000,0.666,-3.836,9.383,0.000,0.019,0.021,sad
0.17,3035,2389,3413,3070,1023,0,0,0,1243,1021,3199,3302,623,47,3597,3405,1.154,3.871,9.160,0.087,0.025,0.007,0.622,-3.814,9.311,-0.008,0.021,0.022,sad
0.18,3039,2379,3408,3057,944,0,0,0,1308,1079,3212,3324,749,24,3603,3378,1.099,3.876,9.196,0.078,-0.000,0.023,0.735,-3.857,9.369,-0.008,-0.009,0.016,sad
0.19,3030,2306,3370,3010,912,0,0,0,1419,1105,3055,3323,857,69,3637,3347,1.092,3.974,9.249,0.048,0.013,0.024,0.728,-3.881,9.390,0.008,0.005,0.022,sad
0.20,2961,2094,3284,2918,734,0,0,0,1429,1213,3258,3308,966,53,3823,3341,1.087,3.685,9.084,0.044,-0.002,0.033,0.723,-3.907,9.335,-0.001,0.027,0.019,sad
0.21,2833,1837,3163,2736,545,0,0,0,1478,1049,3048,3317,1205,47,3679,3349,1.223,3.814,9.232,-0.001,-0.029,0.036,0.843,-3.943,9.249,0.020,-0.021,0.001,sad
0.22,2715,1506,3021,2527,245,0,0,0,1453,1195,3078,3321,1583,87,3735,3383,1.262,3.745,9.285,0.071,-0.021,0.047,0.769,-3.821,9.397,0.018,-0.008,0.005,sad
0.23,2598,1174,2922,2148,93,0,0,0,1454,1083,3309,3327,1707,51,3736,3404,1.882,2.243,8.679,0.172,-0.105,-0.043,0.697,-3.893,9.380,0.014,0.015,0.014,sad
0.24,2477,866,2718,1562,27,0,0,0,1511,1195,3309,3381,1959,38,3783,3403,1.530,3.203,8.787,0.312,-0.079,-0.004,0.802,-3.888,9.404,0.031,-0.013,0.006,sad
0.25,2357,624,2400,985,0,0,0,0,1565,1166,3345,3411,2204,45,3816,3511,0.874,3.340,9.299,0.622,-0.058,-0.015,0.709,-3.871,9.371,0.034,0.028,0.023,sad
0.26,2178,317,1829,527,0,0,0,0,1597,1197,3347,3417,2275,48,3848,3531,1.243,3.481,9.823,0.806,-0.083,-0.133,0.754,-3.807,9.371,0.024,0.023,0.025,sad
0.27,2010,0,479,144,0,0,0,0,1673,1188,3416,3453,2347,0,3855,3573,1.683,3.716,9.732,1.035,-0.134,-0.260,0.790,-3.783,9.369,0.014,0.010,0.014,sad
0.28,1615,0,0,0,0,0,0,0,1723,1307,3370,3474,2439,108,3837,3573,1.427,1.970,11.217,0.808,-0.022,-0.655,0.781,-3.816,9.333,-0.010,0.036,0.022,sad
0.29,738,0,0,0,0,0,0,0,1755,1349,3322,3485,2495,47,3810,3555,0.704,1.032,11.258,0.583,0.069,-1.184,0.769,-3.790,9.316,-0.011,0.013,0.018,sad
0.30,343,0,0,0,0,0,0,0,1789,1573,3534,3507,2575,61,3880,3711,1.817,1.743,13.637,-0.042,0.079,-1.279,0.778,-3.828,9.357,-0.013,0.015,0.021,sad
0.31,445,0,0,0,0,0,0,0,1851,1628,3411,3503,2646,55,3865,3496,3.974,0.227,10.173,-0.504,-0.006,-1.037,0.766,-3.804,9.414,-0.011,0.029,0.031,sad
0.32,468,0,0,0,0,0,0,0,1876,1625,3409,3513,2660,93,3880,3465,4.161,0.328,9.795,-0.650,-0.046,-0.618,0.785,-3.874,9.301,-0.022,0.022,0.017,sad
0.33,503,0,0,0,0,0,0,0,1929,1650,3424,3539,2711,45,3877,3384,4.422,0.627,8.993,-0.735,-0.113,-0.117,0.759,-3.871,9.311,-0.024,0.023,0.024,sad
0.34,479,0,0,0,0,0,0,0,1957,1671,3432,3564,2700,47,3859,3305,3.821,1.310,9.165,-0.748,-0.106,0.383,0.735,-3.871,9.431,-0.023,0.033,0.027,sad
0.35,487,0,0,0,0,0,0,0,1945,1675,3432,3560,2749,52,3855,3274,3.227,1.413,8.473,-0.641,0.027,0.743,0.752,-3.831,9.278,-0.035,0.038,0.022,sad
0.36,438,0,0,0,0,0,0,0,1996,1741,3460,3535,2795,50,3803,3252,1.992,3.081,10.927,-0.661,-0.072,0.951,0.771,-3.898,9.369,-0.052,0.033,0.023,sad
0.37,547,0,0,0,0,0,0,0,1981,1677,3460,3581,2876,44,3795,3192,1.070,2.837,10.015,-0.868,0.012,0.949,0.706,-3.965,9.280,-0.080,0.040,0.019,sad
0.38,588,0,0,0,0,0,0,0,1976,1727,3490,3565,2841,51,3783,3287,-0.148,3.428,10.297,-0.911,-0.064,0.764,0.785,-3.917,9.285,-0.085,0.042,0.021,sad
0.39,592,0,0,0,0,0,0,0,1991,1715,3488,3599,2900,57,3711,3096,0.539,4.329,10.472,-0.966,-0.150,0.622,0.716,-3.967,9.328,-0.068,0.051,0.019,sad
0.40,570,0,0,0,0,0,0,0,2103,1759,3508,3631,2951,45,3653,3134,1.144,3.979,8.531,-0.944,0.301,0.518,0.711,-3.998,9.297,-0.036,0.047,0.025,sad
0.41,454,0,0,0,0,0,0,0,2147,1761,3506,3640,2969,48,3607,3063,0.321,5.308,10.927,-0.800,0.276,0.410,0.692,-3.943,9.278,-0.021,0.042,0.027,sad
0.42,491,0,0,0,0,0,0,0,2283,1743,3524,3688,2975,3,3509,3059,0.737,5.425,9.261,-0.917,-0.153,0.455,0.776,-3.986,9.278,-0.008,0.054,0.027,sad
0.43,566,0,0,0,0,0,0,0,2327,1815,3534,3699,3001,47,3400,2981,1.415,4.781,6.610,-0.516,0.127,0.380,0.692,-3.979,9.306,-0.019,0.060,0.023,sad
0.44,563,0,0,0,0,0,0,0,2349,1817,3537,3737,3019,48,3413,2932,2.152,7.197,8.751,-0.350,0.129,0.497,0.740,-3.958,9.373,-0.011,0.060,0.025,sad
0.45,542,0,0,0,0,0,0,0,2423,1789,3539,3753,2995,45,3372,2911,0.460,6.697,6.828,-0.321,0.431,0.658,0.678,-3.962,9.361,-0.026,0.067,0.026,sad
0.46,499,0,0,0,0,0,0,0,2493,1820,3544,3793,2984,46,3333,2859,-2.322,6.254,5.109,0.201,0.307,0.682,0.706,-3.955,9.304,-0.041,0.061,0.026,sad
0.47,310,0,0,0,0,0,0,0,2543,1810,3554,3811,2995,48,3231,2835,-2.535,8.408,5.456,0.605,0.162,0.312,0.694,-3.950,9.369,-0.058,0.067,0.029,sad
0.48,269,0,0,0,0,0,0,0,2569,1834,3572,3833,2963,54,3213,2627,-0.611,7.556,3.531,0.984,0.229,0.063,0.651,-3.986,9.342,-0.086,0.086,0.020,sad
0.49,189,0,0,0,0,0,0,847,2759,1981,3575,3876,2775,52,3020,2281,-1.336,2.076,13.551,0.760,-0.117,0.103,0.634,-4.058,9.345,-0.088,0.080,0.027,sad
0.50,302,0,0,0,0,0,0,1930,2741,1925,3575,3887,2653,47,2973,2101,1.053,2.188,8.262,1.223,0.011,-0.332,0.728,-4.065,9.275,-0.102,0.102,0.032,sad
0.51,286,0,0,0,0,0,306,2624,2815,1915,3588,3928,2141,47,2586,1255,1.346,4.597,10.022,1.182,-0.101,-0.230,0.579,-4.032,9.249,-0.175,0.091,0.027,sad
0.52,443,0,0,0,0,0,1271,2946,2921,1956,3590,3941,1445,46,2169,605,0.757,11.935,19.613,0.740,0.419,-0.964,0.608,-4.199,9.234,-0.247,0.093,0.025,sad
0.53,990,0,0,0,334,0,1781,3137,3005,1919,3631,3949,1071,45,1834,520,1.578,5.066,11.344,0.431,0.029,-0.276,0.426,-4.669,9.208,-0.282,0.110,0.046,sad
0.54,1264,0,0,0,725,0,1898,3243,3128,1945,3621,4013,121,31,693,291,1.109,3.946,10.139,0.264,0.017,-0.161,0.642,-3.761,9.527,-0.366,0.121,-0.046,sad
0.55,1507,184,227,0,972,0,2064,3310,3141,1932,3595,3996,44,1,2,90,1.156,3.852,9.538,0.205,-0.052,-0.153,0.613,-4.554,9.076,-0.397,0.115,-0.164,sad
0.56,1737,511,703,201,1092,0,2197,3359,3179,1887,3575,3967,20,0,0,40,1.068,3.338,9.167,0.151,-0.035,-0.137,0.529,-4.190,9.263,-0.402,0.100,-0.205,sad
0.57,1872,667,1118,829,1046,0,2352,3408,3245,1748,3549,3939,0,0,0,0,1.298,3.455,9.230,0.132,0.008,-0.106,0.469,-4.539,9.105,-0.380,0.064,-0.180,sad
0.58,2035,915,1777,1328,1323,0,2446,3446,3299,1545,3529,3897,0,0,0,0,1.003,3.718,9.354,0.188,0.038,-0.112,0.567,-4.494,9.098,-0.409,0.067,-0.175,sad
0.59,2147,1244,2244,1748,1335,0,2559,3476,3337,1513,3519,3871,0,0,0,0,1.027,3.847,9.392,0.141,0.030,-0.057,0.570,-4.858,9.074,-0.409,0.092,-0.149,sad
0.60,2261,1397,2559,2075,1535,0,2613,3491,3307,0,4095,3763,19,95,3861,0,1.061,3.773,9.201,0.112,0.020,-0.038,0.670,-4.717,8.940,-0.523,0.071,-0.162,sad
0.61,2362,1600,2733,2303,1661,0,2662,3502,1111,21,3273,3751,233,35,3739,4,1.125,3.737,9.227,0.118,0.035,-0.020,0.654,-4.911,8.832,-0.503,0.081,-0.167,sad
0.62,2414,1740,2881,2470,1670,0,2727,3518,1183,21,3314,3805,201,30,3706,3,1.010,3.723,9.158,0.120,0.018,0.010,0.754,-5.047,8.866,-0.570,0.128,-0.164,sad
0.63,2463,1959,3031,2613,1855,0,2858,3536,1128,37,3268,3652,103,26,3619,0,1.032,3.606,9.227,0.131,0.005,0.019,0.886,-5.025,8.813,-0.676,0.161,-0.191,sad
0.64,2497,2047,3147,2729,1954,0,2962,3552,1097,23,3201,3559,98,25,3539,0,1.118,3.807,9.275,0.114,-0.014,0.017,0.565,-5.332,8.686,-0.761,0.215,-0.200,sad
0.65,2535,2177,3242,2803,2035,0,3043,3557,1125,26,3173,3545,97,53,348,0,1.190,3.759,9.120,0.086,0.007,0.004,0.852,-5.693,9.036,-0.751,0.274,-0.199,sad
0.66,2559,2278,3325,2890,2235,0,3141,3565,1069,31,2966,3385,2,47,319,0,1.051,3.780,9.256,0.085,0.003,-0.006,0.685,-5.380,8.935,-0.950,0.319,-0.172,sad
0.67,2627,2352,3385,2941,2308,146,3211,3571,923,25,2718,3155,51,9,223,0,1.164,3.840,9.239,0.092,-0.011,0.013,0.924,-5.567,8.777,-1.211,0.334,0.031,sad
0.68,2657,2377,3437,3010,2455,470,3269,3581,555,35,1727,2915,41,4,108,0,1.037,3.852,9.218,0.045,0.002,-0.006,0.517,-5.349,8.588,-1.396,0.304,0.169,sad
0.69,2723,2423,3487,3070,2504,753,3328,3583,123,47,225,1771,19,0,29,4,1.267,3.833,9.206,0.059,0.018,-0.021,0.917,-7.015,11.095,-1.880,0.039,0.705,sad
0.70,2781,2451,3505,3137,2630,979,3362,3606,73,31,220,92,5,0,21,52,1.274,3.840,9.139,0.028,0.039,-0.022,0.702,-6.922,9.424,-1.943,0.467,1.256,sad
0.71,2847,2458,3550,3183,2752,1360,3391,3613,85,25,217,45,0,0,6,27,1.015,3.783,9.239,0.036,0.041,-0.032,0.263,-7.070,9.637,-1.926,0.337,1.341,sad
0.72,2907,2559,3579,3234,2803,1587,3413,3618,75,3,202,16,42,0,0,11,1.087,3.776,9.278,0.053,0.025,-0.014,-1.027,-5.741,12.024,-1.060,0.182,1.872,sad
0.73,2938,2630,3617,3267,2811,1805,3411,3583,73,0,120,5,0,0,0,6,1.161,3.797,9.206,0.082,0.047,-0.021,-3.235,-5.698,11.066,-0.135,0.358,2.637,sad
0.74,2977,2640,3637,3315,2852,1959,3376,3569,69,0,212,0,0,0,0,5,1.068,3.819,9.290,0.077,0.065,-0.034,0.397,-2.224,12.062,0.375,-0.300,2.249,sad
0.75,3013,2665,3654,3363,2817,1936,3321,3520,6,0,194,0,0,14,2,0,1.015,3.790,9.215,0.089,0.068,-0.030,3.239,-2.296,7.432,0.781,-0.286,1.854,sad
0.76,3084,2655,3691,3411,2799,1879,3248,3456,0,0,189,0,0,0,0,0,1.085,3.797,9.153,0.103,0.067,-0.025,4.480,-2.507,7.642,0.965,-0.342,0.788,sad
0.77,3124,2677,3713,3447,2758,1425,3133,3373,11,0,189,0,0,0,0,0,1.097,3.859,9.218,0.094,0.072,-0.028,4.003,-2.792,8.037,1.102,-0.291,0.245,sad
0.78,3181,2725,3727,3485,2720,1273,3024,3289,0,55,186,0,0,0,0,0,1.037,3.934,9.208,0.076,0.072,-0.021,0.888,-3.412,8.744,1.359,-0.465,-0.483,sad
0.79,3222,2704,3739,3511,2701,1154,2955,3211,0,0,181,0,0,0,0,0,1.030,3.919,9.175,0.048,0.067,-0.021,-0.754,-3.790,8.358,1.505,-0.589,-0.592,sad
0.80,3265,2695,3761,3546,2647,915,2898,3152,0,0,186,0,0,0,0,0,1.049,3.895,9.225,0.013,0.074,-0.016,-1.037,-4.096,8.935,1.535,-0.599,-0.538,sad
0.81,3285,2687,3767,3568,2609,872,2863,3127,0,0,212,0,0,0,0,0,1.106,3.833,9.222,0.024,0.066,-0.022,-0.855,-4.714,9.926,1.688,-0.696,-0.488,sad
0.82,3305,2686,3776,3598,2617,1110,2849,3123,0,0,181,0,19,0,0,0,0.965,3.881,9.225,0.012,0.052,-0.017,-0.316,-4.472,9.582,1.697,-0.537,-0.457,sad
0.83,3282,2682,3791,3614,2615,1319,2839,3104,0,0,176,0,0,0,0,0,0.970,3.838,9.199,0.034,0.038,-0.011,-0.278,-4.707,10.068,1.668,-0.540,-0.466,sad
0.84,3325,2701,3794,3621,2606,1263,2826,3066,0,0,179,0,0,0,0,0,1.068,3.833,9.165,0.041,0.033,-0.017,0.455,-4.784,10.647,1.701,-0.632,-0.619,sad
0.85,3347,2706,3805,3639,2559,1126,2783,3010,0,0,156,0,0,0,0,0,1.006,3.836,9.258,0.036,0.025,-0.013,0.388,-4.817,10.515,1.720,-0.674,-0.892,sad
0.86,3361,2746,3822,3641,2617,1159,2767,2960,0,0,179,0,0,0,0,21,1.018,3.891,9.239,0.039,0.019,-0.012,0.292,-4.887,10.343,1.743,-0.653,-0.963,sad
0.87,3367,2742,3827,3648,2631,730,2736,2901,53,1,176,5,0,0,0,95,1.025,3.843,9.222,0.018,0.022,-0.015,0.251,-5.052,10.570,1.542,-0.510,-1.138,sad
0.88,3376,2740,3827,3651,2625,758,2685,2863,58,2,181,7,0,0,0,1,0.795,5.255,9.744,-0.084,-0.001,-0.032,-0.036,-5.341,10.539,1.559,-0.317,-1.244,sad
0.89,3366,2746,3827,3649,2608,795,2654,2834,72,2,176,5,0,0,0,1,0.924,3.883,9.390,-0.030,0.012,-0.016,-0.318,-5.104,9.704,1.478,-0.193,-1.241,sad
0.90,3375,2721,3843,3651,2621,625,2656,2823,62,0,186,6,0,0,0,28,1.010,3.800,9.292,0.012,-0.000,-0.010,-0.017,-6.400,10.384,1.266,0.071,-1.236,sad
0.91,3364,2778,3767,3643,2637,643,2620,2823,69,0,176,5,0,0,0,3,0.986,3.840,9.220,0.011,-0.003,-0.013,-1.415,-6.725,9.498,1.154,-0.189,-1.316,sad
0.92,3365,2814,3842,3637,2710,775,2624,2800,67,30,197,4,0,0,0,7,1.018,3.807,9.163,0.015,-0.003,-0.012,-1.329,-6.680,9.287,1.078,-0.302,-1.240,sad
0.93,3378,2826,3840,3633,2757,806,2608,2763,61,0,176,4,0,0,0,4,1.082,3.747,9.234,0.007,0.001,-0.012,-1.053,-6.680,9.048,1.087,0.039,-1.113,sad
0.94,3385,2837,3839,3634,2751,896,2559,2653,63,0,176,4,0,0,43,5,1.073,3.730,9.170,0.031,0.002,-0.014,-1.269,-6.029,6.325,0.603,0.120,-0.938,sad
0.95,3404,2849,3851,3649,2774,823,2485,2479,67,0,156,37,0,0,0,4,1.046,3.836,9.278,0.040,-0.005,-0.009,-1.125,-7.025,7.269,0.381,0.077,-0.736,sad
0.96,3408,2864,3855,3646,2749,594,2367,2240,69,0,156,4,0,0,0,5,1.089,3.706,9.230,0.044,0.005,-0.010,-1.355,-7.669,5.397,-0.009,0.047,-0.426,sad
0.97,3423,2864,3856,3655,2703,601,2298,1922,67,0,176,4,0,0,0,3,1.087,3.766,9.206,0.039,0.019,-0.015,-1.302,-8.540,4.527,-0.767,0.271,-0.168,sad
0.98,3423,2878,3865,3664,2610,416,2147,1712,62,0,174,4,0,0,0,60,1.077,3.745,9.179,0.045,0.020,-0.012,0.204,-6.345,6.694,-0.657,0.419,0.014,sad
0.99,3423,2874,3875,3671,2493,304,1929,1381,63,0,171,3,0,0,0,0,1.097,3.737,9.280,0.076,0.026,-0.009,1.276,0.852,10.865,-0.576,0.025,-0.386,sad
1.00,3440,2894,3866,3680,2359,205,1535,633,61,0,161,5,0,0,0,3,1.087,3.670,9.199,0.097,0.031,-0.001,-2.916,-1.844,10.563,-1.092,0.248,0.136,sad
1.01,3457,2911,3883,3698,2248,0,1144,0,59,6,151,13,0,0,0,42,1.063,3.773,9.203,0.099,0.037,-0.001,-1.745,-2.677,10.386,-1.179,0.046,0.116,sad
1.02,3475,2923,3893,3699,2082,0,654,0,149,5,161,13,0,0,0,135,1.077,3.826,9.232,0.125,0.035,-0.008,1.860,-1.523,8.756,-1.603,-0.694,-0.299,sad
1.03,3501,2933,3907,3718,1867,0,128,0,61,13,161,232,0,0,443,116,1.235,3.388,8.971,0.216,0.048,0.032,-1.132,-3.730,11.016,-2.023,-1.309,-0.247,sad
1.04,3519,2854,3902,3749,1701,0,0,0,60,69,222,1157,37,0,1399,156,1.147,3.816,9.282,0.203,0.043,0.062,1.322,-4.468,10.673,-1.769,-1.241,-0.087,sad
1.05,3534,2727,3911,3749,1296,0,0,0,63,21,212,2027,0,0,2213,3208,1.173,3.711,9.529,0.325,0.007,0.146,0.907,-6.529,10.372,0.525,-0.247,-0.171,sad
1.06,3553,2640,3902,3748,1117,0,0,0,69,17,176,2235,1,0,2411,3371,1.377,3.938,9.270,0.593,-0.008,0.240,1.932,-4.020,9.483,-0.133,0.332,0.280,sad
1.07,3574,2624,3901,3746,953,0,0,0,69,19,63,2329,0,0,2543,3448,1.039,3.768,9.120,0.769,0.049,0.290,1.621,-3.079,8.933,-0.098,0.384,0.278,sad
1.08,3607,2608,3888,3728,327,0,0,0,46,19,186,2411,0,0,2677,3540,0.790,3.721,9.574,1.240,0.091,0.468,0.364,-3.589,10.554,-0.160,0.134,0.194,sad
1.09,3638,2559,3870,3691,17,0,0,0,71,21,179,2696,17,0,2965,3629,1.204,3.991,8.775,1.002,0.103,0.318,1.041,-3.225,9.510,-0.031,0.019,0.106,sad
1.10,3664,2499,3856,3619,0,0,0,0,71,22,181,2658,1,0,3052,3671,1.358,4.824,8.569,0.823,0.118,0.230,1.070,-3.419,9.400,0.017,0.020,0.115,sad
1.11,3678,2429,3839,3474,0,0,0,0,43,22,184,2836,0,0,3183,3703,1.111,4.824,8.638,0.801,0.115,0.180,1.274,-3.443,9.409,-0.081,0.143,0.157,sad
1.12,3690,2370,3834,3408,0,0,0,0,79,25,184,2781,2,0,3243,3735,1.192,5.083,8.626,0.724,0.159,0.160,1.161,-3.297,9.392,-0.138,0.188,0.155,sad
1.13,3707,2218,3811,3431,0,0,0,0,0,23,197,2877,26,0,3289,3737,1.310,4.925,8.531,0.665,0.186,0.121,0.881,-3.048,9.560,-0.173,0.182,0.184,sad
1.14,3715,2301,3791,3456,0,0,0,0,71,85,191,2725,23,1,3284,3763,1.219,5.435,8.380,0.597,0.203,0.092,0.955,-3.053,9.045,-0.265,0.195,0.361,sad
1.15,3713,2377,3763,3468,0,0,0,0,169,137,442,1373,42,0,3287,3767,1.099,5.418,8.464,0.566,0.211,0.080,0.888,-3.773,9.625,-0.245,0.227,0.380,sad
1.16,3728,2288,3735,3481,0,0,0,0,93,105,278,1701,40,2,3235,3667,0.996,5.339,8.138,0.569,0.189,0.083,0.986,-4.173,9.682,-0.300,0.158,0.290,sad
1.17,3729,2336,3710,3483,0,0,0,0,344,299,954,2230,107,25,3187,3756,1.137,5.598,8.294,0.506,0.188,0.064,0.577,-3.989,9.543,-0.161,0.101,0.126,sad
1.18,3724,2304,3676,3477,0,0,0,0,733,3701,2172,2531,137,36,3211,3747,0.819,5.418,8.449,0.481,0.201,0.051,0.747,-3.958,9.419,-0.063,-0.009,0.000,sad
1.19,3717,2294,3629,3459,0,0,0,0,773,3706,2055,2597,173,29,3301,3751,1.070,5.590,7.951,0.507,0.252,0.047,0.792,-3.948,9.495,0.024,-0.015,-0.004,sad
1.20,3712,2245,3568,3459,0,0,0,0,847,3722,2262,2703,172,53,3261,3797,1.032,5.859,8.054,0.554,0.255,0.044,0.802,-3.757,9.364,0.042,0.042,0.033,sad
1.21,3701,2106,3481,3440,0,0,0,0,871,3723,2336,2771,189,57,3336,3759,0.996,5.916,7.958,0.601,0.264,0.029,0.678,-3.847,9.481,0.060,0.002,-0.005,sad
1.22,3728,1927,3319,3407,0,0,0,0,879,3735,2362,2773,187,57,3349,3783,0.824,5.938,7.779,0.633,0.252,0.017,0.757,-3.824,9.450,0.066,-0.010,-0.031,sad
1.23,3669,1915,3133,3399,0,0,0,0,815,3735,2382,2742,183,57,3453,3783,0.788,6.081,7.784,0.646,0.255,0.020,0.757,-3.759,9.436,0.134,-0.013,-0.028,sad
1.24,3658,1829,3045,3380,0,0,0,0,234,891,2423,2851,255,39,3559,3800,0.764,6.160,7.815,0.686,0.263,0.011,0.788,-3.436,9.337,0.050,-0.011,0.014,sad
1.25,3643,1781,2966,3334,0,0,0,0,247,930,2423,2869,293,45,3589,3803,0.857,6.266,7.755,0.796,0.240,0.019,0.795,-3.740,9.448,0.032,0.001,0.015,sad
1.26,3600,1670,2864,3280,0,0,0,0,246,967,2454,2891,300,37,3623,3864,0.836,6.349,7.597,0.849,0.253,-0.003,0.819,-3.699,9.436,0.047,-0.014,-0.009,sad
1.27,3536,1394,2745,3209,0,0,0,0,228,1051,2641,2909,307,47,3656,3817,0.687,6.627,7.798,0.868,0.248,-0.192,0.771,-3.687,9.421,0.063,-0.029,-0.022,sad
1.28,3474,1274,2517,3006,0,0,0,0,188,1043,2695,2909,339,40,3686,3835,0.484,6.850,7.350,0.913,0.098,-0.343,0.773,-3.608,9.431,0.066,-0.035,-0.024,sad
1.29,3319,815,2235,2769,0,0,0,0,59,1105,2761,2861,359,24,3726,3855,0.761,6.886,8.164,0.966,-0.001,-0.501,0.824,-3.567,9.407,0.075,-0.001,0.005,sad
1.30,3167,223,1798,2261,0,0,0,0,8,1123,2751,2921,469,8,3774,3870,-0.218,7.151,11.080,0.927,-0.280,-0.771,0.757,-3.733,9.541,0.054,-0.034,-0.023,sad
1.31,2938,0,768,983,0,0,0,0,0,1056,2531,2919,491,5,3802,3880,0.946,7.922,7.951,0.943,-0.548,-1.216,0.809,-3.704,9.560,0.085,-0.053,-0.042,sad
1.32,2559,0,176,112,0,0,0,0,9,1053,2805,2871,675,4,3771,3911,1.128,7.499,7.264,1.199,-0.186,-1.098,0.888,-3.445,9.510,0.069,-0.029,-0.026,sad
1.33,1901,0,0,0,0,0,0,0,0,1113,2848,2800,889,3,3876,3925,0.354,8.430,7.479,1.251,0.222,-1.253,0.895,-3.529,9.431,0.062,-0.016,0.001,sad
1.34,1455,0,0,0,0,0,0,0,18,1149,2838,2789,1047,8,3891,4007,0.340,8.248,7.958,1.121,0.298,-1.204,0.781,-3.558,9.424,0.047,-0.004,0.006,sad
1.35,386,0,0,0,0,0,0,0,0,1186,2874,2793,1215,2,3887,3941,-0.776,5.112,10.915,0.397,0.262,-1.485,0.826,-3.469,9.522,0.045,0.016,0.022,sad
1.36,179,0,0,0,0,0,0,0,0,1277,2871,2809,1359,3,3921,4020,-1.068,7.379,11.732,-0.123,0.079,-1.236,0.852,-3.584,9.503,0.051,0.024,0.032,sad
1.37,247,0,0,0,0,0,0,0,2,1263,2894,2886,1430,4,3943,3940,1.168,4.003,8.739,-0.321,0.107,-1.469,0.919,-3.517,9.515,0.018,0.014,0.048,sad
1.38,263,0,0,0,0,0,0,0,2,1234,2981,2919,1443,3,3951,3934,2.181,4.073,8.454,-0.439,0.035,-1.314,0.855,-3.397,9.311,-0.011,0.029,0.084,sad
1.39,257,0,0,0,0,0,0,0,31,1132,2871,2939,1438,51,3951,3833,2.456,3.948,8.277,-0.548,-0.044,-0.987,0.912,-3.543,9.474,-0.019,0.052,0.101,sad
1.40,341,0,0,0,0,0,0,0,178,1123,2879,2981,1215,39,3899,4013,1.494,3.270,7.767,-0.670,-0.096,-0.544,0.860,-3.512,9.440,-0.061,0.083,0.106,sad
1.41,300,0,0,0,0,0,0,0,296,1062,2935,2974,1042,46,3951,4011,0.520,3.333,8.964,-0.812,-0.281,-0.315,0.862,-3.591,9.352,-0.090,0.065,0.099,sad
1.42,318,0,0,0,0,0,0,0,474,1053,2828,3089,944,80,3945,3877,0.115,3.644,9.292,-1.235,-0.325,-0.246,0.785,-3.654,9.471,-0.091,0.047,0.080,sad
1.43,278,0,0,0,0,0,0,0,715,1014,2907,3161,941,170,3939,3847,-0.958,3.122,8.179,-1.402,-0.493,-0.295,0.781,-3.677,9.364,-0.068,0.072,0.066,sad
1.44,275,0,0,0,0,0,0,0,812,978,2930,3179,831,50,3932,3817,-0.302,3.816,9.041,-1.512,-0.743,-0.274,0.809,-3.649,9.361,-0.082,0.082,0.059,sad
1.45,337,0,0,0,0,0,0,0,1007,943,3043,3261,979,41,3919,3755,-0.002,4.518,9.354,-1.769,-0.740,-0.210,0.781,-3.661,9.443,-0.081,0.056,0.030,sad
1.46,341,0,0,0,0,0,0,0,1333,1007,3137,3317,917,39,3900,3567,0.407,4.635,8.777,-1.802,-0.804,-0.062,0.706,-3.658,9.402,-0.044,0.061,0.028,sad
1.47,411,0,0,0,0,0,0,0,1322,1007,3160,3261,969,45,3896,3607,1.183,5.356,9.266,-1.779,-0.837,0.244,0.730,-3.709,9.452,-0.045,0.067,0.034,sad
1.48,461,0,0,0,0,0,0,0,1489,935,3171,3359,1064,99,3899,3503,1.434,5.794,9.749,-1.777,-0.823,0.618,0.792,-3.649,9.416,-0.023,0.059,0.026,sad
1.49,416,0,0,0,0,0,0,0,1597,1042,3214,3385,1171,397,3867,3647,1.592,5.329,9.359,-1.730,-0.754,1.018,0.697,-3.713,9.409,-0.052,0.064,0.030,sad
1.50,435,0,0,0,0,0,0,0,1565,1069,3227,3401,1315,362,3800,3496,0.900,5.483,9.953,-1.636,-0.737,1.323,0.778,-3.742,9.395,-0.057,0.068,0.027,sad
1.51,494,0,0,0,0,0,0,0,1772,1039,3258,3449,1176,235,3819,3491,0.572,5.799,10.578,-1.662,-0.831,1.425,0.778,-3.759,9.455,-0.033,0.052,0.027,sad
1.52,617,0,0,0,0,0,0,0,1885,1018,3299,3557,1125,249,3795,3518,-0.017,4.992,9.555,-1.655,-0.857,1.329,0.728,-3.692,9.354,-0.043,0.070,0.027,sad
1.53,700,0,0,0,0,0,0,0,1955,1080,3304,3485,1110,157,3770,3485,-0.807,5.080,10.199,-1.366,-1.169,1.188,0.663,-3.737,9.371,-0.070,0.061,0.022,sad
1.54,768,0,0,0,0,0,0,0,2068,1111,3332,3455,1116,47,3699,3443,0.057,6.886,11.164,-1.524,-1.085,0.930,0.718,-3.764,9.325,-0.062,0.060,0.008,sad
1.55,782,0,0,0,0,0,0,0,2153,1135,3337,3593,1087,47,3579,3429,-1.001,5.567,9.208,-1.547,-0.657,0.517,0.697,-3.764,9.349,-0.048,0.063,0.020,sad
1.56,842,0,0,0,0,0,0,0,2236,1035,3350,3607,1176,26,3558,3405,1.183,5.904,8.868,-1.174,-0.727,0.267,0.620,-3.747,9.440,-0.056,0.059,0.023,sad
1.57,841,0,0,0,0,0,0,0,2327,1138,3378,3627,1259,47,3429,3397,3.227,7.398,8.380,-1.154,-0.420,0.533,0.637,-3.788,9.366,-0.060,0.057,0.015,sad
1.58,910,0,0,0,0,0,0,0,2324,1085,3386,3685,1291,46,3292,3404,1.602,6.184,6.510,-0.682,0.024,0.857,0.658,-3.845,9.390,-0.053,0.059,0.017,sad
1.59,926,0,0,0,0,0,0,0,2473,1142,3406,3717,1277,127,3277,3407,0.587,7.647,9.895,-0.550,-0.359,1.122,0.697,-3.869,9.352,-0.038,0.058,0.016,sad
1.60,1006,0,0,0,0,0,0,0,2547,1143,3616,3767,1362,47,3225,3351,-0.029,5.543,6.436,-0.462,0.086,1.048,0.670,-3.780,9.321,-0.059,0.050,0.012,sad
1.61,1005,0,0,0,0,0,0,0,2633,1147,3434,3821,1395,47,3047,3246,-0.637,5.997,7.116,-0.067,-0.026,0.876,0.673,-3.857,9.275,-0.079,0.024,0.011,sad
1.62,1013,0,0,0,0,0,0,0,2675,1269,3457,3956,1543,47,3103,3193,-0.132,6.919,4.594,0.572,-0.088,0.702,0.627,-3.845,9.282,-0.101,0.009,0.003,sad
1.63,945,0,0,0,0,0,0,0,2825,1357,3488,3737,1805,47,3093,3005,1.305,8.222,4.372,1.217,-0.263,0.851,0.577,-3.804,9.318,-0.110,-0.002,0.000,sad
1.64,704,0,0,0,0,0,0,0,2913,1567,3508,3927,2008,47,2887,2652,4.652,4.147,12.491,0.946,0.321,1.079,0.704,-3.967,9.345,-0.174,0.019,-0.011,sad
1.65,669,0,0,0,0,0,0,178,2925,1624,3529,3942,2041,46,2731,2375,0.376,-0.340,8.511,1.276,-0.063,1.035,0.658,-3.972,9.333,-0.166,0.019,-0.009,sad
1.66,446,0,0,0,0,0,237,1510,2991,1708,3552,3988,1803,46,2535,1641,-5.339,2.626,13.046,1.091,-0.069,0.275,0.747,-4.034,9.285,-0.174,0.020,-0.011,sad
1.67,592,0,0,0,0,0,848,2413,3087,1867,3570,4007,1146,45,1983,505,-1.487,1.386,10.625,1.151,-0.534,-0.370,0.630,-4.128,9.323,-0.250,0.046,-0.007,sad
1.68,717,0,0,0,0,0,1383,2834,3101,1884,3572,3961,859,0,1746,377,4.903,3.886,8.904,1.143,-0.592,-0.165,0.759,-4.214,9.297,-0.276,0.051,0.001,sad
1.69,842,0,0,0,100,0,1843,3051,3207,1927,3575,4095,163,21,447,93,2.059,3.244,9.488,0.988,-0.375,-0.270,0.939,-3.852,9.467,-0.335,0.099,-0.052,sad
1.70,832,0,0,0,502,0,2219,3179,3263,2008,3585,4069,31,0,0,1,4.752,3.824,8.583,1.012,-0.214,-0.347,0.285,-4.709,9.038,-0.426,0.103,-0.237,sad
1.71,949,0,0,0,1017,0,2507,3233,3257,1939,3585,4063,40,0,0,0,2.397,0.472,6.005,0.455,1.159,-0.581,0.761,-4.075,9.201,-0.476,0.124,-0.229,sad
1.72,1155,222,0,0,1214,0,2587,3267,3311,1927,3583,4071,9,0,0,0,2.693,3.244,8.138,0.318,1.090,-0.574,0.991,-4.480,9.026,-0.447,0.059,-0.291,sad
1.73,1360,646,0,0,1535,0,2588,3283,3372,1788,3355,4095,20,69,0,0,0.895,3.563,10.104,0.374,1.233,-0.674,0.627,-4.618,9.081,-0.389,0.089,-0.220,sad
1.74,1499,1365,482,0,1716,0,2559,3280,3421,1788,3585,4063,0,0,0,0,1.367,3.160,9.194,0.540,0.827,-0.516,0.697,-4.475,9.160,-0.466,0.094,-0.196,sad
1.75,1685,1835,1967,272,1692,0,2506,3280,3384,1608,3593,4067,0,0,0,0,1.846,4.149,9.730,0.379,0.586,-0.332,0.757,-3.251,8.310,-1.036,0.106,-0.252,sad
1.76,1937,2064,2673,1323,1698,0,2449,3251,3326,1541,3595,4003,0,0,5,0,1.214,4.149,10.508,0.283,0.313,-0.296,0.826,-4.939,8.741,-0.735,0.088,-0.195,sad
1.77,2117,2176,3007,2202,1762,0,2391,3214,3305,1431,3585,4063,0,0,0,0,1.092,3.718,8.914,0.117,0.259,-0.155,0.883,-5.097,8.684,-0.745,0.105,-0.191,sad
1.78,2298,2283,3184,2593,1855,0,2339,3154,3252,4,3148,3959,26,69,3959,0,1.259,3.871,9.440,0.123,0.160,-0.060,1.013,-5.296,8.545,-0.702,0.139,-0.189,sad
1.79,2581,2308,3291,2837,1831,0,2259,3055,1131,21,3288,3929,199,31,3923,0,1.252,3.857,9.191,0.093,0.172,-0.063,0.649,-5.485,8.420,-0.674,0.133,-0.203,sad
1.80,2823,2349,3366,3017,1847,0,2096,2895,1127,23,3299,3917,151,33,3903,0,1.228,3.941,9.151,0.103,0.144,-0.071,0.764,-5.708,8.516,-0.614,0.160,-0.186,sad
1.81,2988,2353,3419,3156,1811,0,2016,2787,1055,22,3173,3883,157,30,3872,0,1.192,3.903,9.215,0.097,0.090,-0.039,0.895,-5.662,8.559,-0.609,0.203,-0.160,sad
1.82,3111,2401,3477,3259,1868,0,1983,2708,1096,30,3181,3839,93,24,455,0,1.154,3.812,9.177,0.123,0.072,-0.026,0.682,-5.672,8.440,-0.630,0.225,-0.138,sad
1.83,3214,2429,3529,3335,1856,0,1936,2547,1047,29,3155,3736,98,26,3799,0,1.276,3.996,9.201,0.070,0.089,-0.035,0.709,-5.837,8.291,-0.652,0.240,-0.124,sad
1.84,3299,2506,3582,3410,1762,0,1916,2413,1035,37,2999,3686,88,21,328,0,1.092,3.546,9.041,0.085,0.096,-0.019,0.630,-6.146,8.887,-0.765,0.207,-0.101,sad
1.85,3376,2521,3616,3474,1738,0,1853,2377,1018,37,2961,3477,81,16,306,0,1.111,3.919,9.134,0.064,0.074,-0.013,0.845,-6.175,8.049,-0.701,0.247,-0.029,sad
1.86,3410,2559,3651,3508,1779,0,1852,2375,1005,39,2902,3355,76,17,268,0,1.120,3.970,9.182,0.046,0.053,-0.011,0.680,-6.184,7.994,-0.697,0.242,0.010,sad
1.87,3470,2610,3672,3539,1759,0,1905,2371,931,55,2807,3063,68,43,125,55,1.111,3.891,9.148,0.028,0.069,-0.016,0.467,-6.302,7.661,-0.743,0.200,0.026,sad
1.88,3502,2638,3741,3568,1844,10,1942,2383,797,53,2321,3006,67,11,135,0,1.132,3.831,9.199,0.026,0.061,-0.026,0.591,-6.630,7.867,-0.840,0.164,0.021,sad
1.89,3536,2654,3709,3583,1906,337,1977,2343,734,59,1947,3036,35,9,95,0,1.063,3.898,9.134,0.051,0.046,-0.008,0.472,-6.615,7.918,-0.868,0.128,0.090,sad
1.90,3555,2676,3726,3621,1891,372,1986,2288,52,56,214,2859,46,6,219,2,1.092,3.907,9.167,0.027,0.056,-0.018,0.476,-6.773,7.664,-0.966,0.058,0.180,sad
1.91,3583,2699,3711,3632,1947,411,2011,2297,54,61,212,2469,37,2,54,0,1.106,3.948,9.057,0.024,0.052,-0.023,0.424,-7.096,7.951,-1.143,-0.116,0.282,sad
1.92,3605,2719,3743,3655,1903,464,2091,2342,54,51,212,2132,20,1,0,7,1.030,3.900,9.112,0.060,0.029,-0.009,0.393,-7.058,8.176,-1.256,-0.189,0.414,sad
1.93,3623,2715,3759,3669,2002,735,2190,2370,69,37,209,165,8,0,19,18,1.061,3.996,9.234,0.102,-0.023,0.023,1.130,-8.301,8.777,-1.567,-0.426,0.789,sad
1.94,3637,2771,3774,3680,2279,740,2295,2397,76,45,127,43,0,0,9,31,1.207,4.017,9.196,0.113,-0.077,0.037,0.603,-7.709,7.779,-1.872,-0.576,1.083,sad
1.95,3645,2853,3790,3679,2515,646,2453,2425,74,16,197,37,1,0,9,31,1.099,3.917,9.136,0.097,-0.161,0.062,0.426,-8.471,7.264,-1.885,-0.626,1.003,sad
1.96,3621,2956,3805,3663,2691,417,2559,2446,70,0,12,0,0,0,0,174,1.204,3.893,9.105,0.017,-0.145,0.068,0.093,-8.928,8.447,-1.483,-0.420,1.111,sad
1.97,3601,3054,3813,3658,2873,297,2651,2459,69,0,179,5,7,0,0,3,1.231,3.955,9.136,0.015,-0.092,0.065,0.026,-5.320,10.379,-0.070,-0.556,1.559,sad
1.98,3552,3120,3824,3644,3038,97,2703,2451,68,0,140,61,0,0,0,24,1.307,3.938,9.163,0.017,-0.056,0.055,-1.791,-9.778,10.455,0.434,-0.244,1.671,sad
1.99,3502,3183,3846,3633,3122,0,2765,2462,68,0,176,3,0,0,0,10,1.324,3.895,9.100,0.010,-0.021,0.036,1.190,-3.462,8.143,0.960,-0.424,1.565,sad
2.00,3466,3223,3837,3634,3206,0,2811,2448,61,0,176,3,0,0,0,5,1.281,3.867,9.127,0.015,-0.006,0.020,2.107,-3.488,7.633,1.225,-0.462,1.081,sad
2.01,3433,3248,3855,3623,3270,0,2851,2401,67,0,174,0,0,0,0,158,1.305,3.845,9.179,0.012,-0.014,0.018,1.985,-3.419,7.709,1.335,-0.446,0.861,sad
2.02,3376,3291,3856,3626,3329,0,2895,2379,0,0,43,0,0,50,0,0,1.286,3.864,9.179,0.009,0.003,0.012,2.172,-3.551,7.961,1.548,-0.288,0.257,sad
2.03,3345,3317,3855,3619,3375,0,2914,2349,0,0,163,0,0,0,0,0,1.367,3.900,9.191,0.003,0.014,0.001,0.455,-3.120,8.301,1.695,-0.339,-0.250,sad
2.04,3353,3335,3868,3613,3392,0,2951,2238,0,0,174,0,0,0,0,0,1.381,3.836,9.136,0.009,0.021,-0.009,0.065,-3.390,9.136,1.803,-0.430,-0.407,sad
2.05,3333,3357,3869,3628,3426,0,2961,2126,0,0,161,0,0,0,0,0,1.386,3.840,9.160,0.028,0.023,-0.008,-0.611,-3.934,9.400,2.135,-0.436,-0.429,sad
2.06,3329,3371,3866,3634,3453,0,2960,1959,0,0,161,0,0,0,0,0,1.334,3.871,9.139,0.036,0.018,-0.006,-0.618,-4.475,10.087,2.250,-0.485,-0.244,sad
2.07,3330,3376,3877,3632,3471,0,2960,1809,0,0,174,0,0,0,0,0,1.319,3.891,9.120,0.027,0.018,-0.016,0.196,-4.820,10.523,2.353,-0.523,-0.243,sad
2.08,3341,3415,3890,3634,3472,0,2975,1790,0,0,161,0,0,0,11,0,1.367,3.867,9.196,0.021,0.028,-0.015,0.563,-5.030,10.017,2.382,-0.474,-0.376,sad
2.09,3347,3409,3875,3643,3489,0,2971,1774,0,0,176,0,0,0,0,0,1.290,3.778,9.194,0.013,0.033,-0.020,1.578,-5.856,10.664,2.254,-0.488,-0.497,sad
2.10,3361,3423,3895,3654,3493,0,2982,1802,0,0,174,0,0,0,89,0,1.355,3.809,9.187,0.030,0.031,-0.022,1.640,-6.213,11.071,2.256,-0.463,-0.577,sad
2.11,3407,3435,3899,3662,3507,0,2961,1776,0,0,161,0,0,0,0,0,1.295,3.831,9.191,0.031,0.029,-0.012,1.120,-6.256,10.542,2.106,-0.518,-0.740,sad
2.12,3394,3442,3888,3664,3518,0,2931,1734,30,10,156,1,0,4,4,0,1.322,3.828,9.160,0.035,0.029,-0.014,0.984,-6.725,10.566,1.955,-0.480,-0.746,sad
2.13,3411,3461,3902,3662,3523,0,2915,1699,48,2,181,11,0,0,0,0,1.336,3.843,9.081,0.039,0.034,-0.017,0.512,-6.594,10.654,1.840,-0.437,-0.711,sad
2.14,3424,3460,3899,3666,3526,0,2864,1626,55,0,171,0,0,0,1,2,1.341,3.838,9.191,0.029,0.029,-0.019,-0.010,-6.874,9.912,1.698,-0.370,-0.568,sad
2.15,3438,3455,3895,3665,3515,0,2785,1630,59,0,171,6,0,0,0,3,1.338,3.857,9.244,0.030,0.039,-0.020,-0.362,-6.931,9.711,1.430,-0.162,-0.309,sad
2.16,3441,3455,3905,3677,3507,0,2731,1614,59,0,161,0,0,0,0,18,1.262,3.819,9.203,0.038,0.033,-0.011,-0.599,-7.015,9.950,1.297,-0.306,-0.243,sad
2.17,3455,3455,3905,3673,3503,0,2673,1619,62,0,153,4,0,0,0,5,1.279,3.807,9.122,0.035,0.035,-0.016,0.156,-6.498,8.854,1.112,-0.691,-0.193,sad
2.18,3463,3467,3900,3678,3514,0,2604,1594,61,0,161,0,0,0,0,0,1.322,3.807,9.189,0.029,0.028,-0.014,0.702,-6.105,8.279,0.927,-0.420,-0.327,sad
2.19,3472,3457,3913,3675,3499,0,2559,1535,61,1,171,13,0,0,0,2,1.338,3.838,9.187,0.028,0.035,-0.018,0.491,-5.705,7.752,0.779,-0.325,-0.434,sad
2.20,3472,3455,3914,3685,3486,0,2499,1523,116,0,151,5,0,0,0,4,1.300,3.804,9.199,0.023,0.036,-0.022,0.318,-5.674,8.638,0.559,-0.349,-0.544,sad
2.21,3485,3437,3898,3681,3472,0,2459,1449,61,0,156,5,0,0,0,6,1.334,3.843,9.167,0.019,0.036,-0.019,0.943,-5.145,7.204,0.451,-0.059,-0.778,sad
2.22,3482,3434,3843,3680,3426,0,2471,1531,61,11,171,2,0,0,0,5,1.348,3.757,9.237,0.011,0.048,-0.015,0.577,-4.707,6.687,0.251,0.121,-0.840,sad
2.23,3497,3426,3920,3695,3441,0,2443,1569,61,0,110,3,0,0,0,5,1.255,3.790,9.232,0.013,0.043,-0.017,-0.271,-5.282,8.396,0.056,-0.023,-0.889,sad
2.24,3500,3425,3925,3696,3438,165,2445,1599,61,0,161,0,0,0,0,174,1.259,3.864,9.208,0.014,0.036,-0.014,-0.747,-4.489,6.914,-0.147,0.019,-0.659,sad
2.25,3505,3402,3913,3694,3456,253,2478,1666,61,0,161,4,0,0,0,167,1.365,3.752,9.153,0.015,0.040,-0.018,-0.563,-4.556,7.185,-0.284,0.105,-0.489,sad
2.26,3505,3405,3903,3698,3467,345,2423,1616,61,1,161,5,0,0,0,7,1.343,3.737,9.184,0.029,0.033,-0.013,2.952,0.227,12.412,-0.121,0.612,-0.610,sad
2.27,3519,3414,3916,3712,3456,246,2309,1333,61,0,156,0,29,0,0,1,1.341,3.742,9.251,0.051,0.029,-0.006,1.156,0.977,7.398,-0.590,0.507,-0.503,sad
2.28,3525,3417,3929,3701,3395,0,2140,681,59,0,156,2,0,0,0,8,1.288,3.711,9.201,0.079,0.039,-0.005,0.405,-1.073,9.902,-0.750,0.529,-0.404,sad
2.29,3539,3455,3930,3712,3262,0,1915,0,61,0,156,3,0,0,0,150,1.329,3.752,9.196,0.091,0.033,0.002,-0.663,-0.558,10.379,-0.705,0.449,-0.238,sad
2.30,3551,3472,3931,3729,2990,0,1637,0,57,0,148,4,0,0,0,5,1.353,3.701,9.194,0.124,0.026,0.011,-2.258,-0.967,9.898,-1.080,-0.071,-0.030,sad
2.31,3572,3510,3949,3730,2801,0,1279,0,57,0,161,10,0,0,0,25,1.302,3.749,9.163,0.173,0.018,0.015,-0.407,-0.740,8.976,-1.208,-0.231,0.078,sad
2.32,3581,3538,3953,3740,2691,0,1013,0,123,5,151,0,0,13,0,123,1.281,3.893,9.108,0.200,0.005,-0.003,1.753,-1.748,10.511,-1.627,-0.629,0.009,sad
2.33,3603,3566,3956,3747,2559,0,656,0,57,2,145,11,0,0,0,105,1.276,3.795,9.230,0.161,0.017,0.010,1.302,-5.064,12.608,-1.073,-0.505,-0.043,sad
2.34,3632,3602,3978,3752,2461,0,133,0,56,0,278,0,83,0,8,166,1.235,4.085,9.268,0.178,0.016,-0.031,2.186,-3.627,9.845,-0.834,-0.294,0.088,sad
2.35,3637,3634,3982,3753,2282,0,0,0,47,11,140,377,3,0,559,147,1.302,3.737,9.117,0.162,-0.045,0.003,3.041,-2.923,8.957,-0.800,-0.012,0.234,sad
2.36,3654,3646,3982,3728,2093,0,0,0,57,12,140,862,0,0,935,99,1.276,3.972,9.187,0.292,-0.026,0.054,1.516,-3.917,9.811,-0.624,0.065,0.252,sad
2.37,3674,3663,3983,3748,1877,0,0,0,58,12,138,978,25,0,1139,167,1.396,4.077,9.155,0.324,-0.060,0.048,1.492,-2.624,9.045,-0.645,0.139,0.313,sad
2.38,3693,3674,3984,3743,1906,0,0,0,51,12,130,1198,0,0,1359,151,1.211,4.116,9.091,0.343,-0.079,0.034,2.602,-6.531,9.287,-0.442,1.369,0.931,sad
2.39,3721,3668,3924,3725,1616,0,0,0,57,12,143,1289,0,0,1444,171,1.329,3.852,9.009,0.366,-0.079,0.041,-0.778,-2.425,10.233,-0.460,1.180,0.769,sad
2.40,3743,3664,3979,3709,1374,0,0,0,61,0,214,1529,0,0,1695,173,1.460,4.118,9.009,0.434,-0.062,0.056,-1.738,-6.388,15.024,-0.568,0.432,0.530,sad
2.41,3787,3655,3983,3680,1251,0,0,0,63,13,161,1677,0,0,1831,137,1.628,4.209,9.029,0.523,-0.030,0.081,1.199,-4.496,9.919,-0.156,0.244,0.422,sad
2.42,3801,3583,3947,3661,1062,0,0,0,64,56,176,1739,51,0,2031,3189,1.621,4.389,8.933,0.650,-0.000,0.145,0.709,-3.790,9.562,-0.341,0.055,0.317,sad
2.43,3837,3437,3935,3643,950,0,0,0,69,91,184,1673,23,0,2093,3308,1.939,4.226,8.552,0.777,0.137,0.132,0.421,-4.329,9.850,-0.214,0.024,0.254,sad
2.44,3859,3121,3909,3611,620,0,0,0,73,109,212,1916,51,0,2141,3311,1.381,4.760,8.724,0.802,0.156,0.137,0.704,-3.510,9.383,-0.175,0.183,0.266,sad
2.45,3875,2671,3877,3553,422,0,0,0,239,301,683,2502,93,36,2183,3363,1.372,4.858,8.732,0.845,0.110,0.119,0.678,-4.365,9.510,-0.119,0.077,0.099,sad
2.46,3888,2673,3838,3426,160,0,0,0,453,3309,1446,2725,110,20,2134,3367,1.654,5.224,8.626,0.832,0.209,0.105,0.658,-3.807,9.376,-0.127,0.116,0.071,sad
2.47,3899,2640,3801,3092,0,0,0,0,663,3339,1855,3029,140,45,2185,3335,1.750,5.157,8.645,0.913,0.276,0.113,0.572,-3.862,9.550,-0.085,0.102,0.055,sad
2.48,3911,2484,3728,2875,54,0,0,0,967,3464,2641,3127,151,42,2099,3397,1.353,5.385,8.277,0.885,0.296,0.077,0.536,-3.977,9.304,-0.075,0.045,0.012,sad
2.49,3922,2327,3629,2912,0,0,0,0,1052,3355,2843,3207,165,48,2121,3383,1.468,5.787,8.191,0.765,0.299,0.038,0.541,-3.855,9.311,-0.022,0.033,0.017,sad
2.50,3927,2266,3505,2907,0,0,0,0,1099,3430,2997,3292,181,134,2076,3401,1.176,5.701,8.234,0.796,0.218,0.012,0.508,-3.879,9.290,-0.023,-0.005,-0.005,sad
2.51,3920,2133,3336,2831,0,0,0,0,1115,3403,3043,3375,180,56,2205,3411,1.001,5.837,7.824,0.760,0.137,-0.014,0.503,-4.125,9.280,0.045,-0.011,0.001,sad
2.52,3899,2157,3233,2759,0,0,0,0,1093,3418,3053,3389,124,69,2279,3429,1.010,5.885,8.179,0.788,0.040,-0.038,0.637,-4.065,9.354,0.050,-0.029,0.007,sad
2.53,3847,2059,3110,2635,0,0,0,0,1033,3455,3050,3444,185,57,2377,3475,1.226,6.091,8.174,0.811,-0.056,-0.132,0.613,-3.972,9.256,0.092,-0.049,-0.003,sad
2.54,3759,1969,2922,2365,5,0,0,0,1116,3516,3027,3465,204,77,2611,3556,1.025,6.024,8.557,0.945,-0.102,-0.122,0.725,-3.926,9.443,0.136,-0.098,-0.030,sad
2.55,3536,1847,2654,2063,0,0,0,0,1843,1069,3107,3451,127,31,3225,3568,1.470,6.239,8.497,1.156,-0.223,-0.124,0.615,-3.903,9.234,0.142,-0.108,-0.024,sad
2.56,3031,1579,2181,1431,0,0,0,0,1658,1350,3043,3453,379,0,3453,3701,1.595,6.627,8.408,1.355,-0.272,-0.303,0.730,-3.752,9.258,0.130,-0.095,-0.015,sad
2.57,2846,835,1227,499,0,0,0,0,1591,1369,3099,3453,443,51,3567,3679,1.784,7.211,7.831,1.496,-0.179,-0.547,0.704,-3.754,9.287,0.085,-0.089,-0.017,sad
2.58,2647,276,0,0,0,0,0,0,1331,1389,3053,3433,441,52,3614,3683,1.733,7.728,8.370,1.512,0.037,-0.806,0.754,-3.747,9.359,0.076,-0.061,-0.018,sad
2.59,2274,0,0,0,0,0,0,0,1064,1453,3142,3416,651,59,3740,3731,1.334,7.752,7.580,1.689,0.180,-0.922,0.759,-3.589,9.261,0.102,-0.065,0.001,sad
2.60,1684,0,0,0,0,0,0,0,1083,1468,3160,3437,911,48,3755,3769,0.192,8.677,9.507,1.344,0.150,-0.899,0.737,-3.644,9.488,0.064,-0.091,-0.008,sad
2.61,433,0,0,0,0,0,0,0,1079,1560,3163,3445,1263,48,3851,3783,-3.148,5.205,9.555,0.668,-0.420,-1.454,0.761,-3.737,9.443,0.037,-0.092,-0.015,sad
2.62,271,0,0,0,0,0,0,0,1060,1727,3171,3448,1679,63,3823,3855,1.437,4.956,11.030,0.253,0.027,-1.909,0.797,-3.697,9.323,0.059,-0.023,0.001,sad
2.63,327,0,0,0,0,0,0,0,1099,1891,3222,3487,1912,51,3865,3731,2.866,5.001,7.709,0.063,0.028,-1.645,0.852,-3.862,9.462,0.057,0.023,0.029,sad
2.64,322,0,0,0,0,0,0,0,1135,1816,3224,3491,1931,27,3871,3725,4.293,5.432,8.126,-0.062,-0.113,-0.860,0.826,-3.632,9.376,0.032,0.022,0.031,sad
2.65,362,0,0,0,0,0,0,0,1213,1865,3229,3513,1940,51,3879,3831,3.656,4.583,7.956,-0.172,-0.019,-0.142,0.814,-3.701,9.357,-0.004,-0.003,0.009,sad
2.66,316,0,0,0,0,0,0,0,1182,1909,3022,3519,2037,82,3740,3699,0.749,4.508,7.611,-0.463,-0.075,0.202,0.855,-3.730,9.378,0.009,-0.036,0.006,sad
2.67,333,0,0,0,0,0,0,0,1267,1879,3265,3517,2079,50,3883,3704,-0.563,4.185,8.224,-0.647,-0.345,0.174,0.821,-3.771,9.392,0.008,-0.039,0.011,sad
2.68,300,0,0,0,0,0,0,0,1261,1809,3329,3519,2203,53,3891,3564,-0.151,3.926,7.585,-1.027,-0.226,-0.056,0.836,-3.757,9.491,0.019,-0.026,0.006,sad
2.69,355,0,0,0,0,0,0,0,1039,2007,3263,3487,2365,50,3899,3509,0.864,4.286,7.645,-1.239,-0.149,-0.091,0.699,-3.802,9.505,0.094,0.013,0.000,sad
2.70,371,0,0,0,0,0,0,0,907,1840,3263,3497,2403,51,3899,3502,1.975,4.336,7.350,-1.278,-0.098,0.161,0.766,-3.713,9.471,0.142,0.051,0.026,sad
2.71,361,0,0,0,0,0,0,0,709,1719,3252,3493,2288,27,3909,3539,1.683,5.083,8.344,-1.332,-0.157,0.492,0.788,-3.579,9.488,0.107,0.057,0.041,sad
2.72,385,0,0,0,0,0,0,0,811,1324,3227,3491,2171,44,3915,3622,0.824,5.643,9.005,-1.569,-0.120,0.616,0.781,-3.630,9.462,0.099,0.048,0.031,sad
2.73,383,0,0,0,0,0,0,0,777,1369,3224,3479,2021,51,3900,3656,0.740,5.818,9.146,-1.769,-0.114,0.572,0.888,-3.543,9.507,0.107,0.076,0.054,sad
2.74,331,0,0,0,0,0,0,0,927,1048,3165,3551,1429,47,3923,3709,1.338,6.266,9.543,-1.935,-0.187,0.617,0.984,-3.512,9.045,0.062,0.126,0.090,sad
2.75,337,0,0,0,0,0,0,0,1127,1039,3163,3480,1273,50,3929,3743,1.372,6.196,9.167,-2.102,-0.179,0.658,0.843,-3.452,9.273,0.023,0.084,0.040,sad
2.76,342,0,0,0,0,0,0,0,1229,1131,3171,3500,1467,52,3987,3731,2.016,6.110,8.447,-1.955,-0.216,0.717,0.843,-3.505,9.299,0.002,0.015,0.013,sad
2.77,338,0,0,0,0,0,0,0,1305,1363,3186,3529,1770,50,3949,3675,2.512,6.227,9.155,-1.828,-0.194,0.977,0.728,-3.531,9.500,0.017,-0.030,0.007,sad
2.78,354,0,0,0,0,0,0,0,1400,1508,3214,3550,2011,51,3919,3595,1.506,6.127,9.464,-1.676,-0.230,1.115,0.788,-3.373,9.488,-0.048,0.084,0.045,sad
2.79,365,0,0,0,0,0,0,0,1495,1437,3245,3579,2057,51,3916,3603,1.446,6.091,9.907,-1.602,-0.326,1.098,0.759,-3.488,9.584,-0.041,0.061,0.035,sad
2.80,403,0,0,0,0,0,0,0,1707,1583,3270,3621,1989,44,3845,3519,1.120,5.787,10.173,-1.623,-0.258,0.955,0.539,-3.666,9.416,-0.091,0.068,0.025,sad
2.81,427,0,0,0,0,0,0,0,1893,1351,3212,3655,1695,50,3809,3497,1.022,5.636,9.910,-1.623,-0.189,0.746,0.733,-3.632,9.522,-0.060,0.100,0.064,sad
2.82,421,0,0,0,0,0,0,0,2151,1230,3329,3676,1399,51,3747,3511,1.092,5.258,9.304,-1.537,-0.242,0.582,0.850,-3.651,9.419,-0.079,0.116,0.087,sad
2.83,451,0,0,0,0,0,0,0,2281,1209,3339,3724,1055,46,3589,3495,1.317,4.942,8.600,-1.287,-0.300,0.511,0.536,-3.797,9.538,-0.037,0.116,0.061,sad
2.84,464,0,0,0,0,0,0,0,2535,1317,3314,3771,1143,47,3451,3480,1.791,5.363,8.880,-1.016,-0.285,0.497,0.570,-3.776,9.426,-0.097,0.036,0.001,sad
2.85,486,0,0,0,0,0,0,0,2536,1375,3365,3787,1266,43,3440,3465,1.638,6.297,10.755,-0.971,-0.383,0.471,0.646,-3.752,9.376,-0.069,0.001,0.010,sad
2.86,494,0,0,0,0,0,0,0,2633,1469,3386,3803,1597,47,3413,3443,2.054,6.079,9.347,-1.119,-0.354,0.524,0.613,-3.725,9.438,-0.071,0.018,0.019,sad
2.87,532,0,0,0,0,0,0,0,2684,1559,3427,3848,1723,46,3357,3421,1.800,5.164,7.132,-0.936,-0.077,0.504,0.680,-3.730,9.424,-0.073,0.012,0.004,sad
2.88,560,0,0,0,0,0,0,0,2715,1604,3437,3725,1819,49,3327,3429,0.632,4.721,6.709,-0.464,-0.204,0.441,0.670,-3.740,9.448,-0.064,-0.009,0.007,sad
2.89,545,0,0,0,0,0,0,0,2760,1609,3460,3875,2056,69,3320,3337,0.421,6.400,9.517,-0.300,-0.556,0.282,0.680,-3.759,9.299,-0.084,-0.043,-0.002,sad
2.90,612,0,0,0,0,0,0,0,2790,1720,3498,3894,2423,51,3289,3218,-0.067,5.114,6.644,-0.394,-0.483,0.056,0.723,-3.757,9.266,-0.110,-0.044,-0.008,sad
2.91,637,0,0,0,0,0,0,0,2799,1805,3554,3896,2541,47,3355,3158,-0.505,4.635,6.215,0.048,-0.481,-0.246,0.692,-3.802,9.266,-0.109,-0.035,-0.015,sad
2.92,640,0,0,0,0,0,0,0,2843,1951,3498,3900,2788,46,3285,3017,0.974,5.923,8.452,0.167,-0.631,-0.400,0.831,-3.850,9.440,-0.158,0.013,-0.022,sad
2.93,617,0,0,0,0,0,0,0,2763,2107,3544,3927,3019,40,3193,2743,5.025,3.045,2.184,0.283,1.940,-0.372,0.685,-3.986,9.385,-0.151,0.018,-0.017,sad
2.94,350,0,0,0,0,0,0,0,2764,2151,3549,3919,3045,50,3118,2595,4.166,-0.108,9.886,0.658,0.725,0.539,0.752,-3.795,9.316,-0.152,0.040,-0.013,sad
2.95,306,0,0,0,0,0,0,379,2791,2269,3514,4007,3099,84,2979,2104,-1.714,-0.479,10.384,0.910,0.511,0.228,0.776,-3.876,9.285,-0.126,0.048,-0.011,sad
2.96,334,0,0,0,0,0,0,1975,2906,2389,3585,3956,3001,47,2705,853,-5.243,-0.524,10.623,1.163,0.334,-0.316,0.828,-3.864,9.366,-0.203,0.075,-0.002,sad
2.97,394,0,0,0,0,0,211,2736,2911,2422,3590,3962,2796,42,2381,201,2.784,1.073,7.659,1.574,0.165,-0.509,0.788,-3.996,9.369,-0.217,0.060,-0.010,sad
2.98,496,0,0,0,0,0,759,3018,3001,2520,3595,3983,2591,8,1879,0,3.309,6.627,14.004,1.479,-0.161,-0.312,0.730,-4.238,9.131,-0.209,0.054,0.022,sad
2.99,474,0,0,0,0,0,1357,3216,3114,2663,3595,3958,2215,3,1016,0,1.884,2.959,10.101,0.928,0.120,-0.395,1.008,-5.195,9.060,-0.246,0.078,0.086,sad
3.00,581,0,0,0,0,0,1559,3319,3127,2699,3595,3977,1575,7,551,0,3.622,3.850,9.675,0.922,0.299,-0.337,0.646,-3.244,9.546,-0.287,0.050,-0.050,sad
3.01,675,0,0,0,0,0,1770,3376,3116,2761,3601,3961,619,0,0,0,0.977,3.093,10.058,0.766,0.447,-0.354,0.709,-4.120,9.232,-0.404,0.038,-0.150,sad
3.02,757,0,0,0,55,0,1921,3423,3067,2813,3585,3931,183,0,0,0,2.224,3.488,8.595,0.315,0.632,-0.265,0.627,-4.372,9.088,-0.354,-0.006,-0.142,sad
3.03,1043,0,0,0,368,0,2054,3494,3080,2789,3578,3932,105,0,0,0,0.761,3.536,9.902,0.212,0.529,-0.269,0.788,-4.384,9.280,-0.321,-0.001,-0.108,sad
3.04,1195,0,0,0,677,0,2256,3546,3067,2693,3560,3837,75,0,0,0,0.699,3.220,9.649,0.242,0.226,-0.199,0.795,-4.405,9.000,-0.355,0.008,-0.101,sad
3.05,1391,0,0,0,1008,0,2439,3583,3030,2741,3539,3765,21,0,0,0,1.393,3.376,9.330,0.302,0.160,-0.215,0.905,-4.602,8.983,-0.419,0.042,-0.126,sad
3.06,1534,193,69,0,1101,0,2559,3632,3015,2653,3537,3725,37,0,0,0,1.075,3.419,9.352,0.194,0.124,-0.190,0.824,-4.585,8.854,-0.444,0.037,-0.124,sad
3.07,1651,432,529,0,1216,0,2684,3654,2949,2591,3552,3608,0,0,0,0,1.001,3.443,9.586,0.230,0.105,-0.173,0.747,-4.827,8.873,-0.495,0.075,-0.134,sad
3.08,1731,647,999,576,1376,0,2769,3668,2935,2493,3508,3511,0,0,5,0,1.199,3.553,9.450,0.186,0.143,-0.216,0.766,-4.820,8.768,-0.622,0.079,-0.143,sad
3.09,1845,817,1520,1266,1407,0,2834,3684,2872,2408,3478,3491,0,0,0,0,1.142,3.962,9.632,0.175,0.176,-0.187,0.792,-5.035,8.703,-0.562,0.055,-0.133,sad
3.10,1959,883,1907,1709,1573,0,2900,3711,2759,2204,3460,3411,9,0,0,0,0.927,3.610,9.297,0.127,0.132,-0.109,0.967,-5.179,8.703,-0.576,0.092,-0.142,sad
3.11,2089,1035,2176,2055,1685,0,2965,3728,2639,1939,3242,3380,0,0,0,0,0.891,3.649,9.476,0.110,0.051,-0.032,1.020,-5.294,8.583,-0.551,0.094,-0.168,sad
3.12,2128,1215,2335,2209,1657,0,3040,3750,1311,1553,3357,125,37,0,20,30,1.003,3.831,9.512,0.029,0.008,0.029,0.907,-5.339,8.564,-0.543,0.117,-0.167,sad
3.13,2158,1264,2385,2249,1770,11,3152,3769,1076,38,3130,3170,93,23,377,0,1.068,3.539,9.297,-0.026,-0.019,0.041,0.761,-5.461,8.219,-0.641,0.125,-0.144,sad
3.14,2135,1321,2407,2180,1875,64,3223,3786,1077,41,3089,2903,85,40,239,0,1.094,3.373,9.280,-0.035,-0.040,0.030,0.795,-5.543,8.337,-0.649,0.036,-0.102,sad
3.15,2130,1377,2442,2154,1953,251,3280,3808,1067,53,3048,2791,76,12,163,0,0.974,3.376,9.325,-0.009,-0.055,0.023,0.867,-5.655,8.586,-0.662,0.033,-0.061,sad
3.16,2097,1439,2482,2038,1971,370,3351,3825,859,68,2474,2645,61,0,95,1,1.259,3.773,9.349,-0.058,-0.126,0.101,0.941,-5.545,8.935,-0.694,0.022,0.044,sad
3.17,1885,1533,2478,1632,2187,422,3424,3856,313,84,831,1485,29,0,52,21,1.106,3.225,9.364,-0.019,-0.168,0.137,0.673,-5.729,8.789,-0.915,-0.080,0.117,sad
3.18,1698,1675,2559,1482,2301,568,3490,3869,76,69,276,233,23,0,37,27,1.322,3.309,9.316,0.037,-0.108,0.072,1.104,-5.883,8.751,-1.064,-0.129,0.228,sad
3.19,1635,1815,2667,1563,2352,814,3532,3879,73,45,232,101,8,0,43,21,1.147,3.438,9.500,0.035,-0.038,0.045,1.015,-6.491,8.746,-1.335,-0.420,0.635,sad
3.20,1535,1904,2717,1584,2494,907,3556,3888,84,24,217,43,3,0,23,29,1.065,3.735,9.574,-0.022,-0.089,0.066,1.410,-6.373,9.570,-1.445,-0.706,1.110,sad
3.21,1303,1964,2667,1221,2655,977,3604,3905,69,18,217,29,0,0,0,27,1.317,3.366,9.321,-0.097,-0.187,0.136,1.504,-7.755,9.218,-1.390,-0.675,1.213,sad
3.22,1087,2016,2637,950,2735,947,3643,3910,0,0,199,0,0,0,0,0,1.405,3.189,9.285,0.001,-0.206,0.108,-0.702,-6.891,11.449,-0.718,-0.688,1.572,sad
3.23,1023,2113,2690,966,2874,816,3668,3912,60,1,186,21,0,0,0,1,1.506,3.203,9.249,0.019,-0.099,0.065,-0.546,-2.916,9.713,-0.239,-0.319,2.223,sad
3.24,1088,2193,2803,1052,2913,754,3696,3907,68,0,181,5,0,0,16,11,1.346,3.223,9.196,0.042,0.027,-0.002,-1.125,-6.565,10.690,-0.140,-0.139,2.204,sad
3.25,1061,2256,2890,1314,2965,838,3698,3904,0,51,181,0,0,0,21,0,1.295,3.443,9.361,0.076,0.093,-0.047,0.235,-2.983,8.171,0.673,-0.330,1.860,sad
3.26,1211,2302,2939,1505,2963,1083,3696,3907,0,119,184,0,0,0,0,0,1.456,3.203,9.194,0.087,0.201,-0.084,1.659,-3.285,9.282,0.722,-0.284,1.309,sad
3.27,1328,2289,2973,1774,2858,1403,3680,3907,0,0,181,0,0,0,0,0,1.341,3.156,9.527,0.171,0.266,-0.175,1.741,-3.733,8.940,0.936,-0.201,0.969,sad
3.28,1513,2192,2933,1923,2660,1611,3629,3907,0,0,181,0,0,0,0,0,1.276,3.445,9.323,0.223,0.251,-0.217,1.142,-3.172,7.314,1.038,-0.090,0.440,sad
3.29,1794,2013,2847,2118,2424,1710,3524,3913,0,0,458,0,0,0,0,0,1.154,3.649,9.321,0.164,0.225,-0.162,0.850,-3.440,8.849,1.223,-0.188,0.043,sad
3.30,1957,1873,2800,2283,2296,1811,3512,3924,0,0,176,27,0,0,0,0,0.998,3.618,9.335,0.140,0.200,-0.116,0.572,-3.412,8.916,1.324,-0.168,-0.082,sad
3.31,2077,1721,2716,2373,1973,1833,3477,3918,0,0,148,0,0,0,0,0,0.984,3.584,9.402,0.096,0.157,-0.080,0.101,-4.056,9.074,1.485,-0.145,-0.110,sad
3.32,2176,1561,2682,2470,1888,1927,3473,3951,0,0,174,0,0,0,0,2,0.958,3.488,9.330,0.052,0.149,-0.063,0.515,-4.520,10.195,1.639,-0.243,-0.075,sad
3.33,2230,1441,2659,2559,1883,2000,3477,3931,0,0,176,0,0,0,0,0,0.994,3.424,9.261,0.063,0.124,-0.064,0.965,-4.669,10.274,1.739,-0.259,-0.118,sad
3.34,2320,1296,2640,2632,1759,1972,3437,3931,0,0,174,0,23,0,0,5,1.022,3.536,9.335,0.075,0.126,-0.075,1.348,-4.621,9.167,1.753,-0.219,-0.235,sad
3.35,2384,1274,2653,2734,1751,2032,3391,3926,0,0,174,0,0,0,0,0,1.065,3.632,9.266,0.089,0.071,-0.076,1.463,-4.951,10.503,1.683,-0.326,-0.347,sad
3.36,2495,1306,2749,2833,1819,2102,3395,3920,0,0,171,0,0,0,0,0,0.931,3.551,9.304,0.071,0.027,-0.054,1.338,-5.193,10.896,1.727,-0.425,-0.457,sad
3.37,2586,1367,2827,2898,1863,2061,3381,3920,0,0,156,87,56,0,0,0,0.900,3.555,9.359,0.063,0.024,-0.044,0.771,-5.210,9.979,1.706,-0.468,-0.570,sad
3.38,2654,1488,2879,2928,1838,2071,3379,3907,0,0,176,0,0,0,0,0,0.984,3.558,9.275,0.067,0.003,-0.037,0.433,-5.255,10.106,1.605,-0.511,-0.503,sad
3.39,2723,1619,2944,2975,1893,2186,3389,3907,0,0,174,0,0,0,0,0,0.941,3.608,9.342,0.059,-0.026,-0.025,0.539,-5.373,10.357,1.544,-0.517,-0.459,sad
3.40,2781,1735,2999,3019,2016,2160,3399,3901,0,0,174,0,0,0,0,0,0.977,3.622,9.280,0.047,-0.063,-0.021,0.759,-5.083,9.881,1.430,-0.499,-0.472,sad
3.41,2819,1851,3029,3029,2201,2176,3410,3895,19,0,117,0,200,0,2,0,0.907,3.531,9.316,0.040,-0.089,-0.005,0.582,-4.853,9.627,1.253,-0.399,-0.553,sad
3.42,2847,1917,3088,3040,2391,2186,3440,3883,41,5,7,3,0,0,2,0,0.979,3.455,9.306,0.044,-0.081,-0.003,0.493,-4.573,9.450,1.097,-0.374,-0.572,sad
3.43,2877,2057,3152,3055,2443,2142,3472,3877,2,2,156,29,0,0,0,0,0.922,3.589,9.452,0.056,-0.097,0.006,0.869,-4.942,9.718,0.962,-0.229,-0.556,sad
3.44,2904,2178,3198,3061,2544,2099,3462,3856,63,0,225,5,0,5,0,1,1.118,3.615,9.347,0.042,-0.043,0.006,0.405,-4.820,10.108,0.905,-0.110,-0.559,sad
3.45,2919,2265,3245,3083,2618,2118,3494,3850,59,1,171,2,0,0,0,2,1.142,3.539,9.294,0.055,-0.022,0.012,0.211,-4.645,9.890,0.872,-0.173,-0.551,sad
3.46,2939,2301,3275,3093,2670,2087,3493,3840,59,0,174,0,0,29,0,3,1.027,3.575,9.352,0.061,-0.011,0.023,1.226,-4.061,9.227,0.746,-0.236,-0.629,sad
3.47,2949,2365,3306,3109,2725,2070,3493,3824,59,0,212,7,0,0,0,3,1.082,3.596,9.268,0.049,0.014,0.015,2.787,-3.891,9.625,0.656,-0.050,-0.852,sad
3.48,2960,2416,3340,3123,2782,2082,3491,3819,59,0,158,5,1,0,0,3,1.056,3.536,9.210,0.043,0.016,0.011,2.784,-3.273,9.309,0.635,0.045,-1.031,sad
3.49,2963,2463,3377,3150,2879,2159,3488,3805,61,0,161,4,99,0,0,4,1.180,3.491,9.306,0.072,-0.021,0.021,0.316,-2.871,9.524,0.463,-0.168,-1.418,sad
3.50,2977,2546,3418,3167,2953,2039,3487,3776,59,1,156,4,0,0,0,2,1.164,3.565,9.318,0.071,-0.047,0.037,-1.384,-2.552,9.570,0.420,0.074,-1.181,sad
3.51,2995,2619,3473,3191,3047,1964,3472,3739,60,0,161,5,0,0,0,3,1.164,3.519,9.297,0.065,-0.016,0.028,-2.286,-2.272,9.210,0.366,0.073,-0.836,sad
3.52,2996,2624,3507,3209,3103,1873,3449,3709,61,1,181,6,0,0,0,3,1.252,3.512,9.261,0.094,0.007,0.014,-1.496,-3.081,9.962,0.376,-0.369,-0.112,sad
3.53,3023,2619,3543,3242,3121,1717,3392,3670,61,0,151,0,5,0,0,2,1.135,3.598,9.290,0.096,0.020,0.014,0.213,-2.796,8.540,0.337,-0.443,0.211,sad
3.54,3051,2659,3573,3280,3151,1591,3351,3634,61,0,161,4,0,0,0,0,1.147,3.670,9.263,0.060,0.022,0.014,1.001,-2.715,8.404,0.254,-0.360,0.204,sad
3.55,3063,2686,3613,3300,3167,1638,3314,3583,60,0,161,4,0,70,0,0,1.178,3.577,9.234,0.048,0.016,0.010,1.362,-2.686,8.866,0.137,-0.365,0.107,sad
3.56,3071,2752,3661,3327,3200,1598,3296,3568,62,0,156,20,0,0,0,24,1.185,3.572,9.225,0.072,0.017,0.015,1.738,-2.049,8.334,-0.020,-0.218,0.021,sad
3.57,3091,2778,3665,3343,3241,1488,3268,3522,61,7,156,4,0,0,68,5,1.144,3.625,9.287,0.078,0.015,0.013,1.688,-1.970,8.600,-0.119,-0.196,-0.058,sad
3.58,3089,2815,3690,3369,3265,1469,3222,3480,63,0,156,3,0,0,0,4,1.195,3.618,9.246,0.054,0.011,0.005,2.179,-1.978,8.801,-0.221,-0.164,-0.181,sad
3.59,3107,2839,3707,3399,3295,1369,3152,3423,61,0,161,0,0,18,0,44,1.221,3.632,9.292,0.076,0.007,-0.001,2.076,-1.913,8.792,-0.339,-0.042,-0.260,sad
3.60,3130,2903,3733,3417,3313,1105,3049,3344,60,9,156,3,0,4,5,4,1.221,3.644,9.251,0.089,0.019,-0.002,1.954,-2.033,8.854,-0.408,-0.038,-0.301,sad
3.61,3137,2942,3750,3445,3338,992,2924,3248,61,0,156,3,0,0,0,5,1.161,3.685,9.294,0.097,0.010,-0.002,2.128,-1.405,11.435,-0.432,0.581,-0.826,sad
3.62,3167,2973,3776,3471,3358,759,2809,3053,58,0,345,31,0,24,7,4,1.211,3.587,9.287,0.104,-0.005,0.011,1.597,-0.084,8.217,-0.933,0.331,-1.064,sad
3.63,3205,3034,3803,3498,3382,638,2694,2716,59,0,153,5,0,0,0,5,1.276,3.546,9.218,0.121,-0.018,0.008,0.747,-0.383,8.775,-1.110,0.325,-1.054,sad
3.64,3258,3101,3821,3525,3393,323,2512,1943,59,0,153,2,0,2,0,5,1.192,3.709,9.287,0.122,-0.035,-0.005,-0.515,-2.320,10.894,-0.886,0.243,-0.930,sad
3.65,3294,3205,3837,3536,3399,0,2303,961,59,0,151,3,0,0,0,0,1.317,3.455,9.256,0.107,-0.037,0.006,-2.023,0.294,9.771,-0.982,0.240,-0.254,sad
3.66,3332,3270,3861,3572,3376,0,2005,0,57,0,151,1,0,0,0,127,1.331,3.651,9.239,0.134,-0.023,0.016,-2.136,-0.579,10.649,-1.078,0.211,0.114,sad
3.67,3371,3347,3876,3575,3269,0,1640,0,81,3,145,7,0,0,0,16,1.221,3.948,9.400,0.179,-0.015,0.010,1.341,-2.033,10.324,-1.203,0.074,0.353,sad
3.68,3413,3392,3890,3600,3014,0,1084,0,57,10,345,13,0,0,0,117,1.317,3.685,9.165,0.151,-0.016,0.002,1.841,-2.756,10.348,-1.206,-0.260,0.084,sad
3.69,3452,3462,3910,3617,2603,0,785,0,57,4,151,10,0,0,0,105,1.326,3.946,9.136,0.168,-0.009,-0.004,1.006,-3.311,10.451,-1.078,-0.124,0.195,sad
3.70,3490,3505,3921,3626,2412,0,370,0,57,3,143,10,0,0,3,59,1.350,3.541,9.239,0.174,-0.026,-0.011,2.145,-3.407,9.541,-1.007,0.028,0.317,sad
3.71,3532,3545,3924,3635,2243,0,0,0,56,11,140,807,0,0,994,105,1.475,3.661,9.088,0.243,-0.031,-0.017,2.011,-3.129,9.934,-0.987,0.116,0.330,sad
3.72,3555,3583,3931,3644,2064,0,0,0,56,12,140,1018,0,0,1241,139,1.312,3.802,9.206,0.288,-0.043,0.039,1.192,-5.207,11.574,-0.832,0.025,0.282,sad
3.73,3543,3598,3937,3639,1903,0,0,0,42,13,130,1353,0,0,1553,111,1.346,3.840,9.074,0.364,-0.014,0.074,1.384,-4.848,8.710,-0.132,0.341,0.265,sad
3.74,3610,3605,3943,3632,1813,0,0,0,53,13,130,1464,0,0,1672,164,1.468,3.948,9.206,0.432,-0.016,0.076,-0.357,-6.005,12.435,-0.011,0.097,0.184,sad
3.75,3615,3575,3941,3617,1573,0,0,0,54,0,133,1653,0,0,1810,149,1.506,4.085,8.935,0.472,-0.015,0.111,1.350,-3.256,9.316,0.122,0.037,0.138,sad
3.76,3648,3500,3920,3530,1263,0,0,0,52,16,135,1958,0,0,2092,163,1.523,4.183,9.002,0.526,0.038,0.126,0.838,-3.220,9.503,-0.048,0.010,0.089,sad
3.77,3659,3377,3911,3569,1146,0,0,0,0,17,130,2166,0,0,2301,189,1.537,4.300,8.906,0.558,0.068,0.136,1.250,-3.759,9.610,0.075,-0.066,0.031,sad
3.78,3668,3211,3903,3550,923,0,0,0,53,0,176,2253,0,4,2423,183,1.487,4.413,8.866,0.539,0.124,0.131,1.721,-3.651,9.850,0.032,-0.165,0.011,sad
3.79,3671,2927,3869,3490,839,0,0,0,57,0,145,2446,0,0,2637,3693,1.417,4.542,8.906,0.544,0.145,0.133,1.465,-3.242,9.170,0.110,-0.129,-0.021,sad
3.80,3659,2721,3879,3396,719,0,0,0,60,19,145,2633,0,0,2851,243,1.259,4.676,8.720,0.543,0.143,0.115,1.295,-3.345,9.522,0.090,0.023,0.064,sad
3.81,3654,2623,3825,3232,448,0,0,0,1,16,153,2664,0,0,2927,3797,1.334,4.788,8.672,0.502,0.120,0.092,1.544,-3.041,9.002,0.074,0.135,0.111,sad
3.82,3641,2640,3796,3152,150,0,0,0,61,9,153,2787,45,0,3003,3847,1.219,4.791,8.636,0.441,0.086,0.087,1.350,-3.263,9.558,-0.009,0.148,0.133,sad
3.83,3583,2653,3766,3101,96,0,0,0,59,22,161,2837,1,0,3143,3891,1.334,4.908,8.526,0.414,0.060,0.062,1.437,-3.259,9.467,0.064,-0.060,-0.004,sad
3.84,3543,2640,3746,3043,58,0,0,0,67,23,171,2889,0,0,3229,3911,1.506,5.887,9.100,0.410,0.011,0.058,1.195,-3.364,9.653,0.056,-0.091,-0.017,sad
3.85,3471,2624,3711,2961,0,0,0,0,106,25,174,3036,12,0,3339,3949,1.463,5.128,8.540,0.419,0.044,0.060,1.506,-3.029,9.234,0.090,0.024,0.011,sad
3.86,3367,2513,3664,2810,6,0,0,0,71,24,151,3081,0,0,3423,3986,1.554,5.071,8.581,0.490,0.062,0.083,1.286,-3.270,9.713,0.062,0.010,0.013,sad
3.87,3249,2386,3598,2650,0,0,0,0,70,25,156,3133,1,0,3456,3995,1.441,5.088,8.667,0.520,0.067,0.057,1.381,-3.321,9.498,0.038,-0.101,-0.049,sad
3.88,3099,2102,3467,2401,0,0,0,0,70,28,181,3151,3,0,3525,4024,1.686,5.318,8.763,0.670,0.032,0.036,1.413,-3.333,9.665,0.055,-0.221,-0.088,sad
3.89,2899,1747,3184,2144,0,0,0,0,72,31,184,3220,4,0,3605,4055,1.420,5.028,8.921,0.811,0.028,-0.064,1.492,-3.201,9.426,0.075,-0.217,-0.089,sad
3.90,2705,1125,2814,1712,0,0,0,0,72,25,181,3273,56,0,3652,4071,0.927,5.727,10.216,0.999,-0.069,-0.127,1.573,-3.067,9.354,0.047,-0.182,-0.074,sad
3.91,2457,879,2288,1067,0,0,0,0,0,5,191,0,81,0,3747,4095,1.484,5.681,9.048,1.303,-0.570,-0.482,1.697,-3.031,9.275,0.030,-0.058,-0.022,sad
3.92,2256,420,1261,503,0,0,0,0,0,18,191,0,108,0,3791,4095,2.251,5.801,8.995,1.629,-0.325,-0.779,1.523,-3.156,9.608,0.011,0.007,0.009,sad
3.93,2057,208,625,183,0,0,0,0,0,35,191,0,109,0,3803,4095,1.518,7.192,9.661,1.763,-0.319,-0.817,1.365,-3.369,9.890,0.000,-0.032,-0.001,sad
3.94,1535,0,0,0,0,0,0,0,0,38,294,0,136,0,3819,4095,1.140,6.737,9.036,1.553,-0.308,-1.230,1.559,-3.105,9.436,0.014,-0.004,-0.001,sad
3.95,927,0,0,0,0,0,0,0,0,38,197,0,181,0,3847,4095,1.293,6.986,10.965,1.085,-0.349,-1.192,1.697,-3.132,9.285,0.042,0.058,0.035,sad
3.96,198,0,0,0,0,0,0,0,0,34,202,0,249,0,3861,4095,-0.091,3.572,11.059,0.649,-0.226,-1.366,1.559,-2.919,9.136,0.029,0.140,0.066,sad
3.97,0,0,0,0,0,0,0,0,0,57,199,0,279,0,3869,4095,-1.609,3.730,10.060,0.406,-0.272,-1.615,1.489,-3.117,9.299,0.019,0.194,0.090,sad
3.98,0,0,0,0,0,0,0,0,0,51,202,0,361,0,3879,4095,-0.141,5.145,10.889,-0.184,-0.129,-1.627,1.487,-2.954,9.404,0.009,0.250,0.090,sad
3.99,0,0,0,0,0,0,0,0,0,14,207,0,304,0,3882,4095,1.441,3.697,8.557,-0.344,0.086,-1.739,1.571,-2.828,8.964,-0.001,0.352,0.149,sad
4.00,0,0,0,0,0,0,0,0,0,59,204,0,311,0,3879,4095,1.721,3.421,7.513,-0.487,0.168,-1.598,-0.101,-1.920,9.701,-0.097,0.481,0.277,sad
4.01,0,0,0,0,0,0,0,0,0,101,353,18,315,0,3880,4095,2.047,3.630,7.240,-0.495,0.068,-1.357,1.707,-3.139,9.412,-0.107,0.453,0.343,sad
4.02,0,0,0,0,0,0,0,0,0,115,580,0,316,0,3885,4095,2.593,3.788,7.549,-0.494,-0.081,-1.001,1.190,-3.510,9.792,-0.102,0.299,0.278,sad
4.03,0,0,0,0,0,0,0,0,2,101,1010,616,357,3,3877,4095,2.969,4.032,7.199,-0.523,-0.049,-0.656,1.176,-3.057,9.886,-0.077,0.288,0.350,sad
4.04,0,0,0,0,0,0,0,0,1,115,939,875,361,0,3881,4095,2.380,3.936,7.554,-0.519,-0.056,-0.323,1.152,-3.388,9.895,-0.085,0.276,0.357,sad
4.05,5,0,0,0,0,0,0,0,1,75,1005,1324,469,2,3883,4095,1.525,4.068,7.877,-0.558,-0.087,-0.067,1.216,-3.632,9.582,-0.061,0.200,0.262,sad
4.06,25,0,0,0,0,0,0,0,5,110,975,1561,428,3,3896,4095,0.910,4.290,8.423,-0.620,-0.103,0.062,1.099,-3.598,9.594,-0.017,0.175,0.200,sad
4.07,13,0,0,0,0,0,0,0,1,183,1338,1647,415,2,3899,4095,0.323,4.185,8.638,-0.754,-0.128,0.071,1.041,-3.323,9.543,-0.028,0.111,0.157,sad
4.08,48,0,0,0,0,0,0,0,2,533,1691,1813,402,0,3945,4095,0.273,4.329,8.808,-0.857,-0.145,0.031,1.144,-3.347,9.548,-0.008,0.096,0.146,sad
4.09,83,0,0,0,0,0,0,0,2,502,1819,1907,517,3,3919,4095,0.433,4.106,8.930,-0.953,-0.153,-0.032,1.156,-3.428,9.548,-0.023,0.120,0.170,sad
4.10,75,0,0,0,0,0,0,0,13,535,2106,1992,499,3,3919,4095,1.063,4.266,8.909,-1.059,-0.114,-0.051,1.003,-3.282,9.591,-0.054,0.142,0.195,sad
4.11,61,0,0,0,0,0,0,0,1,571,1865,2063,495,3,3923,4095,1.379,4.475,9.443,-1.134,-0.118,-0.032,0.876,-3.268,9.574,-0.060,0.150,0.198,sad
4.12,101,0,0,0,0,0,0,0,3,600,1824,2125,499,3,3916,4095,1.721,4.690,9.565,-1.257,-0.152,0.025,1.106,-3.302,9.426,-0.069,0.129,0.208,sad
4.13,104,0,0,0,0,0,0,0,23,728,2162,2196,484,8,3913,4095,1.709,4.539,9.009,-1.361,-0.152,0.082,0.994,-3.469,9.584,-0.088,0.087,0.160,sad
4.14,102,0,0,0,0,0,0,0,53,743,2226,2264,475,90,3913,4089,1.669,4.403,8.803,-1.357,-0.193,0.137,0.907,-3.390,9.582,-0.084,0.074,0.151,sad
4.15,112,0,0,0,0,0,0,0,83,777,2178,2293,487,23,4075,4082,1.748,4.654,9.270,-1.359,-0.245,0.187,0.912,-3.505,9.555,-0.071,0.074,0.144,sad
4.16,128,0,0,0,0,0,0,0,87,789,1993,2359,508,20,3896,4067,1.877,4.755,9.397,-1.387,-0.277,0.244,0.960,-3.414,9.548,-0.060,0.080,0.146,sad
4.17,103,0,0,0,0,0,0,0,139,882,2070,2441,544,35,3899,4061,2.143,4.717,9.242,-1.383,-0.283,0.285,0.864,-3.534,9.330,-0.076,0.031,0.092,sad
4.18,111,0,0,0,0,0,0,0,172,1006,2231,2637,527,39,3931,4057,2.765,4.776,9.598,-1.378,-0.319,0.413,0.912,-3.493,9.361,-0.026,-0.036,-0.006,sad
4.19,115,0,0,0,0,0,0,0,89,1191,2741,2675,903,24,3951,4025,2.938,4.489,9.357,-1.328,-0.378,0.677,0.994,-3.541,9.507,-0.012,-0.052,-0.006,sad
4.20,169,0,0,0,0,0,0,0,63,1338,2848,2699,1069,20,3957,4010,2.741,4.863,9.890,-1.276,-0.418,0.936,0.996,-3.563,9.558,0.005,-0.022,-0.004,sad
4.21,208,0,0,0,0,0,0,0,81,1407,2925,2683,1492,19,3976,3960,2.107,4.779,9.862,-1.284,-0.367,1.102,0.864,-3.400,9.538,-0.036,-0.032,-0.021,sad
4.22,240,0,0,0,0,0,0,0,21,1541,3022,2685,1949,0,3985,3891,1.111,4.654,10.197,-1.243,-0.361,1.078,1.041,-3.488,9.459,-0.023,-0.061,-0.051,sad
4.23,224,0,0,0,0,0,0,0,12,1634,2879,2666,2168,6,3989,3739,0.591,4.597,10.214,-1.269,-0.359,0.865,0.903,-3.431,9.483,-0.015,-0.046,-0.025,sad
4.24,304,0,0,0,0,0,0,0,23,1779,3048,2727,2426,8,3987,3557,0.433,4.379,9.938,-1.212,-0.380,0.570,1.022,-3.448,9.558,-0.020,-0.006,0.013,sad
4.25,302,0,0,0,0,0,0,0,12,1865,3130,2793,2637,8,3995,3565,0.915,4.298,9.519,-1.143,-0.320,0.344,1.003,-3.505,9.428,-0.052,-0.029,0.003,sad
4.26,317,0,0,0,0,0,0,0,18,1909,2920,2803,2685,29,3998,3604,1.214,4.252,9.369,-0.981,-0.194,0.159,1.061,-3.467,9.436,-0.046,-0.019,0.009,sad
4.27,304,0,0,0,0,0,0,0,57,1878,3176,2835,2815,20,3992,3627,1.863,4.745,10.360,-1.008,-0.320,0.156,1.056,-3.498,9.471,-0.028,0.014,0.037,sad
4.28,299,0,0,0,0,0,0,0,91,1755,3334,2908,2885,25,3993,3642,2.330,3.905,9.093,-0.927,-0.244,0.248,0.982,-3.508,9.505,-0.045,-0.009,0.042,sad
4.29,302,0,0,0,0,0,0,0,122,1831,3252,2952,2877,31,3988,3719,2.112,4.003,9.060,-0.823,-0.226,0.386,0.991,-3.572,9.574,-0.037,0.007,0.039,sad
4.30,303,0,0,0,0,0,0,0,199,1739,3255,2973,2855,42,3957,3647,2.375,3.766,8.775,-0.670,-0.135,0.565,1.041,-3.560,9.395,-0.060,0.048,0.068,sad
4.31,347,0,0,0,0,0,0,0,287,1710,3247,3037,2775,39,3959,3672,2.054,3.555,9.582,-0.550,-0.003,0.746,0.977,-3.570,9.479,-0.041,0.037,0.063,sad
4.32,335,0,0,0,0,0,0,0,381,1710,3268,3111,2807,47,3887,3683,1.463,3.352,9.948,-0.568,-0.091,0.824,0.984,-3.527,9.371,-0.054,0.017,0.044,sad
4.33,377,0,0,0,0,0,0,0,475,1783,3311,3133,2901,75,3960,3688,1.480,3.112,8.997,-0.603,-0.059,0.822,0.967,-3.632,9.361,-0.044,0.037,0.032,sad
4.34,395,0,0,0,0,0,0,0,587,1881,3324,3158,2969,50,3929,3682,0.627,2.904,8.796,-0.446,0.008,0.630,0.991,-3.577,9.438,-0.041,0.021,0.010,sad
4.35,387,0,0,0,0,0,0,0,685,1897,3355,3181,3003,47,3940,3661,0.247,3.491,9.562,-0.443,-0.212,0.339,0.953,-3.639,9.455,-0.049,0.019,0.009,sad
4.36,412,0,0,0,0,0,0,0,794,2005,3393,3220,3097,107,3916,3635,0.613,2.255,8.344,-0.337,-0.270,0.007,0.979,-3.615,9.412,-0.064,0.025,0.010,sad
4.37,432,0,0,0,0,0,0,0,822,2101,3462,3236,3193,50,3871,3669,1.578,2.251,9.706,-0.219,-0.330,-0.195,0.974,-3.615,9.316,-0.084,0.005,-0.009,sad
4.38,446,0,0,0,0,0,0,0,863,2109,3467,3252,3232,48,3797,3577,2.148,2.282,9.335,-0.333,-0.384,-0.211,0.991,-3.615,9.397,-0.122,-0.005,-0.008,sad
4.39,496,0,0,0,0,0,0,0,917,2107,3501,3295,3312,51,3628,3513,2.255,1.856,8.631,-0.218,-0.315,-0.209,0.891,-3.891,9.452,-0.078,0.007,-0.001,sad
4.40,537,0,0,0,0,0,0,0,1163,2189,3526,3369,3386,51,3456,3353,2.100,2.260,7.994,-0.122,-0.239,-0.118,1.018,-3.709,9.369,-0.126,0.011,-0.000,sad
4.41,560,0,0,0,0,0,0,0,1207,2232,3544,3410,3435,49,3495,3281,1.733,2.600,8.708,0.072,-0.254,-0.095,0.931,-3.840,9.340,-0.149,0.007,0.002,sad
4.42,575,0,0,0,0,0,0,0,1266,2395,3560,3444,3483,99,3480,3115,1.506,2.236,8.370,0.083,-0.187,-0.091,0.948,-3.785,9.400,-0.167,0.042,-0.001,sad
4.43,581,0,0,0,0,0,0,0,1387,2487,3575,3515,3546,51,3467,2953,0.790,2.365,7.752,0.247,-0.121,-0.194,1.022,-3.922,9.256,-0.131,0.066,0.009,sad
4.44,446,0,0,0,0,0,0,0,1529,2531,3578,3428,3563,47,3418,2827,2.274,0.177,13.269,0.114,0.992,0.049,1.046,-3.771,9.325,-0.145,0.059,0.004,sad
4.45,546,0,0,0,0,0,0,0,1625,2615,3585,3572,3599,51,3373,2569,3.158,-1.762,9.258,0.414,0.462,0.233,0.967,-3.943,9.424,-0.091,0.061,0.017,sad
4.46,544,0,0,0,0,0,0,0,1779,2745,3593,3603,3610,51,3326,2205,0.953,0.869,9.103,0.509,0.327,0.167,0.953,-3.871,9.282,-0.115,0.065,0.014,sad
4.47,549,0,0,0,0,0,0,0,1820,2808,3601,3615,3624,51,3228,1983,0.354,-0.215,10.252,0.446,0.230,0.031,0.994,-3.958,9.191,-0.103,0.077,0.013,sad
4.48,502,0,0,0,0,0,0,454,1949,2889,3621,3515,3619,51,3160,1373,0.864,-0.053,9.838,0.548,0.040,-0.182,1.056,-4.037,9.412,-0.077,0.063,0.018,sad
4.49,487,0,0,0,0,0,0,1200,2072,2995,3621,3696,3621,51,2955,605,2.444,0.625,9.740,0.595,-0.073,-0.230,0.998,-3.749,9.297,-0.121,0.088,-0.022,sad
4.50,459,0,0,0,0,0,243,1854,2079,3021,3621,3703,3688,49,2908,313,3.615,0.785,9.313,0.726,-0.107,-0.167,0.907,-3.977,9.256,-0.109,0.056,-0.011,sad
4.51,506,0,0,0,0,0,449,2430,2173,3052,3547,3731,3497,51,2655,308,2.916,1.590,9.943,0.743,-0.129,-0.081,0.862,-4.269,9.301,-0.136,0.072,0.017,sad
4.52,545,0,0,0,0,0,755,2802,2115,3003,3626,3747,3220,5,2009,0,2.363,0.898,9.653,0.728,0.005,-0.168,1.058,-4.204,9.316,-0.194,0.128,0.026,sad
4.53,576,0,0,0,0,0,1060,3026,2139,3080,3631,3755,2995,0,1655,0,2.995,1.618,9.689,0.706,0.116,-0.234,0.867,-4.341,9.270,-0.180,0.114,0.037,sad
4.54,587,0,0,0,0,0,1187,3186,2297,3129,3593,3767,2573,19,1017,0,2.440,1.999,10.403,0.671,0.119,-0.235,0.843,-4.161,9.371,-0.164,0.072,0.051,sad
4.55,629,0,0,0,0,0,1287,3318,2324,3145,3631,3804,1937,5,614,0,1.978,2.071,10.058,0.534,0.026,-0.183,0.788,-4.307,9.069,-0.217,0.111,-0.071,sad
4.56,680,0,0,0,0,0,1386,3414,2283,3148,3629,3827,1487,3,390,0,2.071,1.963,9.986,0.568,-0.043,-0.151,0.721,-4.178,9.165,-0.217,0.163,-0.086,sad
4.57,756,0,0,0,0,0,1586,3501,2245,3131,3624,3849,886,0,0,11,2.401,2.713,10.573,0.489,-0.154,-0.132,0.912,-4.281,9.129,-0.249,0.164,-0.103,sad
4.58,850,0,0,0,0,0,1810,3558,2221,3078,3621,3887,231,0,0,0,2.940,2.136,9.297,0.371,-0.038,-0.123,0.745,-4.496,9.167,-0.301,0.130,-0.119,sad
4.59,909,0,0,0,0,0,1936,3600,2218,3047,3616,3898,150,0,0,0,2.471,2.114,9.558,0.366,0.072,-0.147,0.740,-4.338,8.971,-0.280,0.141,-0.119,sad
4.60,928,0,0,0,0,0,2112,3645,2285,3043,3621,3909,19,48,0,0,2.466,2.064,9.160,0.363,0.143,-0.160,0.668,-4.573,9.098,-0.229,0.077,-0.118,sad
4.61,966,0,0,0,0,0,2176,3679,2339,3147,3601,3923,3,0,2,0,2.387,1.884,8.933,0.416,0.265,-0.218,0.747,-4.460,9.005,-0.260,0.066,-0.130,sad
4.62,980,0,0,0,0,0,2218,3694,2413,3055,3636,3930,5,20,0,0,2.270,2.205,9.500,0.463,0.248,-0.233,0.754,-4.551,8.997,-0.261,0.049,-0.122,sad
4.63,1015,0,0,0,1,0,2320,3727,2385,3077,3703,3927,41,0,0,0,2.433,2.296,9.122,0.472,0.299,-0.262,0.747,-4.628,8.969,-0.263,0.030,-0.108,sad
4.64,986,0,0,0,47,0,2381,3743,2404,3101,3657,3867,39,0,0,0,2.243,2.830,9.780,0.512,0.295,-0.273,0.721,-4.700,9.045,-0.248,-0.073,-0.067,sad
4.65,983,0,0,0,64,0,2539,3774,2431,3144,3593,3877,16,0,0,0,1.836,2.717,9.778,0.507,0.154,-0.226,0.826,-4.729,8.997,-0.247,-0.099,-0.058,sad
4.66,1059,0,0,0,199,0,2698,3802,2445,3149,3590,3721,26,0,19,0,3.115,2.851,9.792,0.598,0.126,-0.225,0.881,-4.738,8.973,-0.299,-0.071,-0.060,sad
4.67,1165,0,0,0,768,0,2859,3819,2548,3147,3631,3609,0,0,0,0,1.908,3.591,10.113,0.280,0.187,-0.171,0.982,-4.853,8.796,-0.387,-0.020,-0.071,sad
4.68,1296,0,0,0,919,0,2973,3838,2283,3179,3636,3549,19,0,0,83,2.150,3.021,9.467,0.240,-0.020,-0.053,1.118,-5.057,8.952,-0.480,-0.022,-0.091,sad
4.69,1383,0,0,0,1170,0,3071,3851,2111,3175,3629,3515,20,0,0,0,1.946,2.808,8.926,0.213,0.056,-0.077,0.891,-4.956,8.662,-0.528,0.015,-0.104,sad
4.70,1433,0,0,0,1242,0,3131,3860,2020,3145,3590,3486,13,0,101,0,2.322,2.796,8.624,0.176,0.332,-0.165,0.778,-5.128,8.566,-0.636,0.017,-0.119,sad
4.71,1529,0,0,0,1276,0,3162,3872,1974,3147,3537,3390,1,10,0,0,1.884,2.878,9.208,0.257,0.549,-0.259,0.900,-5.138,8.657,-0.648,-0.007,-0.120,sad
4.72,1638,0,0,0,1335,0,3183,3877,1957,3141,3511,3367,51,0,0,0,1.992,1.654,10.867,-0.062,0.611,-0.258,0.867,-5.385,8.590,-0.676,-0.015,-0.129,sad
4.73,1717,32,0,0,1659,0,3186,3883,1912,3039,3493,3225,3,0,0,0,1.573,3.342,9.462,0.262,0.481,-0.181,1.046,-5.516,8.430,-0.698,0.013,-0.110,sad
4.74,1790,330,0,0,1792,0,3216,3883,1751,2789,3388,3021,51,0,0,0,1.255,3.606,9.787,0.167,0.209,-0.133,1.211,-5.655,8.509,-0.759,-0.021,-0.117,sad
4.75,1793,540,300,0,1930,0,3313,3894,1653,2599,3319,2867,57,0,0,0,1.343,3.201,9.507,0.177,0.080,-0.024,1.312,-5.684,8.914,-0.832,-0.106,-0.122,sad
4.76,1739,976,896,0,2134,0,3406,3895,1287,1765,2884,1876,0,0,31,0,1.396,3.546,9.766,0.185,0.045,-0.010,1.176,-5.725,8.495,-0.997,-0.165,-0.014,sad
4.77,1703,1397,1472,47,2338,48,3458,3931,860,483,2364,863,57,5,62,8,1.580,3.610,9.622,0.095,0.045,0.004,1.274,-6.318,8.729,-1.235,-0.310,0.055,sad
4.78,1681,1583,1862,279,2448,245,3509,3919,299,359,867,483,26,0,45,24,1.492,3.421,9.392,0.030,0.084,-0.005,1.322,-6.577,9.117,-1.337,-0.358,0.165,sad
4.79,1614,1668,2128,359,2538,294,3553,3922,86,182,238,54,9,0,25,43,1.384,3.448,9.572,0.036,0.039,0.003,1.214,-6.855,8.772,-1.670,-0.935,0.389,sad
4.80,1490,1726,2256,423,2595,464,3582,3935,77,83,232,30,1,0,9,12,1.391,3.294,9.397,-0.005,-0.060,0.063,1.341,-8.952,9.378,-1.633,-1.284,0.285,sad
4.81,1429,1827,2382,494,2722,543,3620,3937,85,59,171,25,0,1,5,25,1.717,3.091,9.167,0.070,-0.036,0.009,1.865,-8.590,9.096,-1.189,-1.196,0.371,sad
4.82,1456,1949,2512,633,2731,578,3644,3938,74,1,212,6,0,0,0,0,1.595,3.273,9.263,0.074,0.022,-0.013,0.601,-5.030,9.084,-0.294,-0.465,0.887,sad
4.83,1484,2064,2640,803,2848,689,3647,3931,73,9,232,4,0,0,0,0,1.463,3.328,9.476,0.059,0.082,-0.064,-3.196,-2.605,10.434,0.332,-0.263,1.776,sad
4.84,1553,2128,2691,975,2855,889,3669,3937,71,0,186,6,0,37,0,4,1.484,3.275,9.366,0.061,0.064,-0.051,-2.974,-3.048,11.274,0.703,-0.084,2.316,sad
4.85,1610,2159,2768,1175,2919,1011,3674,3926,18,0,232,0,0,0,0,1,1.417,3.311,9.349,0.073,0.064,-0.047,0.836,-3.376,9.103,1.284,0.096,2.597,sad
4.86,1660,2224,2806,1306,2918,1088,3671,3931,0,0,99,0,0,0,0,0,1.437,3.345,9.392,0.068,0.071,-0.045,3.706,-3.565,8.617,1.564,0.148,2.083,sad
4.87,1712,2279,2870,1393,2928,1149,3677,3922,0,0,181,0,0,0,0,0,1.496,3.304,9.323,0.039,0.070,-0.029,4.381,-3.378,7.812,1.649,0.001,1.523,sad
4.88,1754,2308,2901,1584,2956,1185,3679,3920,0,0,189,0,0,4,0,0,1.525,3.294,9.378,0.030,0.075,-0.022,3.666,-3.790,8.588,1.576,-0.126,0.481,sad
4.89,1776,2320,2929,1630,2990,1173,3676,3930,0,0,176,0,0,57,0,0,1.415,3.333,9.404,0.034,0.033,0.008,1.549,-3.833,9.031,1.780,-0.233,-0.127,sad
4.90,1735,2354,2977,1680,3052,1186,3696,3922,0,0,161,0,0,4,0,13,1.393,3.333,9.364,0.056,-0.019,0.001,0.785,-3.505,8.442,1.733,-0.167,-0.165,sad
4.91,1697,2417,3024,1703,3106,1115,3697,3920,0,0,176,0,0,0,0,0,1.396,3.304,9.373,0.067,-0.030,0.004,0.575,-3.934,9.888,1.783,-0.041,0.008,sad
4.92,1648,2486,3066,1712,3152,1167,3697,3911,0,0,171,0,0,0,0,107,1.535,3.314,9.270,0.060,-0.015,-0.001,1.135,-3.974,9.780,1.817,-0.102,0.040,sad
4.93,1535,2586,3117,1713,3202,993,3707,3905,0,0,148,0,0,0,0,0,1.358,3.335,9.464,0.052,-0.054,0.013,1.587,-4.319,10.163,1.786,-0.181,-0.016,sad
4.94,1420,2661,3166,1691,3265,960,3717,3899,0,0,181,0,0,0,0,0,1.587,3.285,9.254,0.079,-0.057,-0.002,2.523,-4.767,10.305,1.707,-0.272,-0.329,sad
4.95,1335,2733,3196,1734,3316,923,3723,3898,0,0,176,0,0,0,0,0,1.607,3.364,9.364,0.085,-0.018,-0.023,2.291,-5.126,9.967,1.542,-0.291,-0.667,sad
4.96,1302,2766,3232,1776,3354,1023,3726,3895,0,0,171,0,0,0,0,0,1.669,3.474,9.306,0.023,-0.026,-0.007,2.035,-5.203,9.639,1.453,-0.237,-0.742,sad
4.97,1280,2802,3240,1708,3408,1073,3728,3885,8,0,56,0,0,1,0,0,1.528,3.364,9.299,0.041,-0.029,0.023,1.166,-6.029,10.867,1.357,-0.086,-0.773,sad
4.98,1174,2827,3221,1596,3443,960,3731,3886,12,4,181,5,0,0,0,5,1.674,3.426,9.313,0.047,-0.034,0.023,0.105,-5.203,9.498,1.127,-0.168,-0.760,sad
4.99,1092,2865,3260,1374,3499,849,3740,3883,111,0,161,2,0,0,0,0,1.640,3.239,9.278,0.017,-0.083,0.048,0.172,-4.966,9.620,1.018,-0.083,-0.720,sad
5.00,960,2891,3253,1152,3539,675,3755,3874,8,1,171,7,0,0,0,17,1.607,3.225,9.242,0.037,-0.076,0.020,-0.347,-6.261,12.354,1.096,-0.120,-0.607,sad
5.01,950,2913,3250,1184,3580,610,3754,3863,55,1,161,5,0,0,0,3,1.681,3.405,9.299,0.036,-0.067,0.022,0.017,-5.054,9.385,1.193,-0.321,-0.484,sad
5.02,933,2944,3269,1042,3626,606,3762,3855,25,1,161,5,0,0,43,4,1.719,3.251,9.163,0.046,-0.038,0.011,0.536,-5.071,9.112,1.056,-0.336,-0.469,sad
5.03,940,2975,3283,1089,3669,637,3771,3839,61,0,161,8,0,0,53,2,1.587,3.158,9.234,0.058,0.012,-0.013,1.269,-4.673,8.904,0.823,-0.210,-0.604,sad
5.04,995,3007,3328,1249,3728,675,3757,3823,61,0,161,5,0,0,0,0,1.568,3.254,9.428,0.072,-0.040,-0.006,0.972,-4.968,10.072,0.765,-0.141,-0.767,sad
5.05,1006,3046,3347,1296,3765,528,3767,3794,51,1,161,5,0,0,83,5,1.650,3.349,9.266,0.108,-0.050,-0.013,0.618,-4.288,9.292,0.778,-0.125,-0.772,sad
5.06,1095,3071,3385,1402,3792,397,3762,3757,57,0,158,0,0,0,0,5,1.750,3.424,9.239,0.085,-0.026,-0.005,0.280,-3.962,9.067,0.553,-0.085,-0.694,sad
5.07,1177,3121,3415,1516,3815,256,3741,3693,59,0,0,4,0,0,0,4,1.733,3.251,9.225,0.111,-0.028,-0.021,0.022,-3.266,8.693,0.452,-0.084,-0.557,sad
5.08,1284,3155,3454,1682,3854,129,3734,3601,61,0,161,135,0,0,1,5,1.513,3.539,9.438,0.117,-0.021,-0.022,0.285,-3.014,8.871,0.359,-0.095,-0.488,sad
5.09,1402,3201,3494,1811,3888,0,3726,3488,61,0,161,4,0,0,22,0,1.798,3.388,9.352,0.091,-0.029,-0.025,0.333,-3.000,9.072,0.282,-0.152,-0.339,sad
5.10,1451,3258,3526,1984,3920,0,3694,3246,60,0,161,3,0,0,0,7,1.776,3.278,9.143,0.124,-0.005,-0.033,0.814,-2.940,9.321,0.192,-0.214,-0.258,sad
5.11,1614,3283,3568,2112,3939,0,3665,2964,61,18,389,4,0,0,0,0,1.781,3.531,9.270,0.127,0.029,-0.039,1.111,-2.830,9.306,0.215,-0.191,-0.264,sad
5.12,1738,3313,3600,2242,3961,0,3632,2931,76,0,171,2,0,0,0,6,1.700,3.606,9.455,0.094,0.042,-0.030,0.785,-2.653,8.653,0.147,-0.131,-0.268,sad
5.13,1791,3345,3621,2320,3967,0,3598,2881,47,0,158,1,0,0,0,5,1.750,3.347,9.345,0.104,0.048,-0.038,0.860,-2.490,8.686,0.013,-0.093,-0.224,sad
5.14,1872,3391,3651,2412,3983,0,3549,2832,63,0,74,3,0,4,0,5,1.674,3.457,9.309,0.092,0.050,-0.034,0.852,-2.234,8.701,-0.026,-0.049,-0.195,sad
5.15,1941,3457,3684,2497,3991,0,3504,2793,61,0,0,4,0,43,0,5,1.808,3.479,9.170,0.079,0.052,-0.027,0.790,-2.315,9.167,-0.145,-0.141,-0.116,sad
5.16,2039,3456,3706,2586,3998,0,3444,2710,61,0,161,11,0,0,0,0,1.676,3.500,9.304,0.084,0.043,-0.030,1.290,-2.365,9.352,-0.095,-0.211,-0.038,sad
5.17,2105,3490,3732,2643,4003,0,3392,2613,61,0,158,3,0,7,0,5,1.844,3.484,9.165,0.081,0.048,-0.034,1.599,-1.951,9.055,-0.108,-0.162,-0.025,sad
5.18,2190,3518,3755,2707,4006,0,3351,2559,58,37,161,3,0,0,0,5,1.772,3.517,9.278,0.067,0.048,-0.029,1.652,-1.949,9.122,-0.180,-0.158,-0.045,sad
5.19,2243,3543,3762,2763,4015,0,3319,2543,59,0,158,5,0,0,0,2,1.616,3.543,9.273,0.059,0.048,-0.027,1.834,-1.891,9.220,-0.233,-0.191,-0.089,sad
5.20,2288,3568,3787,2807,4029,0,3315,2487,62,0,158,4,0,0,0,4,1.669,3.517,9.304,0.038,0.044,-0.023,1.939,-1.853,9.565,-0.247,-0.164,-0.093,sad
5.21,2334,3573,3794,2853,4026,0,3311,2448,62,0,158,3,0,0,0,141,1.729,3.589,9.249,0.039,0.035,-0.013,1.884,-1.674,10.058,-0.201,-0.184,-0.094,sad
5.22,2373,3597,3807,2889,4030,0,3281,2358,63,0,161,1,47,0,0,5,1.628,3.440,9.270,0.043,0.036,-0.014,1.839,-1.329,9.309,-0.193,-0.161,-0.100,sad
5.23,2421,3610,3821,2922,4035,0,3248,2196,61,0,156,3,0,0,0,5,1.707,3.558,9.282,0.052,0.032,-0.016,1.779,-1.389,9.459,-0.261,-0.148,-0.114,sad
5.24,2462,3633,3828,2951,4035,0,3215,1938,59,6,156,0,0,0,0,142,1.666,3.517,9.232,0.055,0.027,-0.013,1.815,-1.738,10.242,-0.214,-0.139,-0.162,sad
5.25,2497,3664,3831,2975,4042,0,3194,1726,59,44,0,8,0,0,0,7,1.609,3.469,9.249,0.085,0.012,-0.015,6.448,1.250,9.773,-0.254,1.007,-0.512,sad
5.26,2559,3676,3855,2999,4039,0,3143,1329,61,6,161,3,0,0,0,138,1.638,3.613,9.237,0.088,0.014,-0.019,-0.869,0.038,11.782,-0.230,0.808,-0.865,sad
5.27,2595,3686,3868,3015,4041,0,3091,859,22,0,153,3,0,0,0,5,1.714,3.625,9.232,0.062,0.018,-0.010,-0.881,-1.860,10.262,-0.443,0.606,-0.724,sad
5.28,2649,3713,3857,3027,4050,0,3067,538,104,0,153,59,7,0,0,125,1.700,3.474,9.215,0.066,0.022,-0.012,-0.587,-0.414,9.658,-0.458,0.567,-0.400,sad
5.29,2706,3729,3886,3053,4043,0,3024,196,61,0,156,21,0,0,0,107,1.753,3.534,9.163,0.067,0.024,-0.018,-0.903,-0.996,11.111,-0.510,0.384,-0.257,sad
5.30,2714,3742,3879,3083,4042,0,2960,0,125,0,148,76,0,0,0,5,1.721,3.627,9.218,0.070,0.026,-0.018,-0.912,-0.702,9.431,-0.645,0.181,0.058,sad
5.31,2748,3752,3917,3090,4034,0,2816,0,57,0,110,3,19,0,0,183,1.750,3.531,9.201,0.067,0.034,-0.018,1.082,-1.365,9.017,-0.828,0.099,0.190,sad
5.32,2783,3762,3888,3105,4015,0,2676,0,59,0,151,3,0,0,0,138,1.690,3.610,9.268,0.101,0.040,-0.011,1.583,-1.827,10.247,-0.915,-0.027,0.195,sad
5.33,2822,3776,3894,3117,3987,0,2436,0,68,0,214,3,0,0,0,133,1.796,3.558,9.237,0.088,0.042,-0.011,1.099,-2.567,10.587,-0.775,-0.180,0.123,sad
5.34,2849,3781,3894,3129,3951,0,2114,0,0,5,145,11,0,0,1,89,1.664,3.610,9.201,0.095,0.026,-0.022,1.958,-3.079,10.503,-0.743,-0.152,0.168,sad
5.35,2880,3792,3905,3137,3878,0,1886,0,95,3,140,13,35,0,0,61,1.693,3.539,9.239,0.104,0.007,-0.014,2.119,-3.761,10.841,-0.614,-0.187,0.158,sad
5.36,2903,3806,3915,3145,3708,0,1518,0,53,11,130,479,0,0,672,63,1.662,3.596,9.203,0.148,0.036,-0.020,1.487,-2.964,9.957,-0.438,-0.267,0.041,sad
5.37,2927,3807,3904,3141,3135,0,1013,0,54,11,117,984,0,0,1160,115,1.719,4.049,9.196,0.120,0.041,-0.075,1.616,-3.366,10.302,-0.320,-0.217,0.090,sad
5.38,2954,3811,3920,3135,3011,0,735,0,43,24,110,1187,0,0,1389,89,1.458,3.603,9.251,0.202,0.037,-0.071,1.420,-3.333,9.934,-0.238,-0.243,0.027,sad
5.39,2950,3819,3915,3118,2799,0,694,0,29,9,46,1670,53,0,1831,135,1.844,3.677,8.985,0.289,0.042,0.018,1.477,-3.196,10.044,-0.213,-0.280,0.071,sad
5.40,2961,3811,3904,3107,2672,0,650,0,22,11,58,1944,2,0,2093,139,1.693,3.778,9.165,0.311,0.046,0.024,2.308,-3.807,10.422,-0.017,-0.565,-0.127,sad
5.41,2969,3780,3914,3091,2511,0,561,0,22,10,69,2071,0,0,2213,137,1.633,3.934,9.175,0.316,0.096,0.040,2.004,-3.654,10.364,0.049,-0.725,-0.241,sad
5.42,2975,3728,3899,3054,2327,0,331,0,21,7,53,2236,0,0,2392,185,1.508,3.893,9.134,0.400,0.083,0.062,1.918,-3.515,10.776,0.133,-0.797,-0.288,sad
5.43,2960,3678,3904,2975,2155,0,0,0,21,12,58,2475,0,0,2615,175,1.597,4.013,9.069,0.408,0.056,0.072,3.002,-3.105,9.534,0.405,-0.642,-0.350,sad
5.44,2951,3608,3875,2882,2032,0,0,0,24,11,74,2431,0,0,2664,219,1.585,4.082,9.009,0.444,0.087,0.097,2.768,-1.944,8.238,0.349,-0.560,-0.330,sad
5.45,2960,3455,3857,2846,1687,0,0,0,27,11,84,2599,0,0,2775,203,1.889,4.190,9.067,0.518,0.165,0.141,2.253,-3.249,9.795,0.322,-0.537,-0.316,sad
5.46,2959,3223,3789,2810,1526,0,0,0,29,13,63,2651,0,0,2905,3928,1.614,4.353,8.990,0.469,0.147,0.119,2.849,-1.853,8.600,0.309,-0.424,-0.228,sad
5.47,2898,2961,3803,2736,1173,0,0,0,25,5,63,2731,0,0,2974,3945,1.604,4.331,9.072,0.441,0.104,0.126,3.096,-2.591,9.687,0.223,-0.422,-0.196,sad
5.48,2856,2702,3781,2659,1227,0,0,0,8,24,66,2749,0,0,2983,217,1.664,4.266,8.959,0.400,0.061,0.107,3.567,-1.937,8.490,0.288,-0.312,-0.231,sad
5.49,2834,2625,3759,2638,982,0,0,0,29,16,69,2733,26,0,3002,4011,1.623,4.427,8.945,0.468,0.072,0.108,2.567,-1.743,9.230,0.190,-0.293,-0.171,sad
5.50,2862,2537,3714,2517,786,0,0,0,9,5,74,2823,0,0,3063,227,1.690,4.611,8.957,0.583,0.042,0.089,3.361,-2.665,9.349,0.181,-0.275,-0.146,sad
5.51,2839,2447,3634,2327,407,0,0,0,31,13,79,2796,0,0,2997,4059,1.958,4.453,8.993,0.630,0.070,0.062,3.393,-2.047,9.196,0.185,-0.195,-0.159,sad
5.52,2795,2111,3485,2013,81,0,0,0,0,0,89,0,0,0,3208,4095,1.709,4.044,8.758,0.873,0.097,0.057,3.553,-2.409,9.529,0.213,-0.144,-0.091,sad
5.53,2743,1955,3386,1803,0,0,0,0,0,0,79,0,0,0,3248,4088,1.250,4.326,9.002,0.907,0.020,0.006,3.771,-2.969,9.900,0.268,-0.116,-0.134,sad
5.54,2658,1735,3237,1650,0,0,0,0,0,0,89,0,11,0,3276,4095,1.875,4.585,9.682,0.942,-0.017,-0.115,3.584,-2.375,9.598,0.354,-0.133,-0.147,sad
5.55,2482,1293,2784,1017,24,0,0,0,0,0,92,11,0,0,3292,4089,1.322,4.673,9.850,1.345,-0.347,-0.294,3.551,-2.277,9.972,0.356,-0.158,-0.192,sad
5.56,2114,911,1993,199,0,0,0,0,0,0,66,0,0,0,3300,4095,1.389,6.062,9.294,1.637,-0.914,-0.686,3.462,-1.690,9.153,0.439,-0.067,-0.172,sad
5.57,1777,621,1261,0,0,0,0,0,0,0,94,0,0,0,3317,4095,1.731,6.076,11.018,1.804,-0.750,-0.757,3.510,-2.210,9.498,0.455,-0.015,-0.142,sad
5.58,1395,277,507,0,0,0,0,0,0,0,94,0,0,0,3351,4095,1.930,6.026,9.067,1.746,-0.651,-0.832,3.553,-1.719,9.395,0.470,-0.012,-0.142,sad
5.59,813,0,0,0,0,0,0,0,2,8,440,0,0,60,3263,4095,3.129,6.924,10.235,1.535,-0.609,-0.700,3.522,-1.547,9.244,0.445,0.003,-0.103,sad
5.60,231,0,0,0,0,0,0,0,63,0,94,4,0,0,3310,4095,3.615,4.518,11.643,1.007,-0.241,-0.607,3.342,-1.925,9.898,0.378,-0.009,-0.141,sad
5.61,0,0,0,0,48,0,0,0,0,0,99,0,0,0,3311,4095,4.171,3.112,9.110,0.623,0.318,-0.441,3.206,-1.425,9.543,0.428,0.011,-0.123,sad
5.62,0,0,0,0,0,0,0,0,0,0,99,0,0,0,3209,4095,2.303,3.836,11.629,0.107,0.338,-0.095,3.242,-1.013,8.906,0.391,0.038,-0.080,sad
5.63,0,0,0,0,0,0,0,0,0,0,97,0,0,0,3308,4095,1.192,1.930,9.254,-0.051,0.176,-0.156,3.266,-0.642,8.480,0.318,0.088,-0.044,sad
5.64,0,0,0,0,0,0,0,0,0,0,94,0,0,0,3307,4095,0.874,1.549,8.803,-0.273,0.177,-0.290,3.735,-1.226,9.416,0.191,-0.075,-0.108,sad
5.65,0,0,0,0,0,0,0,0,0,0,40,0,0,0,3284,4095,0.807,1.923,9.603,-0.337,0.229,-0.412,2.713,-1.654,10.321,0.264,-0.099,-0.124,sad
5.66,0,0,0,0,0,0,0,0,0,0,99,45,0,0,3237,4095,0.907,2.045,9.297,-0.674,0.190,-0.491,3.452,-0.757,8.727,0.273,-0.096,-0.082,sad
5.67,0,0,0,0,0,0,0,0,0,0,110,0,0,0,3251,4095,1.168,1.798,8.710,-0.804,0.217,-0.555,3.584,-0.299,7.870,0.167,-0.003,-0.043,sad
5.68,0,0,0,0,0,0,0,0,33,0,102,0,0,0,3242,4095,1.223,1.772,8.832,-0.925,0.215,-0.562,2.974,1.274,5.954,-0.009,0.080,0.043,sad
5.69,0,0,0,0,0,0,0,0,0,0,0,0,0,0,3235,4095,1.556,1.666,8.691,-1.056,0.211,-0.556,3.203,-0.184,9.459,-0.407,-0.046,0.169,sad
5.70,0,0,0,0,0,0,0,0,0,0,99,0,3,0,3189,4095,1.733,1.753,8.576,-1.158,0.213,-0.529,3.364,-2.921,10.156,-0.221,0.006,0.077,sad
5.71,0,0,0,0,0,0,0,0,0,2,104,0,0,0,3183,4095,2.191,2.176,8.847,-1.218,0.184,-0.448,3.352,-0.345,8.473,-0.197,0.149,0.155,sad
5.72,0,0,0,0,0,0,0,0,0,7,99,0,0,31,3283,4095,2.519,2.569,9.005,-1.241,0.118,-0.315,3.105,-1.798,10.961,-0.282,0.132,0.250,sad
5.73,0,0,0,0,0,0,0,0,0,0,115,0,0,0,3316,4095,2.715,2.998,9.158,-1.253,-0.012,-0.107,3.575,-2.559,10.432,-0.074,0.096,0.166,sad
5.74,0,0,0,0,0,0,0,0,0,0,104,0,0,19,3368,4095,2.660,3.223,9.661,-1.262,-0.185,0.100,3.812,-1.405,9.680,-0.109,-0.028,0.103,sad
5.75,0,0,0,0,0,0,0,0,0,0,0,0,0,0,3375,4095,2.806,3.692,10.187,-1.310,-0.293,0.349,2.902,-1.525,9.462,-0.095,-0.041,0.094,sad
5.76,0,0,0,0,0,0,0,0,0,0,112,0,0,0,3413,4095,2.332,4.001,10.317,-1.405,-0.208,0.491,3.314,-1.403,9.697,-0.143,-0.131,0.079,sad
5.77,0,0,0,0,0,0,0,0,0,0,102,1,0,0,3435,4095,1.365,4.202,10.479,-1.495,-0.157,0.500,3.306,-1.949,9.744,-0.049,-0.073,0.084,sad
5.78,0,0,0,0,0,0,0,0,0,0,117,0,0,1,3465,4095,1.202,4.513,10.029,-1.553,-0.116,0.429,3.316,-0.843,8.492,-0.052,-0.007,0.130,sad
5.79,0,0,0,0,0,0,0,0,0,0,130,0,0,0,3495,4095,1.671,4.877,10.216,-1.561,-0.085,0.328,3.936,-1.314,9.266,-0.172,-0.062,0.140,sad
5.80,0,0,0,0,0,0,0,0,0,0,181,0,0,0,3511,4095,2.406,5.097,10.053,-1.564,-0.037,0.308,3.508,-2.835,10.702,-0.080,-0.109,0.087,sad
5.81,18,0,0,0,0,0,0,0,0,7,102,0,0,0,3533,4095,2.933,5.337,9.922,-1.515,0.026,0.328,3.704,-1.678,9.167,0.047,-0.038,0.083,sad
5.82,86,0,0,0,0,0,0,0,0,0,99,0,0,0,3542,4095,3.086,5.593,9.366,-1.449,0.092,0.411,3.962,-0.903,8.363,-0.036,0.066,0.127,sad
5.83,153,0,0,0,0,0,0,0,0,0,110,0,0,0,3525,4095,3.053,5.497,9.076,-1.309,0.106,0.458,3.666,-1.851,10.053,-0.101,-0.007,0.105,sad
5.84,191,0,0,0,0,0,0,0,0,0,102,0,0,0,3529,4095,3.036,6.093,9.785,-1.212,0.025,0.545,3.608,-1.662,9.378,-0.018,0.036,0.082,sad
5.85,196,0,0,0,0,0,0,0,0,0,104,0,0,0,3535,4095,3.318,6.031,9.725,-1.191,-0.008,0.656,3.620,-0.747,8.286,-0.116,0.103,0.119,sad
5.86,176,0,0,0,0,0,0,0,0,0,99,0,1,0,3560,4095,3.285,5.737,8.866,-1.123,0.039,0.728,3.598,-0.809,7.989,-0.212,0.197,0.169,sad
5.87,192,0,0,0,0,0,0,0,0,0,102,0,0,0,3572,4095,2.880,5.205,8.253,-0.974,0.048,0.771,3.735,-2.361,9.505,-0.227,0.210,0.161,sad
5.88,221,0,0,0,0,0,0,0,0,17,48,82,0,0,3575,4095,2.768,5.260,9.191,-0.852,-0.001,0.808,3.493,-1.659,9.543,-0.155,0.279,0.176,sad
5.89,214,0,0,0,0,0,0,0,0,0,104,0,37,0,3595,3988,3.072,5.155,9.167,-0.855,0.015,0.870,3.792,-0.429,7.839,-0.229,0.404,0.232,sad
5.90,248,0,0,0,0,0,0,0,0,0,99,0,0,0,3603,4095,2.775,4.592,8.691,-0.800,0.117,0.877,3.630,-1.573,9.878,-0.356,0.359,0.257,sad
5.91,247,0,0,0,0,0,0,0,0,4,104,0,3,0,3601,4095,2.452,4.393,8.993,-0.730,0.122,0.864,2.933,-2.998,9.790,-0.239,0.341,0.170,sad
5.92,240,0,0,0,0,0,0,0,18,0,89,0,0,0,3663,4095,2.315,4.369,9.361,-0.691,0.038,0.833,3.309,-1.686,8.997,-0.194,0.407,0.207,sad
5.93,246,0,0,0,0,0,0,0,0,0,99,41,0,0,3819,4095,2.387,3.814,8.811,-0.681,-0.016,0.794,3.349,-0.651,7.772,-0.266,0.534,0.255,sad
5.94,256,0,0,0,0,0,0,0,0,0,104,0,0,0,3683,4095,2.025,3.570,8.717,-0.622,-0.055,0.735,2.528,-1.791,9.723,-0.430,0.429,0.275,sad
5.95,240,0,0,0,0,0,0,0,16,0,130,0,0,0,3657,4095,1.911,3.876,9.946,-0.597,-0.193,0.717,2.670,-1.990,9.328,-0.411,0.442,0.283,sad
5.96,246,0,0,0,0,0,0,0,0,0,104,0,0,0,3723,4095,1.927,3.670,9.713,-0.702,-0.213,0.675,3.120,-1.015,7.228,-0.464,0.610,0.334,sad
5.97,251,0,0,0,0,0,0,0,0,0,110,52,0,0,3689,4095,1.501,3.089,8.866,-0.732,-0.158,0.593,6.922,0.065,8.531,-0.853,1.040,0.417,sad
5.98,256,0,0,0,0,0,0,0,7,0,110,0,0,0,3695,4095,1.063,2.902,8.701,-0.676,-0.145,0.457,0.819,-7.389,12.601,-0.394,0.630,0.243,sad
5.99,278,0,0,0,0,0,0,0,0,0,112,0,1,0,3719,4095,0.773,3.270,9.546,-0.640,-0.268,0.331,2.433,-1.561,10.187,-0.155,0.628,0.252,sad
6.00,287,0,0,0,0,0,0,0,0,0,284,0,6,0,3723,4095,1.106,3.247,9.431,-0.655,-0.364,0.247,3.433,-1.956,7.848,-0.259,0.802,0.343,sad
6.01,283,0,0,0,0,0,0,0,0,0,120,0,1,0,3731,4095,1.453,3.290,9.086,-0.633,-0.305,0.193,2.138,-2.626,9.572,-0.390,0.906,0.377,sad
6.02,279,0,0,0,0,0,0,0,0,0,122,0,6,0,3750,4095,1.487,3.093,8.806,-0.599,-0.213,0.178,1.324,-2.787,9.926,-0.265,1.057,0.413,sad
6.03,305,0,0,0,0,0,0,0,0,0,0,0,49,0,3755,4095,1.563,3.045,8.705,-0.524,-0.107,0.166,2.219,-3.486,11.708,-0.407,0.813,0.470,sad
6.04,303,0,0,0,0,0,0,0,0,0,138,0,25,0,3824,4095,1.535,3.220,9.136,-0.451,-0.096,0.152,2.085,-2.725,9.467,-0.279,0.729,0.354,sad
6.05,307,0,0,0,0,0,0,0,0,0,143,0,51,0,3795,4095,1.683,3.189,8.928,-0.403,-0.183,0.202,1.963,-2.741,9.306,-0.283,0.731,0.334,sad
6.06,306,0,0,0,0,0,0,0,0,45,145,0,91,0,3822,4095,2.136,3.072,8.449,-0.320,-0.222,0.273,0.761,-2.251,9.261,-0.275,1.040,0.420,sad
6.07,307,0,0,0,0,0,0,0,0,0,151,0,107,0,3810,4095,2.595,3.014,8.667,-0.223,-0.105,0.345,1.405,-2.444,9.644,-0.128,1.016,0.441,sad
6.08,306,0,0,0,0,0,0,0,0,121,161,0,137,0,3803,4095,2.291,2.978,8.813,-0.143,-0.012,0.410,-0.081,-4.010,12.311,-0.286,0.573,0.463,sad
6.09,349,0,0,0,0,0,0,0,0,157,171,0,239,0,3831,4095,2.138,2.732,8.442,-0.038,0.084,0.424,1.863,-2.772,9.474,-0.109,0.435,0.427,sad
6.10,336,0,0,0,0,0,0,0,0,409,181,61,357,0,3820,4095,1.678,2.698,8.878,0.050,0.106,0.409,1.341,-2.686,9.747,-0.271,0.291,0.398,sad
6.11,357,0,0,0,0,0,0,0,2,951,1297,551,379,3,3835,4095,1.595,2.643,9.462,0.081,0.048,0.392,1.425,-2.981,9.589,-0.437,0.171,0.338,sad
6.12,375,0,0,0,0,0,0,0,3,1019,1865,1019,431,0,3827,4095,1.465,2.887,9.759,0.065,-0.000,0.346,1.487,-3.448,9.977,-0.365,0.241,0.335,sad
6.13,361,0,0,0,0,0,0,0,2,1177,2305,1323,423,3,3835,4095,1.264,2.686,9.337,0.025,-0.037,0.271,1.152,-2.741,9.768,-0.369,0.190,0.330,sad
6.14,384,0,0,0,0,0,0,0,2,1197,2531,1799,653,2,3835,4095,1.003,2.018,8.420,0.070,-0.042,0.164,1.451,-3.400,9.498,-0.451,0.136,0.274,sad
6.15,385,0,0,0,0,0,0,0,1,1214,2771,2011,747,3,3835,4013,1.142,1.841,8.859,0.177,-0.086,0.096,1.089,-3.515,9.974,-0.377,0.084,0.241,sad
6.16,390,0,0,0,0,0,0,0,1,1291,2766,2282,1002,4,3835,3939,1.537,1.858,9.301,0.179,-0.072,0.079,1.176,-3.577,9.677,-0.282,0.072,0.179,sad
6.17,400,0,0,0,0,0,0,0,0,1291,2976,2476,973,1,3709,3837,1.633,1.686,8.887,0.195,0.021,0.071,1.195,-3.666,9.543,-0.191,0.082,0.148,sad
6.18,422,0,0,0,0,0,0,0,8,1439,3063,2541,1199,7,3847,3702,1.575,1.683,8.543,0.259,0.107,0.046,1.092,-3.469,9.613,-0.153,0.081,0.109,sad
6.19,416,0,0,0,0,0,0,0,13,1448,3173,2643,1303,6,3846,3543,1.520,1.638,9.220,0.347,0.138,0.026,1.070,-3.606,9.649,-0.100,0.079,0.095,sad
6.20,419,0,0,0,0,0,0,0,30,1551,3171,2709,1403,10,3851,3455,1.386,1.726,10.467,0.298,0.044,0.026,1.049,-3.407,9.493,-0.045,0.065,0.088,sad
6.21,425,0,0,0,0,0,0,0,47,1564,3224,2831,1563,21,3847,3561,1.595,0.907,9.627,0.177,-0.048,0.062,1.109,-3.395,9.471,-0.108,0.060,0.080,sad
6.22,448,0,0,0,0,0,0,0,85,1595,3224,2909,1597,25,3853,3643,1.168,1.044,9.203,0.229,0.046,0.004,1.073,-3.666,9.507,-0.086,0.062,0.049,sad
6.23,441,0,0,0,0,0,0,0,77,1597,3227,2950,1643,23,3852,3647,1.077,1.003,9.692,0.266,0.049,-0.067,1.044,-3.546,9.546,-0.029,0.050,0.032,sad
6.24,457,0,0,0,0,0,0,0,120,1635,3258,2967,1702,30,3859,3663,1.245,0.864,10.290,0.159,0.028,-0.213,0.984,-3.419,9.500,0.024,0.050,0.028,sad
6.25,472,0,0,0,0,0,0,0,123,1749,3181,3052,1880,31,3859,3700,1.264,1.030,9.993,0.064,-0.135,-0.348,1.080,-3.335,9.416,-0.015,0.025,0.035,sad
6.26,503,0,0,0,0,0,0,0,197,1763,3160,3079,1871,41,3865,3815,1.556,1.228,8.751,0.132,-0.213,-0.442,1.008,-3.428,9.527,-0.036,0.035,0.044,sad
6.27,522,0,0,0,0,0,0,0,262,1739,3334,3109,2077,44,3848,3644,2.002,1.410,8.945,0.291,-0.158,-0.497,0.982,-3.496,9.543,-0.034,0.039,0.031,sad
6.28,450,0,0,0,0,0,0,0,233,1811,3334,3299,2165,47,3846,3665,0.235,-0.342,11.100,0.237,0.827,-0.412,1.003,-3.438,9.467,-0.012,0.017,0.010,sad
6.29,386,0,0,0,0,0,0,0,292,1833,3345,3191,2239,47,3833,3667,1.669,1.302,9.797,0.551,0.659,-0.435,1.013,-3.402,9.507,-0.027,0.018,0.024,sad
6.30,368,0,0,0,0,0,0,0,287,1779,3391,3214,2283,94,3823,3667,1.233,1.149,9.941,0.355,0.553,-0.494,0.972,-3.534,9.565,-0.004,0.043,0.036,sad
6.31,333,0,0,0,0,0,0,282,343,1851,3383,3293,2343,51,3813,3671,2.947,0.970,8.789,0.717,0.259,-0.320,1.061,-3.407,9.333,0.015,0.034,0.016,sad
6.32,303,0,0,0,0,0,0,1290,424,1885,3386,3371,2383,51,3799,3635,2.107,2.741,10.973,0.767,0.064,-0.156,1.008,-3.400,9.428,-0.011,0.024,0.021,sad
6.33,289,0,0,0,0,0,26,1959,504,1913,3391,3357,2444,51,3747,3627,1.046,1.504,9.766,0.705,0.120,-0.215,0.967,-3.393,9.512,-0.057,0.027,0.017,sad
6.34,263,0,0,0,0,0,211,2343,563,1915,3427,3390,2511,44,3570,3595,2.107,2.330,10.297,0.802,0.008,-0.249,0.994,-3.428,9.553,-0.089,0.021,0.011,sad
6.35,269,0,0,0,0,0,450,2550,603,1900,3421,3404,2542,51,3402,3593,2.028,2.456,9.618,0.697,0.023,-0.179,0.970,-3.498,9.536,-0.135,0.022,0.007,sad
6.36,286,0,0,0,0,0,660,2711,647,1983,3457,3283,2629,51,3205,3327,2.078,2.164,9.203,0.744,0.157,-0.242,1.063,-3.496,9.306,-0.170,0.007,0.004,sad
6.37,287,0,0,0,0,0,830,2813,791,2025,3498,3437,2751,57,3232,3003,1.753,2.988,10.302,0.736,0.169,-0.270,0.984,-3.567,9.455,-0.185,0.010,0.016,sad
6.38,332,0,0,0,0,0,1094,2895,868,2131,3493,3444,2809,51,3193,2887,1.578,2.737,9.349,0.617,0.191,-0.250,0.991,-3.658,9.517,-0.195,0.013,0.006,sad
6.39,384,0,0,0,0,0,1332,3017,1106,2303,3508,3469,2888,37,3092,2505,1.848,2.289,8.600,0.666,0.329,-0.314,1.051,-3.692,9.333,-0.206,0.020,0.006,sad
6.40,549,0,0,0,51,0,1514,3067,1225,2349,3406,3483,2924,51,2811,1757,1.765,4.508,9.706,0.385,0.572,-0.212,0.943,-3.869,9.383,-0.252,0.025,0.002,sad
6.41,754,0,0,0,119,0,1623,3156,1223,2314,3534,3494,2923,48,2745,933,-0.843,4.008,13.408,0.538,0.341,-0.255,1.034,-3.819,9.268,-0.272,0.043,-0.010,sad
6.42,1103,0,0,0,464,0,1743,3235,1447,2364,3539,3539,2858,42,2475,212,1.350,3.438,9.946,0.343,0.205,-0.202,1.039,-3.871,9.313,-0.229,0.051,-0.004,sad
6.43,1280,1,0,0,543,0,1835,3270,1615,2411,3570,3571,2700,26,2011,47,1.006,3.627,10.056,0.386,0.002,-0.122,1.030,-3.991,9.325,-0.213,0.067,0.016,sad
6.44,1470,103,48,0,956,0,2013,3307,1709,2458,3557,3732,2550,0,1752,0,1.188,3.498,9.538,0.167,-0.087,-0.013,1.075,-3.950,9.306,-0.200,0.070,0.014,sad
6.45,1610,334,112,0,1239,0,2286,3358,1822,2570,3560,3626,1956,3,1400,3,1.329,3.378,9.304,0.096,-0.110,0.011,1.154,-3.697,9.172,-0.187,0.099,0.104,sad
6.46,1625,405,140,0,1289,0,2433,3435,1889,2429,3547,3630,1095,43,727,1,1.331,3.642,9.713,0.025,-0.126,0.042,0.922,-3.807,9.304,-0.231,0.091,0.049,sad
6.47,1658,400,0,0,1361,0,2559,3505,1947,2459,3552,3627,599,3,637,3,1.350,3.972,10.096,-0.140,-0.355,0.136,0.776,-4.149,9.100,-0.292,0.062,-0.071,sad
6.48,1597,99,0,0,1405,0,2782,3600,2151,2405,3542,3609,141,0,1,0,1.429,3.462,9.869,-0.301,-0.612,0.221,1.003,-4.058,9.285,-0.273,0.063,-0.087,sad
6.49,1535,64,0,0,1453,0,2925,3692,2219,2425,3529,3572,91,0,23,0,1.398,3.498,10.075,-0.157,-0.742,0.236,0.953,-4.207,9.160,-0.233,0.028,-0.099,sad
6.50,1456,0,0,0,1477,0,3053,3741,2208,2409,3590,3559,17,0,0,0,1.669,4.058,10.554,-0.215,-0.945,0.345,1.025,-4.168,9.242,-0.215,0.031,-0.108,sad
6.51,1302,0,0,0,1535,0,3173,3788,2171,2202,3470,3753,0,0,0,0,2.382,2.504,8.516,-0.246,-0.799,0.313,1.053,-4.372,9.139,-0.237,0.044,-0.085,sad
6.52,1103,0,0,0,1603,0,3249,3834,2159,2076,3432,3451,0,0,0,0,2.315,2.954,8.882,-0.257,-0.614,0.247,1.087,-4.231,9.151,-0.261,0.015,-0.095,sad
6.53,1012,0,0,0,1621,0,3323,3868,2159,1979,3427,3399,0,0,0,0,2.780,2.849,8.396,-0.229,-0.394,0.168,1.013,-4.243,9.086,-0.339,0.021,-0.135,sad
6.54,932,0,0,0,1614,0,3382,3907,2056,1815,3319,3284,0,0,23,0,2.392,2.926,9.706,-0.135,-0.313,0.143,1.168,-4.561,8.768,-0.421,0.046,-0.144,sad
6.55,866,0,0,0,1702,0,3437,3941,2039,1692,3375,3178,0,0,1,0,2.342,2.576,9.009,-0.215,-0.340,0.165,0.960,-4.659,8.911,-0.523,0.048,-0.150,sad
6.56,858,0,0,0,1712,0,3487,3964,2056,1561,3339,3107,0,0,0,0,3.091,2.495,8.993,-0.143,-0.326,0.166,0.893,-4.547,9.036,-0.619,0.021,-0.162,sad
6.57,636,0,0,0,1664,0,3529,3984,2015,1326,3299,2966,0,0,0,0,2.334,2.840,9.864,-0.168,-0.513,0.228,1.161,-4.772,9.388,-0.799,0.049,-0.101,sad
6.58,469,0,0,0,1717,0,3572,3993,1768,749,2991,2229,0,0,0,0,2.598,2.313,9.210,-0.170,-0.621,0.270,1.070,-4.501,9.436,-1.122,-0.088,-0.043,sad
6.59,346,0,0,0,1719,0,3632,4011,1447,231,2648,1703,0,0,0,13,2.749,2.801,9.708,-0.030,-0.866,0.226,1.192,-5.119,9.730,-1.268,-0.186,0.021,sad
6.60,247,0,0,0,1899,0,3681,4012,855,2,214,664,0,0,0,0,3.412,2.155,8.736,-0.156,-0.651,0.273,0.735,-5.478,8.839,-1.660,-0.310,0.114,sad
6.61,259,0,0,0,1919,0,3702,4019,693,0,202,349,0,0,0,0,3.529,1.750,8.456,-0.092,-0.510,0.205,0.357,-5.593,9.675,-1.752,-0.437,0.252,sad
6.62,239,0,0,0,2032,0,3725,4019,167,0,191,119,0,0,0,0,3.962,3.105,10.008,-0.108,-0.493,0.172,1.654,-6.517,10.877,-1.401,-0.659,0.539,sad
6.63,249,0,0,0,2096,0,3743,4029,0,0,197,0,0,37,0,0,3.809,2.267,8.950,-0.254,-0.434,0.203,0.012,-5.148,12.723,-0.559,-0.177,0.713,sad
6.64,242,0,0,0,2057,0,3742,4029,2,0,40,0,0,6,0,9,3.879,2.219,8.933,-0.221,-0.362,0.178,-0.666,-2.598,10.175,-0.231,-0.220,0.657,sad
6.65,237,0,0,0,1887,0,3744,4030,0,0,181,0,0,0,0,0,3.809,2.631,9.330,-0.263,-0.358,0.202,-0.704,-1.992,10.518,0.354,-0.120,1.085,sad
6.66,233,0,0,0,1851,0,3749,4031,6,0,174,0,0,0,0,0,3.723,2.389,9.407,-0.328,-0.391,0.222,-0.627,-2.478,10.496,0.531,-0.284,1.223,sad
6.67,257,0,0,0,1763,0,3756,4032,0,0,176,9,0,0,0,0,3.431,2.155,9.505,-0.320,-0.437,0.247,-0.737,-2.330,9.979,0.836,-0.119,1.548,sad
6.68,259,0,0,0,1799,0,3747,4032,0,0,158,6,0,0,0,0,3.721,1.652,9.088,-0.309,-0.397,0.218,1.056,-3.357,10.769,1.050,-0.033,1.390,sad
6.69,270,0,0,0,1837,0,3759,4032,0,0,158,0,0,0,0,0,4.211,1.676,8.528,-0.299,-0.342,0.191,1.853,-2.246,8.231,0.974,0.120,1.357,sad
6.70,264,0,0,0,1840,0,3762,4037,0,0,156,0,0,0,0,8,4.492,1.408,8.138,-0.231,-0.199,0.154,2.334,-2.373,8.468,0.970,0.172,1.119,sad
6.71,262,0,0,0,1761,0,3765,4033,0,0,120,0,0,0,0,0,4.535,1.300,7.954,-0.190,-0.031,0.089,1.726,-2.485,8.526,0.963,0.124,0.888,sad
6.72,226,0,0,0,1781,0,3752,4034,0,0,153,43,0,0,0,0,4.281,1.338,8.356,-0.143,0.079,0.044,1.516,-2.258,7.994,0.941,0.070,0.718,sad
6.73,98,0,0,0,1826,0,3760,4038,0,0,151,0,0,0,0,0,3.924,1.156,8.145,-0.090,0.180,-0.010,1.221,-2.581,8.636,0.858,0.077,0.638,sad
6.74,0,0,0,0,1863,0,3757,4042,0,0,174,0,0,0,0,0,4.274,0.905,6.924,0.010,0.354,-0.048,0.838,-3.110,10.108,0.850,-0.005,0.573,sad
6.75,0,0,0,0,1838,0,3749,4042,0,45,161,0,0,0,3,0,3.735,-1.231,4.329,0.176,0.833,-0.211,0.776,-3.519,10.379,0.925,-0.170,0.525,sad
6.76,0,0,0,0,1921,0,3758,4048,0,0,145,0,0,0,0,0,2.655,1.334,10.415,0.604,0.735,-0.448,1.298,-3.385,9.598,0.898,-0.287,0.486,sad
6.77,0,0,0,0,2087,0,3758,4043,0,0,145,0,0,1,0,0,5.722,4.606,11.210,0.411,0.784,-0.269,1.585,-3.852,9.342,0.929,-0.232,0.471,sad
6.78,0,0,0,0,2228,0,3759,4046,0,0,130,0,0,0,92,0,2.634,2.215,10.432,0.234,0.541,-0.126,1.676,-3.960,9.682,0.967,-0.230,0.425,sad
6.79,0,0,0,0,2354,0,3750,4043,0,0,145,0,0,0,12,0,2.468,1.817,9.732,0.277,0.381,-0.125,2.023,-3.958,10.149,1.020,-0.242,0.339,sad
6.80,0,0,0,0,2416,0,3761,4050,0,0,145,0,0,0,91,0,4.266,2.274,8.691,0.265,0.404,-0.102,1.860,-3.795,10.048,1.067,-0.230,0.253,sad
6.81,0,0,0,0,2497,0,3765,4045,0,0,140,0,0,0,0,0,2.461,1.355,9.440,0.305,0.425,-0.115,1.578,-3.620,9.450,1.038,-0.283,0.177,sad
6.82,0,0,0,0,2597,0,3779,4045,0,2,140,0,0,0,0,0,3.622,2.188,8.909,0.374,0.421,-0.135,1.458,-3.692,9.505,1.032,-0.331,0.125,sad
6.83,0,0,0,0,2663,0,3789,4047,0,0,406,0,0,0,0,0,3.891,2.095,8.274,0.302,0.632,-0.158,1.322,-3.910,10.171,1.054,-0.293,0.103,sad
6.84,0,0,0,0,2758,0,3791,4054,0,0,104,0,0,30,0,0,3.182,1.413,7.037,0.355,1.050,-0.222,0.862,-4.221,10.585,1.124,-0.285,0.095,sad
6.85,0,0,0,0,2789,0,3760,4030,0,14,122,0,0,0,0,0,4.611,3.002,11.459,0.431,1.054,-0.347,0.833,-4.353,10.403,1.181,-0.310,0.121,sad
6.86,0,0,0,0,2864,0,3771,4046,0,9,135,0,0,0,0,0,1.810,2.717,9.584,0.215,0.841,-0.156,1.085,-4.111,9.625,1.171,-0.286,0.136,sad
6.87,0,35,0,0,2951,0,3764,4029,0,0,133,0,0,38,0,0,2.959,0.474,7.025,0.466,0.874,-0.245,1.267,-3.764,8.981,1.100,-0.308,0.137,sad
6.88,0,209,0,0,2995,0,3760,4026,0,0,130,0,0,0,0,0,3.055,1.561,6.361,0.583,1.269,-0.405,1.896,-3.883,9.340,1.008,-0.297,0.072,sad
6.89,0,597,0,0,3066,0,3747,4015,0,0,122,0,0,0,0,0,3.189,3.340,8.923,0.480,1.895,-0.488,2.121,-4.295,10.041,0.960,-0.289,-0.087,sad
6.90,0,1008,97,0,3167,0,3719,4000,0,0,130,0,0,0,0,0,0.532,5.545,17.461,0.520,1.133,-0.425,1.719,-4.870,10.640,1.054,-0.250,-0.229,sad
6.91,0,1328,490,0,3202,0,3713,4002,9,1,89,0,3,0,151,0,2.380,2.181,8.904,0.270,0.524,-0.178,0.773,-4.630,9.979,1.069,-0.257,-0.285,sad
6.92,0,1469,886,0,3258,0,3707,3984,35,3,130,0,0,0,0,0,1.331,3.309,10.451,0.219,0.230,-0.100,0.280,-4.628,9.622,1.030,-0.346,-0.235,sad
6.93,0,1598,1215,0,3289,0,3719,3984,0,1,133,3,0,0,18,0,2.069,3.146,9.603,0.144,0.187,-0.069,0.747,-4.587,9.574,0.977,-0.365,-0.166,sad
6.94,0,1715,1521,0,3326,0,3722,3968,29,0,156,51,0,0,0,0,1.824,2.974,9.428,0.123,0.254,-0.053,1.329,-4.774,9.766,1.002,-0.247,-0.130,sad
6.95,25,1803,1727,0,3361,0,3728,3969,73,1,120,3,0,0,85,0,2.064,3.069,9.448,0.125,0.096,-0.035,1.647,-4.484,9.311,0.999,-0.039,-0.140,sad
6.96,85,1893,1866,0,3394,0,3728,3952,47,0,115,0,0,0,26,0,1.863,2.543,9.306,0.132,0.078,-0.062,1.113,-4.377,9.459,0.879,0.024,-0.211,sad
6.97,155,1962,1986,0,3415,0,3738,3951,43,0,120,1,0,0,0,17,2.009,2.454,9.048,0.132,0.086,-0.116,0.881,-4.357,9.486,0.758,-0.106,-0.308,sad
6.98,257,2102,2258,0,3452,0,3733,3920,41,16,117,5,0,0,0,0,1.978,3.067,9.419,0.202,0.190,-0.159,1.283,-4.793,10.384,0.675,-0.341,-0.426,sad
6.99,332,2201,2509,171,3470,103,3733,3921,43,1,120,5,0,0,0,0,1.566,3.168,9.938,0.181,0.203,-0.152,1.305,-4.666,9.831,0.765,-0.277,-0.475,sad
7.00,455,2298,2690,364,3536,70,3738,3908,43,0,40,11,0,0,0,0,1.776,2.464,9.304,0.227,0.114,-0.173,0.907,-3.697,8.313,0.493,-0.175,-0.484,sad
7.01,586,2468,2878,601,3565,259,3718,3886,117,0,127,3,0,0,0,0,1.738,3.179,9.598,0.220,0.115,-0.194,1.223,-4.391,10.599,0.488,-0.052,-0.514,sad
7.02,672,2559,3005,957,3622,304,3734,3856,44,0,120,5,0,0,0,2,1.690,3.206,9.488,0.166,0.138,-0.161,0.747,-3.634,9.874,0.581,-0.032,-0.540,sad
7.03,787,2685,3115,1233,3647,413,3734,3839,215,0,120,4,0,0,0,3,1.664,2.811,9.450,0.209,0.130,-0.158,-0.036,-3.179,8.938,0.389,-0.150,-0.461,sad
7.04,836,2741,3205,1452,3692,305,3722,3852,46,0,104,3,0,0,0,3,1.700,3.395,9.534,0.173,0.094,-0.102,0.283,-3.007,8.914,0.271,-0.178,-0.308,sad
7.05,945,2800,3281,1597,3701,315,3729,3789,44,1,130,21,0,0,5,0,1.583,3.151,9.448,0.100,0.029,-0.040,0.237,-2.899,9.120,0.177,-0.167,-0.222,sad
7.06,991,2845,3318,1679,3753,422,3732,3773,45,0,120,2,0,0,3,3,1.566,3.029,9.421,0.081,0.012,-0.023,0.733,-2.919,9.694,0.236,-0.117,-0.136,sad
7.07,995,2885,3358,1775,3792,336,3727,3748,6,0,120,3,0,0,0,3,1.618,3.108,9.376,0.103,0.011,-0.035,0.666,-2.873,9.531,0.196,-0.096,-0.047,sad
7.08,1071,2928,3402,1868,3818,318,3728,3722,2,0,253,1,0,0,0,0,1.678,3.177,9.392,0.076,0.054,-0.047,0.900,-2.931,9.409,0.201,-0.135,-0.038,sad
7.09,1102,2960,3427,1953,3824,192,3717,3703,47,0,120,3,0,0,7,3,1.568,3.232,9.438,0.056,0.066,-0.044,1.314,-2.483,8.413,0.024,-0.148,-0.046,sad
7.10,1217,2983,3473,2032,3840,259,3717,3695,51,0,120,3,0,0,0,4,1.657,3.100,9.383,0.073,0.043,-0.035,1.903,-2.619,9.301,-0.046,-0.005,-0.163,sad
7.11,1275,2997,3473,2111,3853,240,3706,3683,47,0,122,10,0,0,0,141,1.621,3.100,9.407,0.098,0.051,-0.044,1.451,-2.519,9.637,-0.031,0.026,-0.235,sad
7.12,1296,3019,3497,2193,3856,290,3696,3661,46,0,120,3,0,0,0,3,1.638,3.191,9.328,0.078,0.047,-0.050,1.372,-1.776,8.981,-0.095,-0.030,-0.284,sad
7.13,1379,3043,3519,2275,3873,401,3685,3648,51,0,120,7,0,0,0,147,1.592,3.179,9.438,0.091,0.023,-0.033,1.638,-1.705,9.278,-0.198,0.027,-0.301,sad
7.14,1408,3051,3546,2346,3888,316,3686,3625,47,0,99,4,12,0,0,82,1.633,3.158,9.309,0.086,0.034,-0.032,1.496,-1.930,9.752,-0.220,-0.017,-0.313,sad
7.15,1513,3090,3567,2388,3889,496,3678,3607,44,0,120,25,0,0,0,0,1.559,3.266,9.395,0.082,0.032,-0.034,1.085,-1.458,9.649,-0.135,-0.068,-0.290,sad
7.16,1572,3120,3570,2444,3891,511,3665,3583,47,0,120,3,0,0,2,5,1.539,3.168,9.349,0.071,0.021,-0.027,0.634,-1.135,9.862,-0.147,-0.056,-0.138,sad
7.17,1598,3136,3600,2489,3920,485,3659,3568,117,3,120,3,0,0,0,3,1.647,3.247,9.378,0.075,0.031,-0.031,0.656,-1.113,10.022,-0.116,-0.087,-0.056,sad
7.18,1659,3155,3623,2543,3917,473,3648,3555,43,31,120,35,0,0,0,141,1.475,3.230,9.352,0.067,0.035,-0.031,0.900,-1.353,9.917,-0.039,-0.152,0.112,sad
7.19,1742,3181,3632,2586,3953,618,3633,3531,46,0,151,3,6,0,0,0,1.535,3.170,9.390,0.071,0.011,-0.023,1.566,-1.690,8.952,-0.132,0.465,0.180,sad
7.20,1840,3196,3654,2610,3937,614,3623,3495,47,0,158,3,0,0,0,5,1.561,3.239,9.378,0.082,0.017,-0.022,0.994,-1.243,10.077,-0.353,0.295,-0.142,sad
7.21,1894,3216,3672,2658,3943,503,3602,3458,47,0,120,2,0,0,61,4,1.599,3.321,9.290,0.079,0.023,-0.027,1.135,-1.269,10.106,-0.372,0.268,-0.130,sad
7.22,1931,3227,3684,2690,3957,560,3573,3433,41,0,127,3,0,0,0,0,1.587,3.316,9.340,0.057,0.036,-0.029,0.998,-1.329,9.697,-0.320,0.306,-0.043,sad
7.23,1986,3249,3686,2719,3952,501,3566,3411,43,0,115,2,0,0,0,156,1.566,3.239,9.383,0.051,0.035,-0.016,0.383,-0.445,9.804,-0.379,0.304,0.073,sad
7.24,2000,3255,3697,2736,3947,237,3528,3376,41,0,110,1,0,0,0,19,1.525,3.304,9.471,0.058,0.036,-0.012,1.475,-1.925,10.072,-0.518,0.112,0.033,sad
7.25,2019,3251,3693,2735,3923,0,3478,3354,42,0,110,53,0,0,0,135,1.776,3.311,9.222,0.042,0.043,-0.016,0.622,-1.506,9.740,-0.570,0.037,0.096,sad
7.26,2046,3249,3693,2733,3899,0,3447,3340,40,3,104,10,0,0,1,146,1.504,3.342,9.433,0.050,0.040,-0.002,0.563,-1.662,10.036,-0.697,-0.051,0.135,sad
7.27,2025,3236,3691,2720,3858,0,3394,3321,39,3,97,10,0,0,0,143,1.590,3.199,9.311,0.051,0.030,-0.002,1.415,-2.389,9.972,-0.672,-0.277,0.081,sad
7.28,2018,3233,3696,2722,3835,0,3354,3263,40,17,0,12,0,0,0,53,1.516,3.302,9.414,0.079,0.039,-0.028,2.066,-2.528,9.946,-0.662,-0.167,0.172,sad
7.29,2070,3286,3722,2757,3850,0,3248,3135,33,0,79,9,0,45,0,57,1.535,3.292,9.359,0.100,0.034,-0.036,2.205,-2.938,9.893,-0.622,-0.096,0.161,sad
7.30,2128,3259,3706,2777,3776,0,3147,2891,30,9,74,651,0,0,812,73,1.551,3.297,9.385,0.103,0.025,-0.023,2.081,-3.251,10.211,-0.560,-0.065,0.167,sad
7.31,2150,3277,3703,2800,3745,0,2992,2531,29,11,74,885,0,0,1053,98,1.547,3.285,9.345,0.108,0.025,-0.022,1.786,-2.828,9.459,-0.434,-0.023,0.163,sad
7.32,2196,3283,3717,2831,3695,0,2832,1994,27,11,66,1103,0,0,1255,110,1.595,3.266,9.380,0.119,0.027,-0.028,1.779,-2.471,9.081,-0.448,0.046,0.201,sad
7.33,2254,3295,3728,2868,3661,0,2608,1265,24,9,63,1383,0,0,1531,107,1.528,3.357,9.340,0.127,0.025,-0.017,1.075,-3.057,9.725,-0.515,0.013,0.228,sad
7.34,2283,3311,3724,2889,3601,0,2384,592,0,47,56,1789,0,0,1943,181,1.542,3.409,9.292,0.136,0.026,-0.011,2.200,-3.000,9.021,-0.369,0.169,0.151,sad
7.35,2352,3314,3739,2910,3522,0,2167,0,84,24,43,1951,0,0,2119,171,1.537,3.366,9.266,0.159,0.013,-0.001,1.101,-2.428,9.433,-0.412,0.383,0.370,sad
7.36,2416,3331,3743,2962,3411,0,1890,0,29,0,79,2104,1,33,2263,205,1.544,3.366,9.378,0.178,0.009,0.005,1.446,-3.536,10.089,-0.279,0.384,0.282,sad
7.37,2466,3344,3745,2960,3242,0,1576,0,41,14,94,2123,0,0,2260,191,1.549,3.395,9.330,0.213,-0.005,0.023,1.559,-3.285,9.263,-0.208,0.283,0.208,sad
7.38,2545,3352,3758,2969,2898,0,955,0,41,13,97,2323,0,51,2461,189,1.551,3.414,9.309,0.262,-0.011,0.027,-0.215,-3.996,10.805,-0.186,0.171,0.164,sad
7.39,2593,3364,3754,2963,2599,0,543,0,45,17,117,2421,0,0,2636,3827,1.671,4.099,10.731,-0.030,-0.043,-0.198,1.214,-3.929,10.063,0.011,0.118,0.092,sad
7.40,2640,3373,3740,2931,2367,0,471,0,51,17,130,2666,0,0,2872,211,1.674,3.704,9.187,0.405,-0.022,0.060,1.130,-3.345,9.529,0.002,0.034,0.033,sad
7.41,2701,3356,3761,2909,2250,0,368,0,53,19,145,2681,20,1,2885,3879,1.520,3.771,9.321,0.445,-0.017,0.058,1.156,-3.414,9.562,0.001,0.036,0.035,sad
7.42,2735,3354,3762,2833,2145,0,95,0,53,17,138,2787,0,0,3060,253,1.700,3.759,9.155,0.505,-0.031,0.111,1.374,-3.496,9.278,0.066,-0.011,0.011,sad
7.43,2771,3301,3748,2752,1945,0,0,0,56,20,145,2823,0,0,3183,3945,1.851,3.764,9.215,0.538,-0.019,0.130,1.085,-3.357,9.500,0.065,-0.039,0.011,sad
7.44,2786,3248,3743,2640,1637,0,0,0,57,29,140,2757,75,0,3053,4079,1.693,3.934,9.067,0.569,0.005,0.141,1.125,-3.414,9.510,0.038,-0.022,0.018,sad
7.45,2815,3147,3703,2480,1589,0,0,0,59,35,151,2953,3,0,3213,237,1.772,3.680,9.091,0.676,0.046,0.154,1.216,-3.493,9.531,0.071,-0.019,0.030,sad
7.46,2813,2994,3650,2343,1241,0,0,0,61,31,156,2937,3,0,3289,4069,1.846,4.092,9.014,0.734,0.055,0.187,1.195,-3.235,9.337,0.051,0.020,0.030,sad
7.47,2773,2755,3583,2181,883,0,0,0,61,39,179,3031,54,0,3311,4012,1.932,4.259,9.067,0.836,0.123,0.185,1.070,-3.151,9.364,0.037,0.055,0.067,sad
7.48,2698,2495,3479,2068,304,0,0,0,72,45,176,2997,7,0,3351,4040,1.997,4.434,8.782,0.965,0.205,0.187,1.300,-3.390,9.493,0.043,0.113,0.092,sad
7.49,2663,2159,3251,2003,43,0,0,0,67,47,174,3155,0,0,3423,4095,1.712,4.559,8.875,1.085,0.210,0.192,1.173,-3.165,9.404,0.041,0.115,0.099,sad
7.50,2559,1535,2958,1920,0,0,0,0,69,51,176,3181,8,0,3471,267,2.033,4.788,9.251,1.098,0.207,0.056,1.140,-3.373,9.486,0.021,0.098,0.103,sad
7.51,2513,720,2653,1582,0,0,0,0,69,119,184,3135,6,0,3503,4095,1.396,5.207,9.182,1.241,0.146,0.064,1.111,-3.498,9.685,0.068,0.080,0.064,sad
7.52,2377,566,2245,1162,0,0,0,0,121,57,186,3272,8,0,3571,4093,1.444,5.164,10.089,1.508,0.083,-0.068,1.063,-3.251,9.538,0.063,0.030,0.029,sad
7.53,2202,232,1507,330,0,0,0,0,73,62,186,3219,7,0,3579,4095,1.772,5.737,9.625,1.731,-0.202,-0.572,1.125,-3.251,9.445,0.026,0.019,0.029,sad
7.54,1973,0,373,0,0,0,0,0,88,71,186,3287,11,0,3623,4095,1.599,5.794,8.241,1.570,-0.284,-0.734,1.130,-3.223,9.558,0.016,0.052,0.041,sad
7.55,1741,0,0,0,0,0,0,0,73,71,186,3275,11,0,3639,4095,2.114,6.146,7.788,1.405,-0.097,-0.845,1.041,-3.512,9.692,0.072,0.050,0.041,sad
7.56,1345,0,0,0,0,0,0,0,55,110,191,72,93,22,3701,4095,2.303,5.883,10.855,0.936,0.224,-0.986,1.037,-3.215,9.625,0.084,0.055,0.051,sad
7.57,610,0,0,0,0,0,0,0,1,95,217,136,137,0,3719,4095,1.343,5.593,10.262,0.557,0.325,-0.934,1.051,-3.048,9.371,0.065,0.061,0.070,sad
7.58,80,0,0,0,0,0,0,0,1,136,176,159,82,1,3731,4095,-0.874,3.955,8.523,0.180,0.423,-1.254,1.075,-3.196,9.519,0.040,0.075,0.076,sad
7.59,33,0,0,0,0,0,0,0,0,111,202,501,83,0,3737,4095,-0.318,6.187,10.870,-0.238,0.120,-1.344,1.032,-3.304,9.668,0.044,0.076,0.077,sad
7.60,62,0,0,0,0,0,0,0,0,111,191,586,101,1,3749,4095,1.894,4.283,9.969,-0.427,0.202,-1.491,1.010,-3.235,9.591,0.036,0.082,0.077,sad
7.61,50,0,0,0,0,0,0,0,0,127,189,637,93,3,3753,4095,2.444,4.128,7.999,-0.605,0.353,-1.441,1.018,-3.263,9.503,0.030,0.082,0.073,sad
7.62,32,0,0,0,0,0,0,0,6,103,191,763,91,1,3815,4095,3.029,4.140,7.628,-0.501,0.357,-1.277,1.022,-2.938,9.361,-0.008,0.069,0.079,sad
7.63,62,0,0,0,0,0,0,0,6,53,0,940,88,0,3767,4094,3.567,4.106,7.781,-0.547,0.269,-0.963,1.051,-3.108,9.440,-0.041,0.045,0.104,sad
7.64,86,0,0,0,0,0,0,0,2,91,191,1163,84,1,3771,4095,3.601,3.687,7.163,-0.490,0.229,-0.590,1.070,-3.232,9.548,-0.053,0.090,0.106,sad
7.65,86,0,0,0,0,0,0,0,0,85,197,1224,61,0,3767,4095,2.990,3.519,7.324,-0.433,0.164,-0.243,1.037,-3.290,9.639,-0.039,0.094,0.103,sad
7.66,106,0,0,0,0,0,0,0,0,105,197,1324,99,11,3771,4095,2.014,3.378,7.887,-0.390,0.051,0.011,0.831,-3.385,9.697,-0.016,0.062,0.082,sad
7.67,26,0,0,0,0,0,0,0,7,171,197,1469,91,2,3783,4095,1.199,3.503,8.641,-0.428,-0.058,0.136,0.910,-3.306,9.560,0.002,0.044,0.059,sad
7.68,13,0,0,0,0,0,0,0,6,79,186,1609,118,1,3783,4095,0.438,3.340,8.485,-0.529,-0.113,0.153,0.962,-3.342,9.622,-0.019,0.046,0.051,sad
7.69,11,0,0,0,0,0,0,0,0,51,373,1741,139,4,3793,4095,0.089,3.232,8.461,-0.581,-0.180,0.109,0.929,-3.318,9.608,-0.026,0.011,0.038,sad
7.70,9,0,0,0,0,0,0,0,10,69,376,1775,142,0,3799,4095,0.359,3.440,8.808,-0.646,-0.234,0.076,1.018,-3.330,9.495,-0.017,0.022,0.046,sad
7.71,1,0,0,0,0,0,0,0,9,81,755,1828,155,3,3755,4095,0.675,3.658,9.120,-0.757,-0.217,0.078,0.860,-3.464,9.689,0.018,0.071,0.059,sad
7.72,0,0,0,0,0,0,0,0,18,90,836,1903,159,57,3801,4095,0.685,3.924,9.878,-0.889,-0.215,0.085,0.903,-3.373,9.665,0.032,0.066,0.054,sad
7.73,5,0,0,0,0,0,0,0,11,76,888,2005,167,4,3828,4095,0.682,3.946,9.629,-1.056,-0.220,0.092,0.910,-3.254,9.529,0.015,0.028,0.020,sad
7.74,25,0,0,0,0,0,0,0,13,57,929,2025,211,4,3815,4095,0.814,3.816,9.165,-1.127,-0.228,0.103,0.888,-3.163,9.531,-0.021,-0.001,0.021,sad
7.75,52,0,0,0,0,0,0,0,12,121,1179,2091,223,0,3818,4095,1.058,4.027,9.143,-1.166,-0.249,0.149,0.922,-3.199,9.503,-0.052,0.010,0.033,sad
7.76,76,0,0,0,0,0,0,0,13,296,1016,2121,275,5,3828,4095,1.386,4.341,9.428,-1.201,-0.256,0.224,0.919,-3.397,9.570,-0.067,0.020,0.045,sad
7.77,51,0,0,0,0,0,0,0,22,349,788,2173,313,7,3832,4095,1.599,4.417,9.388,-1.224,-0.251,0.308,0.912,-3.412,9.584,-0.040,0.029,0.030,sad
7.78,81,0,0,0,0,0,0,0,16,600,949,2211,293,0,3839,4095,1.796,4.614,9.522,-1.225,-0.263,0.392,0.955,-3.270,9.560,-0.017,0.008,0.029,sad
7.79,80,0,0,0,0,0,0,0,31,693,1215,2223,349,6,3847,4095,2.066,4.755,9.577,-1.238,-0.253,0.480,0.962,-3.385,9.675,-0.021,0.011,0.027,sad
7.80,67,0,0,0,0,0,0,0,58,719,1727,2297,377,0,3849,4095,2.136,4.772,9.424,-1.248,-0.254,0.587,0.905,-3.448,9.481,0.002,0.023,0.024,sad
7.81,98,0,0,0,0,0,0,0,30,803,1717,2287,367,11,3854,4095,2.222,4.705,9.244,-1.205,-0.266,0.704,0.946,-3.364,9.562,-0.002,0.028,0.022,sad
7.82,113,0,0,0,0,0,0,0,37,891,1783,2323,409,10,3857,4095,2.188,4.693,9.179,-1.141,-0.268,0.803,0.977,-3.390,9.507,0.012,0.030,0.022,sad
7.83,129,0,0,0,0,0,0,0,61,874,1824,2317,383,19,3863,4095,2.100,4.621,9.347,-1.072,-0.256,0.858,0.924,-3.294,9.493,0.025,0.029,0.024,sad
7.84,146,0,0,0,0,0,0,0,57,856,1876,2335,312,18,3859,3929,1.961,4.683,9.658,-1.023,-0.249,0.883,0.939,-3.280,9.550,0.022,0.024,0.021,sad
7.85,170,0,0,0,0,0,0,0,70,931,1896,2341,421,20,3879,4095,1.767,4.769,10.104,-1.034,-0.267,0.867,1.010,-3.335,9.400,0.035,0.011,0.028,sad
7.86,160,0,0,0,0,0,0,0,87,926,1901,2365,415,25,3989,4095,1.614,4.638,9.766,-1.068,-0.272,0.846,0.955,-3.275,9.582,-0.018,0.013,0.029,sad
7.87,170,0,0,0,0,0,0,0,98,907,2116,2419,425,27,3868,4095,1.343,4.353,9.215,-1.038,-0.246,0.776,0.919,-3.326,9.577,-0.038,0.018,0.037,sad
7.88,213,0,0,0,0,0,0,0,109,941,2027,2453,421,26,3871,4073,1.063,4.128,8.717,-0.954,-0.196,0.660,0.893,-3.397,9.541,-0.031,0.024,0.038,sad
7.89,262,0,0,0,0,0,0,0,119,1039,2218,2532,440,24,3876,4095,0.584,3.903,8.902,-0.780,-0.128,0.431,0.895,-3.333,9.558,-0.019,0.025,0.026,sad
7.90,282,0,0,0,0,0,0,0,121,951,2226,2543,493,28,3888,4095,0.565,3.931,8.906,-0.655,-0.036,0.225,0.891,-3.326,9.527,-0.015,0.020,0.028,sad
7.91,262,0,0,0,0,0,0,0,125,998,2439,2647,565,33,3881,4095,0.639,4.532,11.013,-0.671,-0.106,0.012,0.900,-3.318,9.582,-0.055,0.026,0.042,sad
7.92,254,0,0,0,0,0,0,0,163,959,2720,2747,583,59,3881,4095,0.989,3.958,9.139,-0.767,-0.229,-0.001,0.941,-3.385,9.498,-0.036,0.032,0.038,sad
7.93,275,0,0,0,0,0,0,0,179,975,2577,2771,575,39,3887,4095,0.986,3.436,7.769,-0.461,-0.047,-0.025,0.929,-3.395,9.483,-0.039,0.027,0.038,sad
7.94,275,0,0,0,0,0,0,0,200,1022,2648,2829,474,43,3887,4087,1.539,4.037,9.175,-0.162,-0.114,0.025,0.871,-3.383,9.404,-0.081,0.029,0.048,sad
7.95,235,0,0,0,0,0,0,0,190,1077,2710,2867,671,41,3883,4068,2.088,5.037,10.807,-0.390,0.222,0.117,0.970,-3.443,9.445,-0.083,0.037,0.047,sad
7.96,245,0,0,0,0,0,0,0,229,1017,2730,2906,745,43,3885,4052,1.037,4.662,9.455,-0.553,0.537,0.199,0.919,-3.467,9.450,-0.095,0.029,0.049,sad
7.97,257,0,0,0,0,0,0,0,245,1208,3017,2979,885,44,3883,4073,0.357,4.029,8.241,-0.423,0.492,0.140,0.900,-3.476,9.469,-0.112,0.021,0.050,sad
7.98,256,0,0,0,0,0,0,0,339,1301,3140,3049,1019,10,3876,4095,0.869,3.943,8.717,-0.229,0.295,0.106,0.898,-3.572,9.574,-0.100,0.041,0.041,sad
7.99,211,0,0,0,0,0,0,0,425,1383,3063,3101,1017,51,3852,3979,0.910,5.813,10.616,-0.250,-0.079,0.214,0.802,-3.687,9.419,-0.065,0.034,0.051,sad
8.00,230,0,0,0,0,0,0,0,519,1299,3101,3293,1146,53,3862,3922,1.259,5.047,8.583,-0.388,-0.276,0.371,0.907,-3.474,9.373,-0.052,0.031,0.042,sad
8.01,250,0,0,0,0,0,0,0,553,1244,3068,3239,1276,55,3847,3869,0.338,4.171,8.049,-0.316,-0.143,0.323,0.833,-3.589,9.474,-0.084,0.051,0.044,sad
8.02,265,0,0,0,0,0,0,0,645,1273,3145,3256,1312,50,3831,3835,-1.609,2.085,7.451,0.216,-0.391,0.331,0.802,-3.567,9.392,-0.076,0.051,0.037,sad
8.03,170,0,0,0,0,0,0,0,841,1288,3160,3301,1447,51,3801,3703,-2.150,6.115,5.236,0.616,0.558,-0.216,0.804,-3.598,9.471,-0.084,0.048,0.041,sad
8.04,169,0,0,0,0,0,0,0,915,1325,3181,3349,1516,45,3757,3590,-0.139,0.783,14.236,0.185,0.368,-0.149,0.934,-3.630,9.469,-0.094,0.054,0.038,sad
8.05,190,0,0,0,0,0,0,1175,889,1349,3204,3293,1443,47,3709,3481,0.716,0.548,7.350,0.815,-0.072,-0.285,0.809,-3.718,9.416,-0.088,0.046,0.044,sad
8.06,238,0,0,0,0,0,0,2012,1013,1287,3217,3403,1575,51,3637,3320,1.250,2.873,10.716,0.886,-0.129,-0.226,0.766,-3.627,9.378,-0.110,0.063,0.023,sad
8.07,214,0,0,0,0,0,346,2494,1251,1355,3265,3453,1518,51,3415,3243,2.921,2.921,9.744,0.796,-0.163,-0.158,0.855,-3.649,9.364,-0.151,0.060,0.021,sad
8.08,213,0,0,0,0,0,718,2727,1363,1365,3293,3483,1436,51,3245,3176,1.999,2.670,9.620,0.784,-0.114,-0.100,0.845,-3.685,9.390,-0.189,0.063,-0.001,sad
8.09,238,0,0,0,0,0,1063,2861,1427,1508,3319,3517,1254,47,3104,3117,1.556,2.344,9.366,0.763,-0.025,-0.144,0.824,-3.780,9.371,-0.246,0.083,-0.009,sad
8.10,249,0,0,0,0,0,1316,2935,1520,1481,3631,3652,1148,99,2799,2837,1.604,2.389,8.705,0.818,0.018,-0.186,0.828,-3.867,9.354,-0.258,0.087,-0.013,sad
8.11,281,0,0,0,134,0,1667,3038,1620,1566,3380,3605,975,47,2648,2719,1.767,4.865,9.627,0.529,0.356,-0.111,0.781,-3.938,9.213,-0.228,0.074,-0.011,sad
8.12,476,0,0,0,539,0,1840,3156,1883,1619,3388,3731,747,47,2355,2377,-0.385,6.364,15.579,0.933,0.007,-0.251,0.658,-3.673,9.304,-0.217,0.147,0.043,sad
8.13,775,18,0,0,830,0,2002,3250,1956,1637,3434,3710,569,46,2032,1880,1.815,4.305,10.285,0.461,0.072,-0.229,0.776,-4.032,9.196,-0.233,0.084,-0.007,sad
8.14,1022,282,0,0,1050,0,2189,3344,2072,1635,3421,3743,421,45,1853,1560,1.257,3.790,9.900,0.240,0.034,-0.193,0.706,-4.029,9.385,-0.210,0.066,-0.012,sad
8.15,1193,486,144,0,1239,0,2369,3424,2153,1753,3427,3754,197,40,1387,581,1.144,3.170,9.433,0.159,-0.017,-0.066,0.807,-4.085,9.273,-0.225,0.075,-0.002,sad
8.16,1299,590,212,0,1354,0,2474,3487,2118,1707,3434,3757,82,27,695,148,1.391,2.964,9.222,0.103,-0.012,-0.042,0.721,-4.173,9.227,-0.265,0.085,-0.028,sad
8.17,1317,653,327,0,1341,0,2559,3531,2223,1735,3429,3743,99,24,297,139,1.369,3.280,9.340,0.109,0.011,-0.052,0.788,-4.049,9.251,-0.264,0.079,-0.055,sad
8.18,1385,684,477,0,1485,0,2687,3567,2363,1768,3508,3751,29,0,0,0,1.358,3.388,9.491,0.074,0.016,-0.063,0.673,-4.180,9.306,-0.293,0.063,-0.041,sad
8.19,1447,698,592,0,1437,0,2765,3619,2403,1723,3396,3710,47,0,0,0,1.288,3.311,9.388,0.098,0.015,-0.062,0.941,-4.415,9.167,-0.275,0.090,-0.133,sad
8.20,1501,752,703,0,1611,0,2862,3662,2411,1677,3391,3689,8,0,0,0,1.298,3.524,9.661,0.012,-0.009,-0.075,0.895,-4.386,9.076,-0.287,0.039,-0.087,sad
8.21,1482,800,812,76,1605,0,2912,3695,2443,1661,3252,3653,5,4,0,0,1.307,3.330,9.486,0.071,0.021,-0.016,0.697,-4.515,9.019,-0.281,0.021,-0.138,sad
8.22,1573,858,853,129,1755,0,2943,3719,2508,1605,3324,3620,0,0,0,0,1.305,3.414,9.474,0.054,0.007,-0.010,0.735,-4.422,9.256,-0.218,-0.015,-0.128,sad
8.23,1620,847,889,135,1755,0,3020,3743,2508,1543,3304,3603,0,0,0,0,1.350,3.326,9.369,0.011,0.007,-0.006,0.857,-4.573,9.007,-0.209,-0.002,-0.110,sad
8.24,1647,816,801,107,1803,0,3086,3774,2492,1421,3268,3539,0,0,0,0,1.075,3.328,9.527,-0.019,-0.057,0.041,0.936,-4.530,8.926,-0.224,-0.011,-0.121,sad
8.25,1671,761,697,0,1894,0,3152,3803,2503,1215,3186,3477,0,0,0,0,1.283,3.057,9.318,0.013,-0.071,0.043,0.881,-4.690,9.060,-0.252,0.006,-0.132,sad
8.26,1647,726,671,0,1903,0,3216,3823,2509,1053,3168,3437,0,0,0,0,1.425,3.294,9.301,-0.006,-0.018,0.024,0.833,-4.544,8.880,-0.266,0.016,-0.111,sad
8.27,1603,697,608,0,1985,0,3273,3853,2491,903,3176,3405,0,0,0,0,1.336,3.177,9.481,-0.007,-0.010,0.009,1.049,-4.752,9.000,-0.382,0.057,-0.152,sad
8.28,1584,700,584,0,1991,0,3308,3845,2552,347,3204,3221,0,0,0,0,1.346,3.139,9.354,0.018,-0.028,0.002,0.986,-4.872,8.882,-0.445,0.081,-0.160,sad
8.29,1611,711,575,0,2033,16,3344,3889,2506,220,2899,3175,30,0,0,0,1.472,3.223,9.311,0.037,0.047,-0.015,0.982,-4.920,8.918,-0.479,0.120,-0.150,sad
8.30,1581,709,662,0,2017,140,3374,3897,2475,123,2556,3001,0,0,0,0,1.413,3.242,9.428,0.063,0.077,-0.037,0.886,-4.987,8.825,-0.501,0.132,-0.113,sad
8.31,1637,717,774,0,2040,306,3381,3913,2421,23,253,2891,0,0,0,0,1.422,3.165,9.273,0.077,0.083,-0.040,0.761,-4.820,8.902,-0.605,0.040,-0.026,sad
8.32,1655,726,897,37,2135,320,3402,3921,2295,25,238,2774,134,0,0,0,1.420,3.206,9.321,0.071,0.110,-0.049,0.752,-4.994,8.851,-0.663,0.000,0.017,sad
8.33,1671,757,1005,237,2161,485,3413,3925,1940,0,225,2190,0,0,0,0,1.341,3.294,9.452,0.022,0.094,-0.037,0.692,-5.717,9.591,-0.760,-0.105,0.081,sad
8.34,1669,856,1136,253,2195,560,3418,3945,1215,0,212,1159,0,0,0,44,0.678,9.816,13.554,-2.283,0.059,-0.130,0.919,-5.289,9.534,-1.115,-0.219,0.340,sad
8.35,1666,975,1387,389,2245,730,3456,3952,1005,0,207,843,0,0,0,0,1.219,2.993,9.239,0.009,0.014,0.009,0.594,-5.437,10.408,-1.143,-0.460,0.639,sad
8.36,1642,1043,1588,546,2310,966,3479,3954,169,0,194,317,0,0,0,0,1.319,3.089,9.378,0.026,0.009,0.003,1.841,-6.048,8.827,-1.069,-0.691,0.966,sad
8.37,1616,1136,1775,738,2431,1069,3489,3967,9,0,222,18,0,0,0,0,1.322,3.151,9.452,0.029,0.032,-0.002,-1.041,-7.180,12.763,-0.402,-0.148,1.231,sad
8.38,1628,1253,1901,832,2448,1107,3511,3967,0,12,191,0,0,0,0,0,1.448,3.148,9.388,0.039,0.041,-0.009,-1.575,-4.156,10.973,0.019,-0.288,1.599,sad
8.39,1632,1296,2038,956,2474,1165,3533,3975,0,0,189,0,0,0,0,0,1.355,3.060,9.407,0.041,0.043,-0.001,-0.098,-2.799,10.041,0.551,-0.350,2.404,sad
8.40,1596,1353,2160,1074,2493,1182,3536,3979,0,0,171,0,0,0,0,0,1.360,3.232,9.524,0.038,0.025,0.000,3.591,-3.112,9.081,0.882,-0.043,1.768,sad
8.41,1606,1391,2218,1178,2529,1232,3546,3968,0,0,184,0,0,0,0,0,1.372,3.077,9.419,0.024,0.047,-0.011,3.783,-2.806,7.558,0.880,-0.002,1.353,sad
8.42,1677,1409,2262,1232,2558,1219,3552,3978,0,0,140,0,0,0,0,0,1.255,3.194,9.450,0.011,0.046,-0.014,3.800,-3.026,8.437,0.753,-0.269,0.337,sad
8.43,1712,1392,2288,1296,2532,1282,3566,3971,0,0,176,0,6,0,0,0,1.279,3.160,9.366,0.019,0.042,-0.020,1.994,-2.830,8.727,0.775,-0.183,-0.461,sad
8.44,1686,1454,2318,1347,2559,1343,3568,3978,0,0,179,0,0,0,0,0,1.355,3.072,9.412,0.044,0.058,-0.035,0.424,-2.672,8.835,0.798,-0.145,-0.602,sad
8.45,1733,1459,2353,1389,2521,1326,3563,3969,0,0,174,0,0,0,0,0,1.283,3.115,9.457,0.050,0.087,-0.054,-0.790,-3.421,10.508,0.988,-0.129,-0.425,sad
8.46,1744,1426,2395,1451,2496,1392,3568,3974,0,0,171,0,0,0,0,0,1.276,3.160,9.452,0.036,0.096,-0.053,-0.261,-3.699,10.072,1.228,-0.171,-0.123,sad
