timestamp,L1,L2,L3,L4,L5,L6,L7,L8,R1,R2,R3,R4,R5,R6,R7,R8,acc_x_left,acc_y_left,acc_z_left,gyro_x_left,gyro_y_left,gyro_z_left,acc_x_right,acc_y_right,acc_z_right,gyro_x_right,gyro_y_right,gyro_z_right,mood
0.00,3565,2850,3703,3504,1670,0,1887,1744,2525,1993,2574,3824,1232,0,3574,3173,1.132,4.472,8.861,0.050,0.025,0.001,0.508,-3.340,9.510,0.007,0.018,0.012,sad
0.01,3552,2859,3701,3440,1664,0,1867,1702,2496,2019,2710,3824,1194,0,3600,3326,1.128,4.468,8.894,0.044,0.024,-0.007,0.534,-3.359,9.507,0.007,0.023,0.010,sad
0.02,3557,2838,3699,3435,1674,0,1861,1708,2542,2079,2661,3824,1156,0,3618,3268,1.176,4.494,8.933,0.050,0.027,-0.005,0.486,-3.371,9.507,0.009,0.027,0.014,sad
0.03,3543,2831,3685,3431,1685,0,1869,1730,2557,2060,2789,3823,1167,0,3617,3275,1.152,4.501,8.923,0.047,0.020,0.002,0.500,-3.376,9.495,0.009,0.024,0.013,sad
0.04,3536,2807,3671,3424,1690,0,1899,1757,2559,2038,2802,3824,1163,0,3627,3287,1.188,4.463,8.904,0.042,0.023,-0.002,0.527,-3.388,9.452,0.005,0.024,0.016,sad
0.05,3524,2832,3669,3379,1701,0,1941,1783,2559,2115,2771,3821,1156,0,3640,3307,1.161,4.460,8.904,0.043,0.030,-0.007,0.496,-3.354,9.512,0.011,0.026,0.011,sad
0.06,3536,2815,3662,3417,1728,0,1975,1828,2582,2120,2771,3819,1196,0,3666,3312,1.178,4.480,8.890,0.044,0.027,-0.010,0.515,-3.385,9.555,0.009,0.023,0.012,sad
0.07,3519,2823,3671,3408,1742,0,1997,1829,2559,2140,2730,3827,1218,0,3606,3312,1.147,4.503,8.873,0.042,0.028,-0.004,0.426,-3.340,9.570,0.010,0.023,0.017,sad
0.08,3518,2806,3664,3411,1744,0,2029,1897,2559,2160,2579,3824,1193,0,3660,3333,1.120,4.448,8.911,0.037,0.029,-0.006,0.474,-3.373,9.457,0.018,0.027,0.014,sad
0.09,3521,2800,3664,3417,1770,0,2094,1936,2597,2163,2492,3824,1178,0,3657,3341,1.176,4.492,8.866,0.042,0.025,-0.006,0.534,-3.352,9.436,0.017,0.021,0.015,sad
0.10,3515,2798,3662,3408,1795,0,2141,2000,2501,2154,2497,3841,1180,0,3661,3358,1.178,4.489,8.933,0.038,0.032,-0.003,0.469,-3.354,9.464,0.013,0.025,0.015,sad
0.11,3493,2800,3661,3402,1810,0,2229,2064,2491,2127,2482,3825,1166,0,3604,3364,1.176,4.501,8.914,0.040,0.031,-0.003,0.520,-3.357,9.503,0.013,0.028,0.009,sad
0.12,3493,2782,3696,3395,1821,0,2211,2141,2482,2119,2485,3826,1168,8,3662,3351,1.154,4.456,8.906,0.031,0.028,-0.009,0.508,-3.342,9.433,0.015,0.025,0.011,sad
0.13,3489,2768,3650,3398,1805,0,2255,2242,2368,2112,2331,3827,1150,0,3664,3366,1.180,4.434,8.887,0.031,0.030,-0.005,0.548,-3.352,9.493,0.016,0.024,0.012,sad
0.14,3467,2767,3644,3399,1808,0,2290,2286,2373,2123,2457,3822,1311,0,3671,3367,1.166,4.470,8.894,0.040,0.029,-0.009,0.548,-3.342,9.483,0.016,0.022,0.007,sad
0.15,3477,2768,3642,3390,1843,0,2320,2386,2349,2127,2464,3824,1040,0,3666,3379,1.144,4.460,8.890,0.041,0.025,-0.003,0.498,-3.316,9.500,0.014,0.023,0.010,sad
0.16,3478,2768,3638,3386,1859,0,2346,2419,2303,2086,2454,3805,1145,0,3665,3395,1.140,4.429,8.950,0.037,0.028,-0.003,0.510,-3.328,9.493,0.021,0.020,0.013,sad
0.17,3499,2754,3633,3381,1819,0,2375,2475,2171,2068,2421,3807,1108,0,3664,3198,1.137,4.432,8.942,0.040,0.029,-0.010,0.491,-3.287,9.491,0.011,0.026,0.016,sad
0.18,3475,2751,3632,3376,1851,0,2385,2521,2175,2070,2421,3801,1109,0,3671,3408,1.137,4.444,8.921,0.044,0.029,-0.008,0.488,-3.381,9.483,0.003,0.028,0.013,sad
0.19,3486,2733,3631,3376,1872,0,2399,2550,2167,2093,2428,3823,1278,0,3670,3408,1.180,4.420,8.938,0.047,0.027,-0.004,0.491,-3.393,9.503,0.007,0.021,0.017,sad
0.20,3483,2736,3632,3362,1872,0,2407,2559,2182,2097,2418,3797,1124,0,3674,3413,1.154,4.468,8.904,0.044,0.027,-0.009,0.515,-3.345,9.522,0.009,0.022,0.010,sad
0.21,3522,2727,3631,3370,1872,0,2418,2593,2167,2099,2431,3819,1124,0,3664,3419,1.132,4.410,8.916,0.050,0.027,-0.010,0.450,-3.347,9.531,0.014,0.020,0.014,sad
0.22,3487,2727,3663,3380,1872,0,2428,2620,2169,2105,2433,3815,1198,0,3678,3423,1.120,4.456,8.885,0.047,0.030,-0.009,0.539,-3.323,9.531,0.010,0.026,0.017,sad
0.23,3486,2706,3631,3388,1872,0,2411,2624,2135,2098,2454,3823,1119,0,3685,3423,1.156,4.439,8.909,0.043,0.031,-0.006,0.503,-3.359,9.476,0.016,0.022,0.016,sad
0.24,3489,2709,3623,3379,1874,0,2430,2635,2144,2098,1599,3826,1126,0,3675,3438,1.128,4.477,8.882,0.046,0.033,-0.003,0.505,-3.378,9.529,0.015,0.025,0.015,sad
0.25,3494,2704,3619,3376,1872,0,2467,2640,2075,2063,2382,3717,821,0,3665,3443,1.159,4.441,8.945,0.042,0.030,-0.009,0.520,-3.290,9.531,0.013,0.023,0.012,sad
0.26,3464,2661,3622,3376,1858,0,2443,2663,2010,2060,2372,3791,1055,0,3678,3444,1.152,4.465,8.933,0.030,0.028,-0.009,0.515,-3.304,9.522,0.020,0.025,0.014,sad
0.27,3475,2683,3613,3376,1852,0,2451,2699,1960,2033,2334,3777,1042,0,3673,3454,1.185,4.434,8.916,0.048,0.033,-0.011,0.474,-3.359,9.560,0.019,0.026,0.014,sad
0.28,3472,2685,3560,3361,1861,0,2467,2722,1826,1904,2157,3776,1009,0,3675,3466,1.089,4.446,8.938,0.048,0.029,-0.005,0.503,-3.335,9.546,0.027,0.033,0.011,sad
0.29,3472,2677,3612,3371,1873,0,2497,2741,1669,1784,2119,3745,974,0,3663,3478,1.159,4.415,8.916,0.046,0.033,-0.007,0.491,-3.311,9.469,0.018,0.027,0.011,sad
0.30,3470,2683,3630,3374,1870,0,2483,2713,1642,1768,2114,3728,939,0,3674,3501,1.063,4.472,8.935,0.038,0.027,-0.006,0.503,-3.323,9.524,0.024,0.028,0.015,sad
0.31,3458,2693,3611,3370,1871,0,2497,2779,1443,1557,2050,3673,858,0,3662,3507,1.214,4.453,8.854,0.039,0.026,-0.006,0.512,-3.321,9.503,0.033,0.031,0.016,sad
0.32,3451,2697,3620,3363,1852,0,2516,2800,1412,1455,1955,3648,752,0,3663,3520,1.159,4.441,8.911,0.050,0.024,-0.006,0.500,-3.261,9.440,0.022,0.027,0.015,sad
0.33,3447,2704,3613,3369,1866,0,2530,2823,1424,1433,1991,3650,782,0,3648,3603,1.171,4.420,8.902,0.046,0.029,-0.009,0.498,-3.294,9.567,0.010,0.020,0.011,sad
0.34,3446,2700,3632,3341,1889,0,2542,2822,1394,1486,1968,3639,737,0,3619,3548,1.168,4.398,8.930,0.048,0.030,-0.012,0.493,-3.287,9.527,0.018,0.024,0.011,sad
0.35,3494,2688,3606,3383,1925,0,2544,2837,1393,1355,2508,3606,739,0,3583,3561,1.152,4.427,8.918,0.048,0.024,-0.007,0.520,-3.335,9.517,0.020,0.018,0.012,sad
0.36,3418,2698,3617,3389,1933,0,2547,2823,1378,1371,1924,3640,813,0,3686,3525,1.152,4.463,8.892,0.047,0.029,-0.005,0.503,-3.306,9.493,0.002,0.022,0.006,sad
0.37,3438,2706,3628,3374,1939,0,2559,2816,1342,1427,1929,3632,767,0,3583,3558,1.156,4.446,8.897,0.048,0.025,-0.007,0.508,-3.285,9.548,0.013,0.019,0.013,sad
0.38,3471,2704,3611,3379,1950,0,2553,2800,1384,1460,1881,3645,798,0,3573,3570,1.135,4.460,8.906,0.049,0.026,-0.009,0.488,-3.345,9.553,0.021,0.021,0.010,sad
0.39,3461,2706,3623,3382,1950,0,2555,2800,1381,1477,2088,3645,751,0,3582,3569,1.125,4.487,8.909,0.044,0.026,-0.006,0.500,-3.311,9.567,0.016,0.020,0.011,sad
0.40,3470,2709,3621,3376,1923,0,2551,2797,1355,1459,1886,3634,822,0,3600,3583,1.164,4.458,8.928,0.049,0.028,-0.007,0.512,-3.342,9.531,0.018,0.020,0.008,sad
0.41,3467,2701,3630,3385,1942,0,2543,2759,1271,1471,1901,3634,709,0,3563,3607,1.120,4.434,8.995,0.052,0.031,-0.010,0.534,-3.278,9.498,0.010,0.022,0.009,sad
0.42,3472,2699,3622,3377,1932,0,2531,2709,1268,1494,1883,3621,847,0,3568,3603,1.183,4.477,8.918,0.051,0.030,-0.007,0.493,-3.273,9.467,0.019,0.022,0.008,sad
0.43,3472,2683,3616,3365,1911,0,2507,2641,1313,1535,1845,3637,887,0,3583,3808,1.144,4.518,8.928,0.048,0.028,-0.001,0.500,-3.287,9.515,0.022,0.014,0.009,sad
0.44,3456,2661,3606,3353,1862,0,2478,2559,1167,1622,1988,3633,950,0,3600,3617,1.144,4.503,8.933,0.044,0.031,-0.000,0.512,-3.309,9.510,0.018,0.013,0.005,sad
0.45,3388,2614,3569,3283,1783,0,2423,2461,1216,1685,1911,3629,1010,0,3620,3625,1.097,4.525,8.947,0.007,0.046,0.006,0.503,-3.304,9.625,0.020,0.018,0.003,sad
0.46,3316,2546,3548,3243,1679,0,2343,2278,1246,1744,1940,3666,1252,0,3638,3642,0.939,3.994,8.770,0.063,0.003,-0.005,0.575,-3.318,9.471,0.013,0.041,0.020,sad
0.47,3361,2638,3606,3279,1647,0,2054,1648,1246,1810,1942,3728,1252,0,3759,3664,1.092,4.482,8.902,0.112,0.006,-0.029,0.601,-3.311,9.531,0.001,0.020,0.009,sad
0.48,3415,2699,3610,3331,1246,0,1159,39,1268,1866,1947,3706,1248,0,3713,3670,1.092,4.511,8.880,0.136,0.005,-0.016,0.481,-3.237,9.558,-0.001,0.010,-0.002,sad
0.49,3442,2725,3637,3344,704,0,449,0,1437,1973,1963,3727,1265,0,3749,3667,1.132,4.338,8.882,0.162,-0.007,-0.003,0.529,-3.290,9.598,-0.022,0.036,0.012,sad
0.50,3459,2747,3634,3326,615,0,210,0,1607,1994,2216,3792,1370,0,3792,3663,1.192,4.441,9.124,0.217,-0.011,0.012,0.457,-3.330,9.500,-0.006,0.022,0.014,sad
0.51,3469,2750,3620,3216,493,0,0,0,1715,2096,2259,3583,1526,0,3825,3423,1.329,4.518,9.074,0.191,-0.042,-0.068,0.532,-3.342,9.486,-0.001,0.018,0.014,sad
0.52,3303,2604,3490,3006,256,0,0,0,1831,2078,2469,3834,1765,0,3650,3675,1.362,4.580,9.151,0.364,0.006,-0.021,0.572,-3.338,9.476,-0.009,0.032,0.019,sad
0.53,3023,2271,3271,2559,0,0,0,0,1915,2118,2513,3854,2032,0,3891,3675,1.355,4.556,9.270,0.555,-0.007,0.007,0.543,-3.306,9.452,-0.008,0.024,0.001,sad
0.54,2661,1677,2895,1067,0,0,0,0,1993,2190,2618,3856,2192,0,3934,3690,1.159,4.190,9.309,0.737,-0.137,-0.095,0.565,-3.349,9.517,-0.012,0.024,0.001,sad
0.55,2179,722,2058,496,0,0,0,0,2112,2189,3265,3889,2416,0,3966,3703,1.614,4.245,9.622,0.882,-0.317,-0.241,0.551,-3.278,9.536,0.007,0.017,-0.006,sad
0.56,1499,16,64,0,0,0,0,0,2194,2077,2961,3891,2544,0,3982,3696,0.453,3.139,11.887,0.539,-0.198,-0.653,0.433,-3.218,9.680,-0.019,0.021,0.005,sad
0.57,924,0,0,0,0,0,0,0,2237,2160,3037,3906,2615,0,3987,3677,1.827,3.412,11.779,0.337,-0.286,-0.903,0.431,-3.151,9.538,-0.013,0.035,-0.008,sad
0.58,1093,0,0,0,0,0,0,0,2323,2274,3071,3920,2679,96,4007,3662,3.091,0.917,9.823,-0.474,0.232,-0.949,0.517,-3.299,9.529,-0.004,0.043,0.020,sad
0.59,1101,0,0,0,0,0,0,0,2435,2289,3081,3927,2763,0,4011,3670,2.485,0.857,9.646,-0.470,0.136,-0.808,0.563,-3.278,9.519,-0.021,0.048,0.013,sad
0.60,1131,0,0,0,0,0,0,0,2487,2246,3114,3941,2817,0,4018,3617,4.005,0.249,8.286,-0.532,0.065,-0.484,0.543,-3.361,9.546,-0.017,0.033,0.013,sad
0.61,1063,0,0,0,0,0,0,0,2545,2287,3140,3954,2870,0,4017,3562,3.706,1.300,9.579,-0.533,0.090,-0.021,0.532,-3.340,9.555,-0.025,0.040,0.017,sad
0.62,1071,0,0,0,0,0,0,0,2622,2411,3168,3911,2928,0,4011,3502,2.981,2.109,10.046,-0.678,-0.147,0.415,0.515,-3.369,9.436,-0.025,0.046,0.022,sad
0.63,1122,0,0,0,0,0,0,0,2627,2400,3191,3970,2947,0,4007,3442,2.567,2.861,9.989,-0.819,-0.055,0.670,0.527,-3.321,9.536,-0.035,0.052,0.019,sad
0.64,1187,0,0,0,0,0,0,0,2738,2489,2784,3997,2962,0,3997,3379,1.377,2.907,9.026,-0.824,0.164,0.651,0.500,-3.361,9.548,-0.046,0.047,0.015,sad
0.65,1173,0,0,0,0,0,0,0,2752,2521,3247,4016,3030,0,3977,3273,0.749,3.297,8.976,-0.639,0.078,0.561,0.481,-3.381,9.412,-0.044,0.053,0.024,sad
0.66,1126,0,0,0,0,0,0,0,2759,2534,3240,4013,3050,0,3967,3239,1.020,3.687,9.155,-0.421,-0.042,0.465,0.498,-3.412,9.553,-0.041,0.055,0.030,sad
0.67,1142,0,0,0,0,0,0,0,2845,2597,3260,4040,3083,0,3933,3141,1.535,4.628,9.376,-0.470,-0.051,0.383,0.431,-3.395,9.469,-0.035,0.048,0.022,sad
0.68,1168,0,0,0,0,0,0,0,2939,2587,3293,4050,3119,0,3912,3071,1.484,4.082,8.174,-0.174,0.015,0.314,0.443,-3.390,9.462,-0.031,0.047,0.024,sad
0.69,1127,0,0,0,0,0,0,0,2991,2592,3301,4052,3139,0,4095,3011,1.463,7.072,11.775,-0.217,-0.650,0.551,0.476,-3.436,9.524,-0.028,0.045,0.026,sad
0.70,1247,0,0,0,0,0,0,0,3020,2559,3316,4067,3163,0,3834,2851,2.705,5.744,9.175,-0.753,-0.297,0.528,0.419,-3.378,9.445,-0.023,0.051,0.029,sad
0.71,1310,0,0,0,0,0,0,0,3088,2688,3316,4083,3205,0,3744,2834,1.520,4.688,7.489,-0.389,0.303,0.468,0.476,-3.464,9.515,-0.016,0.058,0.029,sad
0.72,1255,0,0,0,0,0,0,0,3095,2895,3329,4082,3185,0,3661,2820,0.417,6.814,9.658,-0.513,-0.104,0.578,0.464,-3.428,9.517,-0.017,0.049,0.025,sad
0.73,1330,0,0,0,0,0,0,0,3130,2752,3324,4093,3187,0,3434,2768,1.130,5.765,6.697,-0.492,0.049,0.401,0.414,-3.417,9.455,-0.019,0.050,0.023,sad
0.74,1356,0,0,0,0,0,0,0,3198,2765,3322,4095,3022,0,3280,2681,-0.045,6.330,7.099,-0.146,0.028,0.345,0.448,-3.448,9.524,-0.018,0.061,0.027,sad
0.75,1350,0,0,0,0,0,0,0,3235,2738,3339,4095,3200,0,3217,2687,0.601,8.313,6.718,-0.320,-0.231,0.465,0.347,-3.373,9.570,-0.012,0.064,0.024,sad
0.76,1389,0,0,0,0,0,0,0,3281,2752,3345,4095,3152,0,3045,2394,-0.807,7.779,3.211,0.446,0.490,0.227,0.414,-3.373,9.507,-0.029,0.070,0.036,sad
0.77,1269,0,0,0,0,0,0,0,3354,2905,3375,4095,3071,0,2973,2082,-1.211,8.928,3.745,0.867,0.321,0.082,0.393,-3.428,9.493,-0.013,0.067,0.038,sad
0.78,924,0,0,0,0,0,374,1583,3344,2773,3342,4095,2947,0,2847,1872,0.668,1.228,13.716,0.461,0.266,0.051,0.412,-3.414,9.637,-0.016,0.072,0.041,sad
0.79,1201,0,0,0,0,0,1207,2691,3407,2752,3355,4095,2643,0,2559,1584,-1.611,1.369,7.685,1.281,-0.163,-0.394,0.464,-3.417,9.486,-0.020,0.086,0.039,sad
0.80,1327,0,0,0,0,0,1921,3114,3440,2672,3368,4095,2041,0,1977,511,3.448,5.792,8.971,1.147,-0.078,-0.349,0.467,-3.450,9.534,-0.098,0.126,0.034,sad
0.81,1680,0,0,0,0,0,2263,3341,3468,2736,3406,4095,1727,0,1558,592,-2.488,10.262,12.634,0.326,0.509,-0.088,0.414,-3.450,9.558,-0.094,0.101,0.042,sad
0.82,2102,402,400,48,466,0,2559,3472,3504,2513,3403,4095,931,0,0,22,2.114,4.846,10.482,0.364,0.084,-0.132,0.304,-3.323,9.483,-0.147,0.071,0.036,sad
0.83,2330,711,1312,447,816,0,2816,3538,3574,2318,3235,4095,384,0,0,0,0.950,4.666,9.433,0.287,0.156,-0.095,0.431,-3.663,9.232,-0.455,0.125,-0.089,sad
0.84,2447,1184,2111,1263,1047,0,2953,3583,3678,2199,3355,4095,288,0,0,0,1.168,4.173,8.950,0.209,-0.051,-0.043,0.144,-3.014,9.589,-0.472,0.206,-0.069,sad
0.85,2544,1535,2697,1744,1243,0,3115,3643,3619,1959,3324,4095,0,0,0,0,1.403,4.417,9.112,0.160,0.119,-0.102,0.582,-3.998,9.342,-0.583,0.186,-0.111,sad
0.86,2640,1836,2923,2165,1415,0,3239,3681,3740,1702,3360,4095,0,0,0,0,1.168,4.480,9.029,0.139,-0.006,-0.051,0.453,-3.864,9.258,-0.698,0.097,-0.159,sad
0.87,2704,1959,3038,2410,1439,0,3323,3723,3663,1520,3316,4093,0,0,0,0,1.125,4.499,8.985,0.042,0.029,-0.026,0.249,-4.092,9.196,-0.861,0.131,-0.261,sad
0.88,2785,2055,3108,2533,1601,0,3404,3757,3583,1557,3327,4074,0,0,0,0,1.149,4.187,8.806,0.060,-0.019,-0.003,0.515,-4.448,9.340,-0.855,0.194,-0.185,sad
0.89,2826,2138,3237,2645,1879,0,3483,3771,3654,1013,3217,3967,0,0,0,0,1.168,4.365,8.990,0.086,0.039,-0.029,0.524,-4.061,9.299,-1.069,0.246,-0.076,sad
0.90,2888,2203,3365,2768,2044,0,3541,3792,3629,887,3119,4030,0,0,0,0,1.279,4.156,9.033,0.139,0.027,-0.030,0.376,-4.513,9.060,-1.114,0.425,-0.038,sad
0.91,2959,2416,3457,2864,2304,0,3600,3799,3487,738,1878,3747,0,0,0,0,1.286,4.377,8.904,0.120,0.004,-0.024,0.436,-4.824,8.631,-1.313,0.357,0.146,sad
0.92,3024,2473,3527,2967,2528,0,3625,3792,3301,149,0,3421,0,0,0,0,1.389,4.551,8.940,0.086,0.024,-0.023,0.426,-5.303,8.993,-1.535,0.053,0.456,sad
0.93,3092,2617,3581,3058,2609,0,3641,3797,3130,0,0,3152,0,0,0,0,1.183,4.444,8.890,0.054,0.016,-0.017,0.354,-5.104,9.306,-1.604,0.015,0.602,sad
0.94,3178,2682,3633,3155,2736,58,3658,3793,2833,0,0,2155,0,0,0,0,1.235,4.424,9.002,0.093,0.026,-0.049,0.800,-6.685,9.029,-1.776,-0.189,0.944,sad
0.95,3249,2704,3675,3250,2783,250,3655,3763,2217,0,0,1062,0,0,0,0,1.252,4.436,8.978,0.092,0.063,-0.056,-0.438,-5.629,10.324,-1.475,-0.013,1.128,sad
0.96,3335,2695,3703,3309,2821,528,3658,3758,1616,0,0,801,0,0,0,0,1.135,4.592,8.916,0.042,0.066,-0.042,-0.232,-6.517,9.550,-1.880,-0.022,1.089,sad
0.97,3366,2777,3729,3344,2903,702,3669,3761,68,0,0,0,0,0,0,0,1.132,4.602,8.938,-0.007,0.045,0.004,0.857,-6.364,10.123,-1.124,-0.091,1.308,sad
0.98,3397,2833,3755,3351,2935,723,3690,3760,0,0,0,0,0,0,0,0,1.216,4.350,8.940,0.003,0.022,0.012,2.217,-4.647,9.754,-0.442,0.473,1.318,sad
0.99,3382,2896,3771,3385,3025,630,3699,3755,0,0,0,0,0,0,0,0,1.144,4.278,8.904,0.003,-0.020,0.008,2.219,-4.750,9.685,-0.292,0.678,1.064,sad
1.00,3409,2960,3791,3397,3150,464,3696,3714,0,0,0,0,0,0,0,0,1.417,4.233,9.052,0.118,-0.068,0.017,1.858,-3.575,7.889,0.398,0.257,0.129,sad
1.01,3431,3062,3835,3439,3280,231,3664,3627,0,0,0,0,0,0,0,0,1.448,4.362,8.887,0.113,0.022,-0.014,0.960,-4.216,8.090,0.470,0.088,-0.079,sad
1.02,3455,3158,3857,3482,3317,16,3604,3503,0,0,0,0,0,0,0,0,1.338,4.503,8.918,0.123,0.003,-0.010,0.491,-3.709,7.575,0.631,-0.032,-0.183,sad
1.03,3481,3233,3879,3509,3351,0,3557,3370,0,0,0,0,0,0,0,0,1.197,4.494,8.839,0.114,-0.047,0.019,-0.424,-3.881,8.550,0.662,-0.116,-0.239,sad
1.04,3502,3314,3891,3527,3408,0,3506,3163,0,0,0,0,0,0,0,0,1.374,4.451,8.863,0.092,-0.016,0.002,-0.764,-3.953,8.696,1.041,-0.197,-0.174,sad
1.05,3519,3379,3918,3534,3423,0,3460,2881,0,0,0,0,0,0,0,0,1.302,4.460,8.823,0.089,-0.125,0.067,-0.807,-3.701,8.159,1.096,-0.193,-0.104,sad
1.06,3516,3457,3925,3536,3515,0,3447,2609,0,0,0,0,0,0,0,0,1.537,4.515,8.990,0.039,-0.058,0.013,-0.115,-3.615,8.260,1.140,-0.288,-0.073,sad
1.07,3514,3521,3902,3533,3573,0,3433,2473,0,0,0,0,0,0,0,0,1.300,4.463,8.784,0.038,-0.071,0.013,0.347,-4.259,9.483,1.281,-0.431,-0.204,sad
1.08,3513,3599,3930,3523,3631,0,3386,2323,0,0,0,0,0,0,0,0,1.391,4.496,8.873,0.044,-0.026,-0.003,0.342,-4.350,9.246,1.366,-0.502,-0.288,sad
1.09,3506,3643,3945,3532,3669,0,3366,2176,0,0,0,0,0,0,0,0,1.425,4.439,8.894,0.034,-0.019,0.004,0.539,-4.547,9.165,1.383,-0.570,-0.423,sad
1.10,3471,3682,3952,3519,3701,0,3370,2119,0,0,0,0,0,0,0,0,1.410,4.290,8.815,0.078,-0.028,0.023,0.792,-4.654,9.390,1.372,-0.578,-0.595,sad
1.11,3498,3713,3956,3566,3738,0,3335,1922,0,0,0,0,0,0,0,0,1.398,4.439,8.863,0.051,-0.003,-0.009,0.764,-4.511,9.330,1.309,-0.578,-0.659,sad
1.12,3486,3746,3964,3533,3767,0,3346,1586,0,0,0,0,0,0,0,0,1.405,4.432,8.873,0.052,-0.001,0.000,0.575,-4.508,9.783,1.194,-0.620,-0.731,sad
1.13,3502,3786,3978,3522,3793,0,3279,1226,0,0,0,0,0,0,0,0,1.374,4.453,8.839,0.064,-0.000,-0.005,0.646,-4.781,10.597,1.264,-0.556,-0.779,sad
1.14,3507,3815,3952,3517,3799,0,3230,788,0,0,0,0,0,0,0,0,1.460,4.384,8.878,0.066,0.017,-0.017,0.421,-4.925,10.781,1.316,-0.474,-0.755,sad
1.15,3524,3818,4002,3553,3789,0,3159,202,0,0,0,0,0,32,0,0,1.451,4.384,8.811,0.069,0.029,-0.025,0.057,-4.609,9.912,1.314,-0.431,-0.631,sad
1.16,3533,3857,3986,3610,3742,0,3059,0,0,0,0,0,0,0,0,0,1.441,4.487,8.851,0.078,0.037,-0.025,0.371,-4.130,8.825,1.113,-0.290,-0.482,sad
1.17,3554,3847,4012,3570,3679,0,3019,0,0,0,0,0,0,0,0,0,1.398,4.501,8.825,0.092,0.043,-0.030,0.627,-3.950,8.533,0.943,-0.129,-0.409,sad
1.18,3555,3887,3998,3648,3637,0,2960,0,0,0,0,0,0,0,0,0,1.415,4.501,8.835,0.078,0.045,-0.029,0.182,-4.760,10.968,0.821,-0.102,-0.374,sad
1.19,3567,3891,4005,3581,3640,0,2891,0,0,0,0,0,0,0,0,0,1.446,4.499,8.897,0.080,0.044,-0.033,-0.338,-5.871,13.309,1.035,-0.327,-0.358,sad
1.20,3571,3888,4010,3664,3511,0,2802,0,0,0,0,0,0,0,0,0,1.425,4.626,8.964,0.098,0.044,-0.021,-0.232,-5.320,11.262,1.255,-0.619,-0.409,sad
1.21,3583,3902,4009,3606,3430,0,2709,0,0,0,0,0,0,0,0,0,1.453,4.503,8.851,0.080,0.058,-0.041,0.333,-3.965,8.578,1.218,-0.725,-0.404,sad
1.22,3601,3901,4011,3619,3365,0,2608,0,0,0,0,0,0,0,0,0,1.506,4.513,8.768,0.061,0.055,-0.042,0.651,-3.905,8.538,1.002,-0.623,-0.414,sad
1.23,3771,3875,4009,3632,3346,0,2553,0,0,0,0,0,0,0,0,0,1.441,4.525,8.794,0.050,0.054,-0.038,0.905,-4.140,8.705,0.905,-0.365,-0.459,sad
1.24,3615,3906,4013,3641,3327,0,2549,0,0,0,0,0,0,0,0,0,1.396,4.554,8.930,0.044,0.049,-0.037,1.171,-4.254,8.068,0.860,-0.091,-0.563,sad
1.25,3623,3911,4017,3646,3359,0,2497,0,0,0,0,0,0,0,0,0,1.358,4.542,8.827,0.033,0.052,-0.045,1.049,-4.542,9.230,0.737,0.155,-0.679,sad
1.26,3638,3919,4018,3649,3383,0,2497,0,0,0,0,0,0,0,0,0,1.410,4.489,8.835,0.035,0.056,-0.040,0.369,-5.705,10.798,0.706,0.212,-0.782,sad
1.27,3657,3904,4019,3670,3382,0,2493,0,0,0,0,0,0,0,0,0,1.262,4.506,8.866,0.039,0.066,-0.047,0.419,-5.808,9.993,0.816,0.045,-0.929,sad
1.28,3664,3905,4016,3681,3370,0,2489,0,0,0,0,0,0,0,0,0,1.489,4.436,8.789,0.037,0.057,-0.052,0.977,-4.997,7.906,0.786,-0.070,-1.096,sad
1.29,3666,3901,4018,3683,3375,0,2480,0,0,0,0,0,0,0,0,0,1.324,4.506,8.849,0.019,0.056,-0.045,1.456,-4.970,7.348,0.557,0.050,-1.241,sad
1.30,3677,3906,4046,3693,3374,0,2487,0,0,0,0,0,0,0,0,0,1.324,4.468,8.815,0.017,0.064,-0.050,1.032,-4.748,8.617,0.149,0.413,-1.260,sad
1.31,3696,3903,4032,3703,3376,0,2441,0,0,0,0,0,0,0,0,0,1.346,4.501,8.875,0.031,0.069,-0.044,2.306,-6.627,6.292,0.048,0.843,-1.488,sad
1.32,3706,3895,4016,3698,3345,0,2407,0,0,0,0,0,0,0,0,0,1.279,4.468,8.945,0.049,0.065,-0.041,-0.256,-5.624,6.744,-0.117,0.641,-1.517,sad
1.33,3745,3891,4025,3718,3286,0,2379,0,0,0,0,0,0,0,0,0,1.281,4.446,8.856,0.040,0.047,-0.038,-1.860,-6.409,6.323,-0.546,0.363,-1.572,sad
1.34,3725,3907,4022,3725,3251,0,2254,0,0,0,0,0,0,0,0,0,1.317,4.439,8.825,0.048,0.044,-0.051,-2.064,-7.317,6.302,-0.751,0.223,-1.330,sad
1.35,3746,3904,4027,3718,3188,0,2077,0,0,0,0,0,0,0,0,0,1.286,4.444,8.825,0.068,0.036,-0.039,-2.425,-7.096,7.080,-0.854,0.424,-0.887,sad
1.36,3730,3905,4029,3737,3125,0,1908,0,0,0,0,0,0,0,0,0,1.365,4.470,8.909,0.072,0.049,-0.038,-2.519,-7.264,7.640,-0.938,0.500,-0.330,sad
1.37,3743,3911,4026,3730,3080,0,1809,0,0,0,0,0,0,0,0,0,1.372,4.453,8.966,0.088,0.045,-0.039,0.575,-5.004,8.286,-0.656,0.397,0.175,sad
1.38,3767,3920,4027,3737,2957,0,1631,0,0,0,0,0,0,0,0,0,1.403,4.398,8.849,0.111,0.041,-0.040,4.154,-5.327,10.791,-0.275,0.951,0.028,sad
1.39,3766,3923,4032,3749,2875,0,1407,0,0,0,0,0,0,0,0,0,1.372,4.480,8.961,0.124,0.058,-0.052,0.690,0.991,11.772,-0.680,0.579,0.025,sad
1.40,3791,3927,4032,3751,2729,0,1177,0,0,0,0,0,0,0,0,0,1.379,4.472,8.921,0.144,0.091,-0.069,1.183,-0.919,7.728,-1.340,0.088,-0.188,sad
1.41,3806,3920,4034,3760,2678,0,973,0,0,0,0,0,0,0,0,1333,1.319,4.439,8.957,0.166,0.056,-0.054,-2.145,-2.102,9.685,-1.076,0.054,0.239,sad
1.42,3818,3920,4032,3766,2515,0,847,0,0,0,0,0,0,0,0,2192,1.398,4.650,9.052,0.191,0.082,-0.053,-1.247,-3.618,11.550,-1.136,0.204,0.441,sad
1.43,3840,3903,4043,3780,2288,0,464,0,0,0,0,0,0,0,0,2662,1.300,4.357,8.830,0.250,0.124,-0.008,1.853,-3.570,10.597,-1.108,0.208,0.369,sad
1.44,3856,3901,4042,3781,2160,0,327,0,0,0,0,0,0,0,0,2853,1.099,4.343,8.770,0.473,0.164,0.089,1.561,-3.438,9.986,-1.021,-0.010,0.201,sad
1.45,3857,3882,4048,3781,2035,0,351,0,0,0,0,0,0,0,0,3002,1.247,4.630,8.856,0.386,0.168,0.011,0.508,-3.340,10.369,-1.103,-0.108,0.054,sad
1.46,3874,3856,4033,3794,2006,0,318,0,0,0,0,0,0,0,0,3057,1.202,4.755,8.770,0.496,0.116,0.110,5.519,-11.538,11.571,-1.874,0.735,0.263,sad
1.47,3879,3831,4036,3872,1939,0,218,0,0,0,0,0,0,0,498,3156,1.228,4.575,8.782,0.488,0.169,0.101,0.548,-2.227,10.822,-0.741,-0.132,-0.084,sad
1.48,3907,3772,4051,3788,1717,0,161,0,0,0,0,0,0,0,1446,3232,1.204,4.673,8.710,0.565,0.199,0.129,0.165,-2.602,9.234,0.091,0.286,0.169,sad
1.49,3920,3709,4033,3783,1634,0,32,0,0,0,0,0,0,0,1702,3271,1.295,4.870,8.712,0.594,0.217,0.121,1.243,-3.970,10.039,-0.074,0.171,0.160,sad
1.50,3935,3546,4031,3760,1446,0,0,0,0,0,0,0,0,0,2074,3334,1.463,4.879,8.674,0.667,0.246,0.168,0.601,-3.189,9.622,-0.015,0.170,0.172,sad
1.51,3940,3389,4021,3781,1355,0,0,0,0,0,0,0,0,0,2339,3462,1.271,5.100,8.552,0.739,0.265,0.190,0.642,-3.292,9.761,-0.058,0.036,0.168,sad
1.52,3953,3131,4021,3787,1251,0,0,0,0,0,0,0,0,0,2509,3415,1.022,5.188,8.399,0.771,0.188,0.200,0.713,-3.381,9.632,-0.033,0.087,0.156,sad
1.53,3963,2962,4010,3776,1232,0,0,0,0,0,0,525,0,0,2688,3447,1.053,5.243,8.483,0.773,0.160,0.187,0.539,-3.151,9.711,-0.075,0.025,0.145,sad
1.54,3969,3038,3995,3760,801,0,0,0,0,57,0,1121,0,0,2800,3472,1.020,5.413,8.437,0.779,0.160,0.183,0.541,-3.014,9.546,-0.075,0.078,0.154,sad
1.55,3970,3023,3983,3728,443,0,0,0,81,157,0,1907,0,0,2975,3531,1.082,5.535,8.341,0.790,0.130,0.167,0.725,-3.263,9.598,-0.132,0.108,0.151,sad
1.56,3978,3030,3981,3711,157,0,0,0,431,575,1307,2650,0,0,3053,3602,1.152,5.806,8.128,0.833,0.151,0.177,0.546,-3.381,9.572,-0.019,0.078,0.084,sad
1.57,3973,2992,3952,3643,0,0,0,0,493,643,1538,2928,10,0,3095,3559,1.195,4.992,8.135,0.916,0.103,0.069,0.591,-3.273,9.567,-0.045,0.059,0.063,sad
1.58,3968,2937,3937,3538,0,0,0,0,811,766,1791,3063,133,0,3205,3572,1.604,6.843,8.140,0.927,0.197,0.134,0.579,-3.223,9.601,-0.081,0.056,0.081,sad
1.59,3952,2893,3907,3312,0,0,0,0,1085,1008,1842,3222,101,0,3301,3702,1.353,6.383,7.319,1.027,0.255,0.087,0.546,-3.273,9.503,-0.033,0.025,0.043,sad
1.60,3939,2880,3871,3225,0,0,0,0,1296,876,1914,3440,259,0,3344,3564,1.472,6.895,7.721,0.974,0.313,0.103,0.520,-3.309,9.591,-0.027,0.005,0.025,sad
1.61,3920,2847,3828,3259,0,0,0,0,1602,1306,1924,3433,535,0,3438,3583,1.209,7.523,7.075,1.287,0.281,0.090,0.577,-3.316,9.541,-0.010,0.004,-0.006,sad
1.62,3873,2855,3771,3227,0,0,0,0,1610,1641,2029,3498,733,0,3555,3610,1.020,6.577,7.429,1.079,0.268,0.033,0.558,-3.256,9.459,-0.012,0.010,0.003,sad
1.63,3789,2787,3669,3184,0,0,0,0,1619,1669,2047,3530,828,0,3619,3619,0.704,6.788,7.870,1.190,0.168,-0.008,0.543,-3.280,9.555,-0.027,0.027,-0.001,sad
1.64,3583,2709,3490,3093,0,0,0,0,1844,1766,2497,3619,970,0,3692,3623,0.603,7.049,7.326,1.327,-0.071,-0.096,0.522,-3.340,9.601,-0.009,0.058,0.018,sad
1.65,3461,2646,3293,2903,0,0,0,0,2034,1833,2610,3686,950,0,3734,3632,0.658,7.338,7.362,1.460,-0.548,-0.286,0.405,-3.278,9.567,0.002,0.065,0.014,sad
1.66,3333,2506,3067,2655,0,0,0,0,2075,1891,2648,3728,1208,0,3760,3643,0.790,8.030,8.315,1.725,-1.200,-0.442,0.486,-3.306,9.546,0.002,0.089,0.025,sad
1.67,3066,2090,2743,2150,0,0,0,0,2192,1881,2828,3710,1424,0,3809,3645,1.652,8.282,8.756,2.066,-1.429,-0.840,0.491,-3.278,9.538,0.015,0.067,0.013,sad
1.68,2657,1490,2192,958,0,0,0,0,2242,2065,3007,3917,1762,0,3843,3619,1.190,8.691,8.097,2.634,-1.470,-1.159,0.532,-3.211,9.531,0.019,0.028,0.001,sad
1.69,2064,610,1031,197,0,0,0,0,2347,2165,3073,3815,1939,0,3861,3583,1.666,9.419,7.314,2.477,-1.236,-1.391,0.515,-3.366,9.565,0.002,0.019,-0.006,sad
1.70,1373,95,155,0,0,0,0,0,2429,2306,3119,3844,2335,0,3920,3507,1.879,9.254,10.161,1.600,-0.889,-1.372,0.541,-3.345,9.452,-0.014,-0.018,-0.013,sad
1.71,318,0,1,0,0,0,0,0,2459,2357,3155,3853,2384,0,3948,3430,3.553,4.743,8.849,0.473,-0.245,-1.687,0.491,-3.302,9.629,-0.036,-0.049,-0.019,sad
1.72,576,0,0,0,0,0,0,0,2529,2429,2979,3869,2755,0,3951,3375,4.401,4.173,8.396,-0.462,0.277,-1.085,0.510,-3.280,9.541,-0.034,0.021,-0.004,sad
1.73,688,0,0,0,0,0,0,0,2518,2526,3178,3884,2878,0,3961,3696,2.895,4.046,7.396,-0.926,0.501,-0.675,0.527,-3.361,9.517,-0.032,0.049,0.011,sad
1.74,763,0,0,0,0,0,0,0,2592,2559,3209,3901,2931,0,4015,3280,2.030,3.907,7.633,-1.338,0.373,-0.417,0.555,-3.321,9.495,-0.023,0.065,0.025,sad
1.75,766,0,0,0,0,0,0,0,2559,2543,3229,3911,2939,0,3952,3249,1.135,3.998,7.638,-1.822,0.386,-0.313,0.546,-3.369,9.493,-0.025,0.052,0.021,sad
1.76,752,0,0,0,0,0,0,0,2559,2621,3209,3919,2909,0,3934,3196,0.745,4.422,7.740,-2.245,0.337,-0.405,0.474,-3.294,9.483,-0.013,0.047,0.019,sad
1.77,657,0,0,0,0,0,0,0,2640,2672,3219,3953,2969,0,3953,3346,1.839,5.200,7.707,-2.455,0.077,-0.253,0.536,-3.326,9.536,-0.012,0.056,0.029,sad
1.78,622,0,0,0,0,0,0,0,2698,2628,3232,3952,2980,0,3888,3169,2.703,5.916,7.664,-2.550,-0.025,0.189,0.505,-3.345,9.522,-0.014,0.052,0.026,sad
1.79,590,0,0,0,0,0,0,0,2751,2666,3235,4095,2987,0,3891,3184,1.559,5.906,7.937,-2.524,-0.049,0.596,0.488,-3.371,9.512,-0.009,0.040,0.027,sad
1.80,368,0,0,0,0,0,0,0,2838,2624,2457,3983,3008,0,3875,3149,0.136,6.615,8.820,-2.442,-0.341,0.765,0.464,-3.352,9.471,-0.005,0.050,0.029,sad
1.81,171,0,0,0,0,0,0,0,2896,2608,3265,3970,3015,0,3851,3153,0.783,7.209,9.153,-2.422,-0.395,0.834,0.400,-3.333,9.550,-0.002,0.042,0.023,sad
1.82,128,0,0,0,0,0,0,0,2890,2597,3258,4013,3046,0,3782,3085,0.788,7.207,9.050,-2.367,-0.154,0.855,0.429,-3.409,9.431,-0.004,0.037,0.024,sad
1.83,27,0,0,0,0,0,0,0,2967,2597,3299,4021,3027,0,3698,3061,1.132,7.101,9.096,-2.177,-0.265,0.970,0.455,-3.426,9.450,-0.003,0.046,0.022,sad
1.84,0,0,0,0,0,0,0,0,2998,2655,3327,4029,3005,0,3647,3071,2.241,6.977,8.954,-1.949,-0.239,1.203,0.472,-3.400,9.519,-0.016,0.054,0.029,sad
1.85,0,0,0,0,0,0,0,0,3123,2652,3304,4059,2948,0,3479,3043,1.338,6.845,9.057,-1.662,-0.180,1.413,0.491,-3.381,9.467,-0.007,0.048,0.034,sad
1.86,0,0,0,0,0,0,0,0,3124,2658,3235,4071,2893,0,3418,2935,-0.239,6.618,9.515,-1.449,-0.256,1.408,0.397,-3.395,9.467,-0.014,0.056,0.027,sad
1.87,0,0,0,0,0,0,0,0,3145,2655,3288,4079,2846,0,3357,2937,-1.216,5.612,8.231,-1.283,0.009,0.930,0.412,-3.400,9.481,-0.005,0.049,0.027,sad
1.88,0,0,0,0,0,0,0,0,3175,2688,3299,4079,2730,0,3292,2879,-1.288,4.911,7.580,-0.965,0.194,0.332,0.426,-3.400,9.462,-0.011,0.040,0.026,sad
1.89,0,0,0,0,0,0,0,0,3200,2684,3286,4026,2591,0,3201,2841,-1.056,4.257,6.314,-0.310,0.037,-0.134,0.397,-3.373,9.491,-0.029,0.049,0.027,sad
1.90,0,0,0,0,0,0,0,0,3194,2668,3304,4094,2527,0,3357,2846,-0.824,7.511,10.525,0.316,-0.673,-0.276,0.409,-3.440,9.546,-0.019,0.059,0.036,sad
1.91,16,0,0,0,0,0,0,0,3246,2661,3283,4095,2477,0,3053,2737,0.457,10.204,13.226,-0.568,-1.242,-0.342,0.441,-3.366,9.452,-0.014,0.058,0.035,sad
1.92,177,0,0,0,0,0,0,0,3344,2676,3322,4095,2505,0,2854,2693,1.822,7.087,7.803,-1.022,-0.601,-0.405,0.438,-3.381,9.519,-0.022,0.055,0.039,sad
1.93,329,0,0,0,0,0,0,0,3294,2415,3314,4095,2533,0,2832,2649,1.444,6.663,6.692,-0.640,-0.054,-0.145,0.453,-3.508,9.464,-0.022,0.050,0.022,sad
1.94,385,0,0,0,0,0,0,0,3381,2817,3109,4095,2640,0,2657,2386,1.056,8.353,8.540,-0.644,-0.390,0.312,0.362,-3.417,9.450,-0.015,0.033,0.022,sad
1.95,493,0,0,0,0,0,0,0,3393,2850,3339,4095,2618,0,2446,1917,1.329,7.106,4.736,-0.330,-0.209,0.502,0.433,-3.316,9.505,-0.031,0.024,0.019,sad
1.96,552,0,0,0,0,0,0,0,3419,2851,3345,4095,2559,0,2223,1434,0.215,7.788,4.889,0.103,0.026,0.714,0.362,-3.476,9.476,-0.025,0.025,0.020,sad
1.97,432,0,0,0,0,0,0,0,3437,2969,3396,4095,2559,0,2053,432,-1.051,8.636,1.595,0.889,0.232,0.873,0.153,-3.419,9.541,0.047,-0.001,0.026,sad
1.98,226,0,0,0,0,0,33,0,3471,2923,3411,4095,2395,0,1637,66,2.418,5.253,9.835,0.899,0.662,0.493,0.371,-3.460,9.505,-0.027,0.036,0.018,sad
1.99,265,0,0,0,0,0,533,1534,3523,2913,3421,4095,2320,0,1307,0,-1.846,0.934,15.088,0.646,0.276,0.521,0.493,-3.601,9.603,-0.056,0.036,0.028,sad
2.00,323,0,0,0,0,0,1232,2608,3551,2918,3429,4095,2275,0,676,0,-6.316,0.235,8.126,1.393,-0.081,-0.465,0.405,-3.467,9.445,-0.068,0.038,0.010,sad
2.01,589,0,0,0,0,0,1751,3018,3600,2932,3437,4095,1853,0,0,0,3.673,6.213,9.981,1.337,-0.430,-0.404,0.414,-3.469,9.440,-0.075,0.062,0.035,sad
2.02,946,0,0,0,0,0,2240,3248,3894,2917,3452,4095,973,0,0,0,19.613,8.926,5.861,1.891,-0.358,-0.292,0.441,-3.572,9.455,-0.278,0.120,-0.083,sad
2.03,1422,48,0,0,698,0,2487,3376,3663,2845,3447,4095,618,0,0,0,-0.680,4.372,9.874,0.313,0.969,-0.582,0.488,-2.938,9.694,-0.238,0.132,-0.045,sad
2.04,1685,246,154,0,791,0,2702,3466,3671,2620,3439,4095,198,0,0,0,1.156,3.098,7.077,0.284,0.266,-0.226,0.345,-3.598,9.383,-0.550,0.160,-0.203,sad
2.05,1936,793,612,0,956,0,2858,3543,3708,2448,3316,4095,0,0,0,0,0.941,4.211,9.230,0.215,0.226,-0.227,0.168,-3.797,9.400,-0.595,0.056,-0.229,sad
2.06,2007,1125,1099,257,1259,0,3056,3606,3722,2365,3398,4095,0,0,0,0,1.111,4.147,9.299,0.131,-0.048,-0.023,0.254,-3.615,9.242,-0.517,0.084,-0.181,sad
2.07,2064,1360,1429,432,1251,0,3193,3645,3744,2189,3424,4095,0,0,0,0,1.652,4.077,8.957,0.080,0.088,-0.088,0.405,-3.977,9.450,-0.652,0.068,-0.210,sad
2.08,2115,1618,1955,547,1306,0,3287,3683,3722,1910,3414,4095,0,0,0,0,1.523,4.027,8.940,0.164,0.118,-0.110,0.330,-4.281,9.172,-0.766,0.143,-0.195,sad
2.09,2210,1808,2366,777,1535,0,3345,3707,3713,1665,3398,4095,0,0,0,0,1.367,4.281,8.835,0.133,0.062,-0.124,0.373,-4.317,9.318,-0.817,0.158,-0.151,sad
2.10,2258,1946,2658,1195,1674,0,3403,3739,3632,1442,3406,4095,0,0,0,0,1.348,4.458,9.110,0.094,0.115,-0.082,0.467,-4.731,9.026,-0.910,0.261,-0.142,sad
2.11,2325,2087,2795,1457,1685,0,3455,3770,3606,1135,3365,4080,0,0,0,0,1.199,4.183,9.019,0.081,0.059,-0.047,0.208,-5.179,9.148,-0.990,0.354,-0.100,sad
2.12,2359,2186,2887,1649,1812,0,3486,3792,3575,1076,3334,4074,0,0,0,0,1.288,4.250,9.079,0.072,0.083,-0.054,0.491,-4.932,8.820,-0.842,0.432,-0.109,sad
2.13,2405,2245,2963,1801,1940,0,3542,3824,3545,912,3281,4070,0,0,0,0,1.293,4.357,9.019,0.032,0.031,-0.024,0.359,-5.025,8.811,-1.058,0.502,-0.079,sad
2.14,2419,2321,2994,1886,2035,0,3583,3843,3421,939,2981,4038,0,0,0,0,1.329,4.350,9.005,-0.001,0.049,-0.009,-0.084,-5.593,8.669,-1.216,0.580,-0.036,sad
2.15,2439,2384,3024,1943,2132,86,3623,3861,3331,805,2707,4007,0,0,0,0,1.250,4.166,8.981,0.003,0.055,-0.021,-0.385,-5.296,8.657,-1.126,0.507,0.056,sad
2.16,2448,2429,3071,2059,2355,216,3667,3889,3167,605,1016,3927,0,0,0,0,1.290,4.116,8.933,0.021,0.030,-0.015,-0.151,-5.497,8.586,-1.272,0.208,0.283,sad
2.17,2462,2515,3152,2186,2447,511,3698,3894,2885,315,0,3632,32,0,0,0,1.367,4.132,9.088,0.084,0.048,-0.039,-0.567,-5.775,9.222,-1.666,-0.360,0.744,sad
2.18,2477,2559,3237,2320,2639,789,3740,3917,2694,0,0,2277,0,0,0,0,1.310,4.214,8.997,0.080,0.011,-0.017,0.129,-7.456,10.637,-1.966,-1.389,1.391,sad
2.19,2503,2624,3298,2432,2750,1033,3764,3923,2047,0,0,1485,0,0,0,0,1.288,4.348,9.127,0.074,0.039,-0.032,-0.469,-8.169,12.306,-2.465,-1.541,1.265,sad
2.20,2509,2686,3358,2518,2863,1139,3785,3935,732,0,0,62,0,0,0,0,1.300,4.298,9.009,0.069,0.032,-0.027,0.144,-6.993,8.650,-2.614,-0.793,1.425,sad
2.21,2527,2755,3407,2615,2951,1302,3797,3937,0,0,0,0,0,0,0,0,1.204,4.214,9.036,0.078,0.026,-0.008,-1.298,-6.242,10.317,-1.142,-0.579,1.728,sad
2.22,2549,2800,3445,2669,2992,1331,3810,3941,0,0,0,0,0,0,0,0,1.252,4.140,9.005,0.080,0.042,-0.030,-1.034,-3.036,9.079,-0.490,-0.613,2.208,sad
2.23,2559,2828,3467,2728,2987,1317,3813,3937,0,0,0,0,0,0,0,0,1.319,4.322,9.038,0.095,0.043,-0.034,-0.302,-2.473,10.254,0.585,-0.812,2.159,sad
2.24,2606,2865,3499,2779,3009,1249,3798,3925,0,0,0,0,0,0,0,0,1.279,4.298,9.026,0.082,0.053,-0.032,2.710,-2.682,6.649,0.968,-0.617,1.812,sad
2.25,2639,2890,3514,2823,3018,1168,3787,3926,0,0,0,0,0,0,0,0,1.209,4.331,8.997,0.072,0.053,-0.029,3.306,-3.146,7.499,1.003,-0.539,1.393,sad
2.26,2673,2882,3521,2849,2995,1198,3790,3926,0,0,0,0,0,0,0,0,1.147,4.278,8.947,0.067,0.054,-0.034,3.280,-2.988,7.436,1.393,-0.498,0.346,sad
2.27,2703,2877,3521,2873,2977,1342,3807,3937,0,0,0,0,0,0,0,0,1.159,4.226,9.014,0.063,0.052,-0.029,1.207,-3.014,7.858,1.433,-0.467,-0.369,sad
2.28,2722,2871,3526,2892,2975,1503,3791,3931,0,0,0,0,0,0,0,0,1.233,4.254,9.000,0.051,0.053,-0.031,0.292,-3.381,9.041,1.586,-0.557,-0.549,sad
2.29,2742,2877,3535,2906,2928,1705,3795,3943,0,0,0,0,0,0,0,0,1.195,4.190,8.981,0.045,0.044,-0.036,-0.862,-3.907,9.776,1.943,-0.617,-0.594,sad
2.30,2766,2894,3536,2926,2911,1724,3798,3952,0,0,0,0,0,0,0,0,1.233,4.211,8.926,0.056,0.037,-0.041,-0.687,-4.252,9.694,2.085,-0.606,-0.359,sad
2.31,2791,2917,3541,2934,2928,1795,3806,3953,0,0,0,0,0,0,0,0,1.226,4.290,8.914,0.058,0.029,-0.030,-0.364,-4.647,10.020,2.134,-0.629,-0.291,sad
2.32,2805,2928,3549,2957,2930,1837,3797,3952,0,0,0,0,0,0,0,0,1.269,4.312,8.950,0.073,0.021,-0.024,0.615,-5.100,10.044,2.144,-0.696,-0.327,sad
2.33,2841,2970,3559,2983,2983,1875,3798,3939,0,0,0,0,0,0,0,0,1.257,4.283,8.976,0.082,0.021,-0.017,1.130,-4.913,9.720,1.961,-0.746,-0.504,sad
2.34,2872,2971,3568,3007,3067,1879,3793,3925,0,0,0,0,0,0,0,0,1.269,4.250,9.014,0.090,0.028,-0.025,1.130,-4.918,10.025,1.804,-0.838,-0.678,sad
2.35,2894,3002,3612,3053,3088,1781,3780,3949,0,0,0,0,0,0,0,0,1.223,4.369,8.885,0.096,0.038,-0.030,0.481,-5.246,11.198,1.745,-0.988,-0.967,sad
2.36,2940,3047,3617,3088,3119,1775,3757,3889,0,0,0,0,0,0,0,0,1.257,4.367,8.942,0.099,0.023,-0.017,-0.946,-4.712,10.654,1.650,-0.861,-0.930,sad
2.37,2991,3063,3643,3133,3141,1628,3729,3867,0,0,0,0,0,0,0,0,1.235,4.278,8.926,0.087,0.035,-0.025,-1.389,-4.594,10.400,1.627,-0.730,-0.783,sad
2.38,3047,3090,3666,3184,3184,1554,3696,3824,0,0,0,0,0,0,0,0,1.197,4.298,8.909,0.098,0.031,-0.027,-1.652,-5.227,11.612,1.649,-0.604,-0.434,sad
2.39,3128,3122,3696,3225,3218,1377,3665,3803,0,0,0,0,0,0,0,0,1.276,4.372,9.019,0.095,0.030,-0.029,-0.618,-4.209,8.382,1.356,-0.532,-0.171,sad
2.40,3173,3156,3725,3275,3248,1358,3638,3781,0,0,0,0,0,0,0,0,1.267,4.353,8.938,0.082,0.031,-0.030,0.146,-4.515,9.258,1.143,-0.446,-0.144,sad
2.41,3215,3206,3742,3303,3270,1314,3614,3752,0,0,0,0,0,0,0,0,1.142,4.427,8.935,0.086,0.027,-0.025,0.790,-6.752,12.835,0.296,-0.652,-0.572,sad
2.42,3266,3223,3760,3354,3283,1280,3597,3722,0,0,0,0,0,0,0,0,1.204,4.381,8.990,0.075,0.037,-0.015,-0.139,-6.838,7.788,0.943,-0.267,-0.446,sad
2.43,3313,3250,3781,3376,3294,1239,3555,3683,0,0,0,0,0,0,0,0,1.199,4.360,8.928,0.058,0.036,-0.021,-0.747,-6.151,7.386,0.716,-0.417,-0.560,sad
2.44,3339,3282,3786,3397,3309,1120,3524,3660,0,0,0,0,0,0,0,0,1.199,4.365,8.902,0.089,0.028,-0.019,-0.560,-5.926,6.263,0.254,-0.405,-0.591,sad
2.45,3398,3315,3830,3431,3341,837,3479,3581,0,0,0,0,0,0,0,0,1.149,4.374,8.830,0.092,0.011,-0.010,0.122,-7.264,8.212,-0.280,-0.489,-0.578,sad
2.46,3434,3348,3845,3463,3357,763,3406,3483,0,0,0,0,0,0,0,0,1.073,4.374,8.945,0.098,0.012,-0.013,0.622,-7.740,8.514,-0.292,-0.395,-0.683,sad
2.47,3483,3414,3876,3495,3381,400,3286,3318,0,0,0,0,0,0,0,0,1.147,4.343,8.794,0.111,0.021,-0.018,-0.785,-6.002,4.642,-0.876,0.227,-0.554,sad
2.48,3526,3467,3893,3535,3378,47,3083,2960,0,0,0,0,0,0,0,0,1.293,4.379,8.918,0.121,0.022,-0.016,3.857,-2.485,9.153,-1.006,0.381,-0.308,sad
2.49,3572,3523,3915,3568,3325,0,2878,2175,0,0,0,0,0,0,0,0,1.243,4.511,8.993,0.128,0.029,-0.016,4.216,-2.088,11.061,-0.739,0.768,-0.434,sad
2.50,3622,3573,3933,3583,3216,0,2639,1214,0,0,0,0,0,0,0,0,1.243,4.470,8.909,0.114,0.042,-0.017,0.656,0.994,6.371,-1.702,0.820,-0.586,sad
2.51,3639,3623,3950,3607,3101,0,2464,585,0,0,0,0,0,0,0,0,1.231,4.506,8.875,0.121,0.047,-0.013,0.541,-0.014,5.598,-1.983,1.091,-0.344,sad
2.52,3664,3642,3947,3619,2942,0,2226,48,0,0,0,0,0,0,0,0,1.250,4.468,8.902,0.116,0.043,-0.017,0.912,-2.025,7.796,-2.171,1.219,-0.123,sad
2.53,3684,3669,3954,3645,2814,0,2122,0,0,0,0,0,0,0,0,0,1.149,4.580,8.961,0.130,0.048,-0.014,-1.724,-5.004,10.673,-1.765,2.049,0.572,sad
2.54,3708,3681,3965,3653,2722,0,1872,0,0,0,0,0,0,0,0,320,1.068,4.501,8.890,0.135,0.051,-0.010,-13.362,-16.819,-0.211,0.009,4.366,0.794,sad
2.55,3746,3719,3970,3687,2618,0,1490,0,0,0,0,0,0,0,0,2096,1.288,4.566,8.926,0.128,0.051,-0.004,3.575,-7.135,3.651,0.716,0.238,1.138,sad
2.56,3850,3729,3974,3687,2417,0,1152,0,0,0,0,0,0,0,0,2096,1.381,4.283,8.966,0.181,0.048,-0.007,-1.255,-2.014,9.364,0.257,0.150,0.262,sad
2.57,3774,3743,3984,3707,2271,0,800,0,0,0,0,283,0,0,1130,2835,1.202,4.647,8.954,0.244,0.078,0.032,1.247,-6.689,10.920,-0.248,0.051,0.273,sad
2.58,3803,3742,3984,3718,1874,0,270,0,0,0,0,727,0,0,1325,2978,1.197,4.614,8.878,0.299,0.092,0.005,0.486,-3.278,9.919,-0.106,-0.042,0.054,sad
2.59,3823,3743,3993,3722,1783,0,22,0,0,0,0,1066,0,0,1988,3129,1.247,4.848,8.928,0.448,0.084,0.109,0.661,-3.208,9.627,0.013,-0.071,-0.062,sad
2.60,3839,3665,3991,3718,1333,0,0,0,0,0,0,1098,0,0,2288,3200,1.020,4.719,8.830,0.461,0.100,0.112,0.589,-2.938,9.474,0.034,0.006,-0.019,sad
2.61,3859,3708,3998,3703,1390,0,0,0,0,33,0,1088,0,0,2349,3221,1.037,4.839,8.698,0.481,0.082,0.140,0.795,-3.005,9.589,-0.007,0.038,0.026,sad
2.62,3867,3650,3997,3698,1299,0,0,0,0,118,0,1107,0,0,2662,3292,1.362,4.937,8.554,0.488,0.092,0.129,0.642,-3.117,9.522,-0.039,0.029,0.071,sad
2.63,3879,3543,3982,3680,1095,0,0,0,0,126,0,1499,0,0,2704,3344,1.353,5.085,8.758,0.514,0.096,0.127,0.589,-3.213,9.536,-0.074,0.036,0.102,sad
2.64,3900,3439,3979,3677,907,0,0,0,0,143,0,1765,0,0,2913,3359,1.214,4.990,8.576,0.521,0.130,0.108,0.515,-3.316,9.550,-0.056,0.039,0.091,sad
2.65,3839,3226,4016,3664,800,0,0,0,0,531,1051,2185,0,0,2866,3408,1.226,5.160,8.452,0.518,0.099,0.112,0.577,-3.213,9.574,-0.065,0.030,0.082,sad
2.66,3916,3041,3969,3648,432,0,0,0,177,656,1589,2483,12,0,3004,3449,1.190,5.306,8.543,0.535,0.127,0.107,0.560,-3.266,9.555,-0.056,0.031,0.054,sad
2.67,3913,3024,3961,3623,164,0,0,0,286,783,1574,2672,22,0,3039,3472,1.221,5.416,8.332,0.539,0.121,0.104,0.582,-3.347,9.601,-0.044,0.009,0.024,sad
2.68,3915,2974,3940,3566,0,0,0,0,379,862,1742,2832,107,0,3200,3505,1.228,5.533,8.420,0.536,0.128,0.085,0.678,-3.424,9.402,-0.013,0.002,0.022,sad
2.69,3907,2896,3927,3411,0,0,0,0,403,966,1753,2911,240,0,3357,3543,1.264,5.648,8.346,0.568,0.133,0.081,0.575,-3.297,9.519,-0.016,-0.012,-0.016,sad
2.70,3886,2733,3878,3111,0,0,0,0,434,768,1911,2942,338,0,3415,3568,1.211,5.693,8.116,0.547,0.088,0.058,0.551,-3.220,9.548,0.005,-0.006,-0.034,sad
2.71,3798,2559,3791,2919,0,0,0,0,342,1159,2006,2979,506,0,3525,3627,1.504,6.045,8.430,0.509,0.021,-0.029,0.584,-3.534,9.608,0.062,-0.006,-0.078,sad
2.72,3696,2277,3635,2669,0,0,0,0,187,1297,2006,2993,752,0,3623,3682,1.063,5.744,8.317,0.535,-0.019,-0.184,0.759,-3.299,9.641,0.078,0.021,-0.061,sad
2.73,3523,1919,3338,2339,0,0,0,0,0,1341,2009,2978,969,0,3667,3709,1.235,5.634,8.535,0.783,-0.256,-0.471,0.675,-3.220,9.574,0.054,0.003,-0.059,sad
2.74,3251,1187,2886,1856,0,0,0,0,0,1405,2088,2960,1164,0,3736,3799,1.654,5.804,8.909,1.062,-0.328,-0.650,0.515,-3.057,9.457,0.074,0.028,-0.034,sad
2.75,2875,494,2250,956,0,0,0,0,0,1456,2126,2966,1143,0,3776,3791,1.391,5.866,10.625,1.496,-0.666,-1.100,0.702,-3.290,9.354,0.070,0.035,-0.038,sad
2.76,2432,43,1021,332,0,0,0,0,0,1504,2106,2981,1374,0,3794,3830,2.559,8.224,9.670,1.843,-0.719,-1.540,0.687,-3.376,9.431,0.071,0.001,-0.077,sad
2.77,1680,0,0,0,0,0,0,0,0,1692,2157,2864,1947,0,3939,3935,3.699,5.392,10.709,1.325,-0.212,-2.232,0.766,-3.175,9.843,0.079,0.009,-0.075,sad
2.78,919,0,3,0,0,0,0,0,0,1687,2344,2762,2112,0,3971,3952,3.560,5.782,10.563,0.747,0.232,-1.897,0.555,-2.981,9.412,0.004,0.000,-0.046,sad
2.79,1089,0,0,0,0,0,0,0,0,1706,2382,2797,2383,0,4010,3965,3.302,2.131,11.207,0.142,-0.055,-1.230,0.630,-3.124,9.431,0.019,0.042,-0.015,sad
2.80,1170,0,0,0,0,0,0,0,0,1605,2400,2763,2418,0,4016,3988,2.911,1.604,8.380,-0.159,-0.078,-0.885,0.670,-3.189,9.471,0.015,0.028,-0.009,sad
2.81,1264,0,0,0,0,0,0,0,0,1808,2382,2714,2463,0,4032,4063,1.688,2.121,8.351,-0.455,-0.228,-0.487,0.603,-3.086,9.467,0.014,0.013,-0.002,sad
2.82,1275,0,0,0,0,0,0,0,0,1796,2380,2775,2449,0,3644,3932,0.931,1.745,7.350,-0.611,-0.257,-0.229,0.692,-3.170,9.603,-0.040,0.019,0.008,sad
2.83,1299,0,0,0,0,0,0,0,0,1921,2457,2798,2480,0,4031,3919,0.148,2.315,8.145,-0.693,-0.314,-0.041,0.594,-3.280,9.699,-0.026,-0.003,-0.009,sad
2.84,1253,0,0,0,0,0,0,0,0,1902,2572,2774,2593,0,4045,3834,0.012,3.297,8.985,-0.932,-0.274,0.086,0.680,-3.187,9.558,-0.021,-0.002,-0.013,sad
2.85,1203,0,0,0,0,0,0,0,0,1898,2577,2767,2654,0,4064,3774,0.153,4.166,9.148,-1.184,-0.248,0.191,0.603,-3.213,9.598,0.002,0.004,-0.009,sad
2.86,1177,0,0,0,0,0,0,0,0,2256,2648,2633,2879,0,4058,3669,0.788,4.906,8.995,-1.373,-0.194,0.337,0.752,-3.184,9.555,0.011,0.005,-0.004,sad
2.87,1189,0,0,0,0,0,0,0,0,2180,2139,2829,3022,0,4095,3647,1.001,5.215,8.614,-1.369,-0.180,0.601,0.646,-3.196,9.546,0.004,0.020,0.007,sad
2.88,1170,0,0,0,0,0,0,0,0,2154,2661,2862,3100,0,4016,3677,1.080,5.483,8.511,-1.306,-0.107,0.750,0.718,-3.172,9.610,0.006,0.024,0.009,sad
2.89,1181,0,0,0,0,0,0,0,0,2256,2659,2882,3152,0,4092,3679,1.092,5.835,8.808,-1.218,-0.060,0.854,0.766,-3.139,9.527,-0.007,0.031,0.017,sad
2.90,1222,0,0,0,0,0,0,0,0,2309,2669,2925,3175,0,4095,3725,1.528,6.321,8.993,-1.151,0.067,0.928,0.749,-3.170,9.481,-0.017,0.029,0.021,sad
2.91,1190,0,0,0,0,0,0,0,0,2323,2541,3011,3274,0,4095,3699,1.999,6.704,9.505,-1.083,0.045,0.994,0.673,-3.156,9.567,-0.022,0.026,0.022,sad
2.92,1200,0,0,0,0,0,0,0,0,2325,2684,3179,3294,0,4095,3726,2.792,7.144,9.764,-1.101,0.091,1.084,0.644,-3.168,9.567,-0.022,0.031,0.035,sad
2.93,1237,0,0,0,0,0,0,0,0,2325,2684,3179,3294,0,4095,3726,3.328,6.922,9.232,-1.128,0.188,1.186,0.644,-3.168,9.567,-0.022,0.025,0.042,sad
2.94,1268,0,0,0,0,0,0,0,0,2334,2651,3071,3312,0,4095,3723,3.493,6.483,8.511,-1.090,0.321,1.304,0.781,-3.251,9.414,-0.038,0.032,0.063,sad
2.95,1280,0,0,0,0,0,0,0,0,2327,2692,3137,3321,0,4095,3678,3.340,6.048,7.757,-0.954,0.451,1.423,0.678,-3.275,9.632,-0.039,0.017,0.040,sad
2.96,1307,0,0,0,0,0,0,0,0,2327,2692,3137,3296,0,3953,3699,2.931,5.514,7.080,-0.752,0.608,1.487,0.658,-3.177,9.598,-0.028,0.037,0.046,sad
2.97,1342,0,0,0,0,0,0,0,0,2288,2705,3147,3296,0,3953,3699,2.346,5.583,8.016,-0.524,0.583,1.507,0.702,-3.256,9.608,-0.029,0.031,0.043,sad
2.98,1311,0,0,0,0,0,0,0,0,2258,2674,3152,3289,0,3906,3663,1.415,7.410,10.769,-0.524,0.316,1.560,0.802,-3.304,9.531,-0.042,0.031,0.049,sad
2.99,1289,0,0,0,0,0,0,0,0,2304,2700,3184,3280,0,4081,3664,0.831,6.579,9.878,-0.934,0.192,1.410,0.735,-3.297,9.560,-0.023,0.047,0.046,sad
3.00,1320,0,0,0,0,0,0,0,0,2381,2679,3183,3255,0,4035,3627,0.160,5.751,8.511,-0.980,0.347,1.139,0.668,-3.318,9.507,-0.028,0.027,0.036,sad
3.01,1318,0,0,0,0,0,0,0,0,2295,2674,3113,3253,0,4041,3634,-0.462,5.241,7.839,-0.890,0.420,0.871,0.644,-3.304,9.596,-0.009,0.043,0.046,sad
3.02,1353,0,0,0,0,0,0,0,0,2255,2618,3184,3188,0,3968,3614,-0.692,4.499,6.627,-0.571,0.400,0.397,0.666,-3.184,9.560,-0.015,0.046,0.071,sad
3.03,1251,0,0,0,0,0,0,0,0,2288,2490,3184,3328,0,3963,3603,-0.275,6.847,10.060,-0.230,-0.082,0.148,0.668,-3.213,9.567,-0.028,0.080,0.108,sad
3.04,1178,0,0,0,0,0,0,0,402,2064,2285,3280,2854,0,3922,3629,0.639,7.578,10.949,-0.868,-0.304,0.017,0.745,-3.381,9.450,-0.052,0.107,0.132,sad
3.05,1238,0,0,0,0,0,0,0,499,2224,2457,3223,3001,0,4005,3715,0.352,5.392,6.785,-0.823,-0.269,-0.225,0.335,-3.132,9.855,-0.027,0.013,0.050,sad
3.06,1202,0,0,0,0,0,0,0,545,2281,2497,3264,3088,0,4050,3714,0.069,5.567,5.957,-0.270,-0.284,-0.408,0.601,-3.266,9.541,-0.016,0.015,0.024,sad
3.07,1141,0,0,0,0,0,0,0,654,2512,2549,3327,3152,0,4006,3687,0.093,7.822,9.009,0.020,-0.906,-0.284,0.620,-3.306,9.471,-0.021,0.027,0.035,sad
3.08,1200,0,0,0,0,0,0,0,716,2453,2833,3363,3229,0,3997,3662,1.061,7.779,7.441,-0.159,-0.701,-0.301,0.594,-3.259,9.488,-0.030,0.009,0.043,sad
3.09,1156,0,0,0,0,0,0,0,976,2630,2920,3409,3293,0,3981,3580,-0.316,7.942,6.632,-0.083,-0.175,-0.268,0.572,-3.419,9.579,-0.058,0.025,0.037,sad
3.10,1103,0,0,0,0,0,0,0,1007,2559,2997,3472,3357,0,4029,3549,-0.426,6.831,3.943,0.210,0.369,-0.229,0.656,-3.364,9.479,-0.055,0.024,0.033,sad
3.11,994,0,0,0,0,0,0,0,1381,2653,3109,3552,3421,0,3987,3455,-0.014,6.342,3.608,0.846,0.872,-0.108,0.622,-3.314,9.457,-0.081,0.022,0.034,sad
3.12,787,0,0,0,0,0,0,32,1517,2688,3130,3583,3469,0,3957,3374,-0.871,4.254,13.683,0.772,0.342,0.345,0.589,-3.438,9.538,-0.080,0.034,0.036,sad
3.13,800,0,0,0,0,0,443,1371,1660,2779,3188,3654,3537,0,3815,3249,-2.370,0.781,7.855,0.941,0.128,0.042,0.618,-3.464,9.596,-0.071,0.046,0.034,sad
3.14,781,0,0,0,0,0,786,1515,2080,2832,3723,3739,3583,0,3665,3119,0.168,3.436,8.638,1.428,-0.029,-0.493,0.575,-3.479,9.527,-0.033,0.092,0.048,sad
3.15,1258,5,0,0,0,0,1373,1665,2320,2905,3235,3777,3600,0,3600,2836,1.255,15.256,12.821,-0.399,-0.674,0.403,0.649,-3.414,9.407,-0.068,0.052,0.026,sad
3.16,1593,274,418,0,0,0,1776,2226,2413,2923,3168,3789,3583,0,3147,2715,1.621,6.177,11.906,0.151,-0.118,0.022,0.591,-3.400,9.498,-0.063,0.050,0.030,sad
3.17,1786,506,862,256,122,0,1927,2485,2559,2959,3311,3863,3554,0,3280,2132,1.274,5.136,9.627,0.165,0.063,-0.099,0.627,-3.529,9.333,-0.057,0.069,0.024,sad
3.18,1948,673,1223,440,471,0,2042,2729,2726,2967,3316,3864,3341,0,2889,1079,0.883,4.001,8.923,0.163,-0.101,-0.055,0.546,-3.445,9.469,-0.048,0.057,0.034,sad
3.19,2077,976,1510,463,432,0,2192,2864,2731,2975,3209,3791,3133,0,2583,570,1.149,4.274,9.098,0.120,-0.012,-0.080,0.510,-3.407,9.457,-0.056,0.058,0.043,sad
3.20,2141,1155,1904,781,658,0,2342,3009,2877,3010,3334,3919,2677,0,1915,158,1.334,4.295,9.048,0.113,-0.014,-0.054,0.579,-3.680,9.517,-0.098,0.058,0.046,sad
3.21,2227,1401,2170,1091,824,0,2491,3152,2969,3056,2784,3952,2388,0,775,0,1.209,4.326,9.050,0.084,0.013,-0.058,0.436,-3.491,9.337,-0.035,0.039,0.056,sad
3.22,2256,1570,2372,1360,967,0,2624,3250,3006,3053,3352,3951,2099,0,332,0,1.173,4.307,9.031,0.087,-0.012,-0.031,0.584,-3.587,9.364,-0.022,0.050,0.057,sad
3.23,2335,1745,2538,1508,1095,0,2699,3333,3104,3088,3355,3957,1601,0,0,0,1.240,4.295,8.985,0.052,0.008,-0.029,0.543,-3.646,9.297,0.048,0.013,0.058,sad
3.24,2379,1840,2647,1627,1283,0,2845,3391,3110,3127,3375,3982,915,0,0,0,1.247,4.271,8.966,0.050,0.030,-0.020,0.405,-3.563,9.060,-0.413,0.132,-0.198,sad
3.25,2427,1931,2710,1713,1344,0,2941,3451,3147,3127,3350,3980,703,0,0,0,1.219,4.271,9.007,0.045,0.030,-0.026,0.414,-3.440,9.536,-0.332,0.181,-0.055,sad
3.26,2448,1966,2768,1807,1377,0,3003,3493,3167,3168,3324,3969,524,0,0,0,1.154,4.219,9.048,0.054,0.018,-0.027,0.491,-3.833,9.323,-0.353,0.026,-0.110,sad
3.27,2475,2026,2811,1891,1456,0,3066,3534,3223,3125,3352,3953,343,0,0,0,1.144,4.183,8.990,0.046,0.020,-0.026,0.405,-3.922,9.287,-0.380,0.088,-0.072,sad
3.28,2501,2127,2864,2000,1584,0,3120,3561,3232,3117,3324,3947,311,0,0,0,1.171,4.147,8.988,0.074,0.019,-0.040,0.558,-3.859,9.280,-0.333,0.041,-0.066,sad
3.29,2539,2182,2930,2111,1583,0,3184,3577,3253,3089,3396,3900,185,0,0,0,1.199,4.300,8.938,0.082,0.006,-0.039,0.508,-3.967,9.258,-0.362,0.046,-0.065,sad
3.30,2559,2226,2989,2217,1609,0,3248,3604,3249,3019,3355,3889,55,0,0,0,1.164,4.223,8.873,0.068,0.013,-0.026,0.560,-4.037,9.151,-0.409,0.065,-0.069,sad
3.31,2602,2320,3071,2325,1761,0,3318,3632,3233,2944,3398,3873,0,0,0,0,1.168,4.422,9.091,0.067,0.041,-0.010,0.644,-3.998,9.318,-0.424,0.072,-0.070,sad
3.32,2618,2445,3172,2438,1893,0,3421,3665,3191,2717,3383,3797,0,0,0,0,1.034,4.262,8.847,0.024,-0.042,0.018,0.637,-4.029,9.352,-0.585,0.111,-0.089,sad
3.33,2640,2559,3273,2544,2187,0,3518,3703,3130,2321,3293,3633,0,0,0,0,1.460,4.424,9.246,0.084,0.026,0.000,0.484,-4.214,9.337,-0.787,0.173,-0.087,sad
3.34,2666,2633,3377,2642,2351,112,3583,3807,3061,2039,2743,3515,0,0,0,0,1.202,4.278,8.856,0.051,-0.056,0.040,0.467,-4.080,9.244,-0.903,0.169,-0.052,sad
3.35,2651,2740,3442,2690,2551,239,3657,3750,2821,1289,2838,3071,0,0,0,0,1.307,4.214,8.945,0.037,-0.044,0.030,0.713,-3.910,9.670,-1.153,0.123,0.026,sad
3.36,2635,2791,3463,2707,2754,403,3696,3762,2303,855,56,1609,0,0,0,0,1.298,4.147,8.911,0.022,-0.094,0.039,0.433,-4.884,11.085,-1.709,-0.280,0.450,sad
3.37,2623,2867,3498,2711,2959,660,3742,3791,2096,745,0,632,0,0,0,0,1.221,3.977,8.784,0.084,-0.063,0.018,0.488,-3.831,10.783,-1.977,-0.674,0.659,sad
3.38,2634,2930,3525,2768,3071,833,3769,3810,1442,0,0,0,0,0,0,0,1.274,4.250,9.019,0.046,-0.006,-0.001,0.165,-5.009,10.575,-2.566,-0.854,1.132,sad
3.39,2637,2964,3559,2779,3185,1081,3790,3823,0,0,0,0,0,0,0,0,1.264,4.245,9.026,0.031,-0.056,0.012,0.558,-3.740,12.359,-1.040,-0.730,1.635,sad
3.40,2639,2996,3582,2787,3179,1069,3795,3815,0,0,0,0,0,0,0,0,1.288,4.310,8.983,0.048,0.002,-0.004,-0.893,-1.195,10.922,-0.828,-0.328,1.976,sad
3.41,2648,3013,3583,2797,3285,1088,3794,3859,0,0,0,0,0,0,0,0,1.343,4.338,9.002,0.040,0.017,-0.010,0.400,-1.073,10.228,0.294,-0.094,2.581,sad
3.42,2641,3045,3610,2811,3303,1136,3795,3819,0,0,0,0,0,0,0,0,1.314,4.269,9.017,0.037,0.034,-0.010,2.679,-1.401,8.382,0.970,-0.016,1.870,sad
3.43,2652,3071,3617,2831,3329,981,3795,3813,0,0,0,0,0,0,0,0,1.286,4.259,8.961,0.046,0.047,-0.018,2.830,-1.650,7.554,1.096,0.034,1.699,sad
3.44,2674,3088,3621,2853,3325,1040,3792,3824,0,0,0,0,0,0,0,0,1.228,4.202,8.983,0.057,0.056,-0.035,3.261,-2.581,7.649,1.196,-0.297,0.843,sad
3.45,2726,3088,3631,2891,3309,1135,3787,3824,0,0,0,0,0,0,0,0,1.317,4.195,8.928,0.078,0.064,-0.050,2.715,-3.096,8.423,1.185,-0.349,0.005,sad
3.46,2770,3106,3635,2923,3310,1281,3781,3833,0,0,0,0,0,0,0,0,1.267,4.293,8.978,0.073,0.061,-0.045,2.047,-3.443,9.208,1.276,-0.401,-0.315,sad
3.47,2812,3108,3642,2960,3309,1328,3793,3830,0,0,0,0,0,0,0,0,1.255,4.209,8.997,0.084,0.059,-0.045,0.917,-4.161,9.795,1.483,-0.473,-0.700,sad
3.48,2850,3122,3649,3011,3328,1435,3777,3835,0,0,0,0,0,0,0,0,1.207,4.317,8.966,0.074,0.050,-0.035,0.251,-4.264,9.594,1.467,-0.427,-0.722,sad
3.49,2885,3142,3663,3039,3364,1520,3784,3837,0,0,0,0,0,0,0,0,1.255,4.329,8.933,0.062,0.037,-0.022,0.481,-4.594,9.905,1.521,-0.436,-0.734,sad
3.50,2915,3139,3685,3066,3392,1535,3786,3824,0,0,0,0,0,0,0,0,1.238,4.305,9.002,0.056,0.036,-0.022,0.996,-5.219,10.551,1.539,-0.344,-0.768,sad
3.51,2933,3141,3695,3091,3439,1581,3785,3829,0,0,0,0,0,0,0,0,1.233,4.288,9.031,0.062,0.032,-0.027,1.204,-5.104,9.785,1.549,-0.356,-0.838,sad
3.52,2955,3179,3702,3120,3411,1606,3787,3831,0,0,0,0,0,0,0,0,1.204,4.305,9.014,0.065,0.032,-0.026,1.384,-5.119,9.761,1.470,-0.331,-0.868,sad
3.53,2983,3202,3714,3145,3433,1583,3776,3817,0,0,0,0,0,0,0,0,1.295,4.322,8.940,0.073,0.031,-0.029,1.358,-5.021,9.706,1.390,-0.234,-0.922,sad
3.54,3015,3215,3725,3157,3422,1535,3762,3809,0,0,0,0,0,0,0,0,1.238,4.345,9.014,0.077,0.031,-0.031,0.862,-4.650,9.424,1.161,-0.034,-0.831,sad
3.55,3058,3214,3726,3184,3413,1535,3747,3802,0,0,0,0,0,0,0,0,1.302,4.334,8.942,0.076,0.033,-0.033,0.541,-5.016,10.712,1.110,-0.063,-0.766,sad
3.56,3119,3229,3741,3200,3425,1471,3728,3783,0,0,0,0,0,0,0,0,1.281,4.173,8.863,0.071,0.040,-0.028,-0.189,-4.925,10.460,1.107,-0.476,-0.717,sad
3.57,3157,3238,3758,3238,3439,1525,3728,3762,0,0,0,0,0,0,0,0,1.204,4.329,8.887,0.070,0.030,-0.022,0.299,-4.760,9.685,1.009,-0.607,-0.636,sad
3.58,3195,3248,3776,3258,3447,1535,3699,3725,0,0,0,0,0,0,0,0,1.185,4.319,8.952,0.078,0.031,-0.025,0.357,-4.803,9.323,0.946,-0.437,-0.585,sad
3.59,3241,3280,3800,3286,3479,1431,3613,3689,0,0,0,0,0,0,0,0,1.267,4.336,8.961,0.086,0.028,-0.019,0.388,-4.535,9.127,0.700,-0.092,-0.531,sad
3.60,3269,3280,3822,3311,3507,1232,3648,3638,0,0,0,0,0,0,0,0,1.290,4.372,8.930,0.093,0.035,-0.017,0.352,-5.926,11.380,0.763,-0.132,-0.623,sad
3.61,3325,3344,3841,3341,3515,977,3606,3577,0,0,0,0,0,0,0,0,1.252,4.334,9.005,0.088,0.032,-0.017,0.989,-5.097,9.629,0.862,-0.179,-0.705,sad
3.62,3344,3363,3855,3367,3523,816,3568,3513,0,0,0,0,0,0,0,0,1.269,4.422,8.969,0.081,0.038,-0.027,1.116,-3.984,7.975,0.533,-0.165,-0.890,sad
3.63,3388,3381,3859,3403,3550,758,3536,3450,0,0,0,0,0,0,0,0,1.240,4.369,8.887,0.079,0.035,-0.023,0.754,-3.819,8.076,0.330,-0.134,-1.097,sad
3.64,3422,3420,3881,3413,3520,713,3488,3414,0,0,0,0,0,0,0,0,1.223,4.427,8.981,0.069,0.040,-0.024,0.012,-3.898,8.528,0.155,-0.087,-1.069,sad
3.65,3441,3433,3891,3443,3510,594,3430,3346,0,0,0,0,0,0,0,0,1.176,4.374,8.942,0.063,0.040,-0.023,-1.209,-3.962,9.591,0.292,-0.172,-0.710,sad
3.66,3490,3453,3891,3478,3493,485,3365,3241,0,0,0,0,0,0,0,0,1.178,4.286,8.921,0.103,0.022,-0.019,-1.353,-2.835,8.231,0.202,-0.221,-0.109,sad
3.67,3508,3472,3907,3523,3477,455,3283,3093,0,0,0,0,0,0,0,0,1.231,4.436,8.880,0.074,0.040,-0.025,-0.778,-3.103,8.696,0.127,-0.361,0.110,sad
3.68,3542,3488,3905,3521,3461,306,3198,2883,0,0,0,0,0,0,0,0,1.262,4.420,8.885,0.073,0.038,-0.022,0.539,-2.835,8.179,0.022,-0.544,0.304,sad
3.69,3568,3513,3921,3547,3442,111,3127,2660,0,0,0,0,0,0,0,0,1.219,4.424,8.894,0.071,0.040,-0.021,1.111,-4.183,9.922,-0.100,-0.757,0.243,sad
3.70,3583,3533,3935,3567,3431,144,3088,2518,0,0,0,0,0,0,0,0,1.176,4.422,8.890,0.061,0.038,-0.024,1.975,-4.099,9.380,0.117,-0.700,0.155,sad
3.71,3623,3548,3940,3581,3433,46,3032,2448,0,0,0,0,0,0,0,0,1.219,4.456,8.921,0.057,0.038,-0.014,2.270,-2.928,7.175,-0.142,-0.166,-0.098,sad
3.72,3630,3543,3940,3606,3373,2,3002,2387,0,0,0,0,0,0,0,0,1.197,4.475,8.894,0.058,0.036,-0.016,6.311,-7.010,4.092,-0.368,0.448,-1.146,sad
3.73,3651,3543,3951,3606,3348,0,3024,2397,0,0,0,0,0,0,0,0,1.219,4.513,8.897,0.042,0.034,-0.010,3.278,-0.479,9.189,-0.440,0.748,-0.629,sad
3.74,3665,3546,3954,3617,3283,13,3041,2419,0,0,0,0,0,0,0,0,1.190,4.401,8.926,0.041,0.031,-0.013,2.004,0.649,10.017,-0.484,0.573,-0.652,sad
3.75,3671,3536,3943,3629,3184,0,2960,2378,0,0,0,0,0,0,0,0,1.223,4.434,8.926,0.052,0.030,-0.011,-1.405,0.072,10.008,-0.564,0.544,-0.049,sad
3.76,3687,3527,3952,3633,3021,0,2811,2240,0,0,0,0,0,0,0,0,1.300,4.405,8.892,0.058,0.043,-0.016,-1.214,0.091,10.089,-0.787,0.229,0.090,sad
3.77,3694,3519,3951,3645,2806,0,2594,1833,0,0,0,0,0,0,0,1788,1.207,4.417,8.894,0.088,0.046,-0.018,0.704,-1.939,9.965,-1.075,-0.253,0.223,sad
3.78,3708,3583,3958,3652,2673,0,2272,1283,0,0,0,0,0,0,0,2640,1.137,4.401,8.866,0.104,0.050,-0.027,2.406,-2.155,9.996,-0.964,-0.428,0.175,sad
3.79,3733,3526,3963,3664,2508,0,1905,189,0,0,0,0,0,0,0,2837,1.223,4.549,8.918,0.138,0.045,-0.025,2.011,-2.739,10.147,-0.932,-0.315,0.081,sad
3.80,3745,3530,3958,3667,2304,0,1490,0,0,0,0,0,0,0,558,3117,1.252,4.571,8.945,0.147,0.062,-0.030,2.875,-2.954,9.946,-0.970,-0.164,0.156,sad
3.81,3760,3507,3971,3697,2100,0,978,0,0,0,0,0,0,0,1270,3277,1.132,4.221,8.564,0.214,0.077,-0.006,2.782,-2.842,8.894,-0.666,0.089,0.157,sad
3.82,3763,3474,3969,3696,1919,0,481,0,0,0,0,0,0,0,1695,3357,1.154,4.465,8.863,0.265,0.077,0.003,2.715,-2.519,9.079,-0.766,0.011,0.113,sad
3.83,3776,3415,3970,3700,1572,0,39,0,0,0,0,0,0,0,2139,3487,1.154,4.535,8.871,0.264,0.096,-0.013,1.429,-3.790,10.075,-0.531,-0.052,0.127,sad
3.84,3799,3313,3979,3714,1434,0,0,0,0,0,0,0,0,0,2559,3542,0.986,4.463,8.899,0.293,0.072,-0.006,3.017,-2.928,8.918,-0.166,0.343,0.161,sad
3.85,3803,3227,3970,3728,1219,0,0,0,0,0,0,0,0,0,2729,3604,1.092,4.587,8.768,0.394,0.120,0.091,0.919,-2.887,10.288,-0.215,0.188,0.108,sad
3.86,3815,3139,3975,3716,1171,0,0,0,0,0,0,0,0,0,2729,3604,1.118,4.609,8.990,0.369,0.156,0.060,1.089,-3.783,9.993,0.007,0.230,0.175,sad
3.87,3822,3056,3968,3715,1110,0,0,0,0,0,0,0,0,0,2906,3710,1.099,4.705,8.861,0.436,0.126,0.106,1.707,-3.093,9.541,-0.012,0.187,0.114,sad
3.88,3827,2975,3966,3706,949,0,0,0,0,0,0,0,0,0,2906,3710,1.092,4.707,8.746,0.507,0.145,0.131,1.824,-3.062,9.438,0.005,0.221,0.127,sad
3.89,3842,2958,3973,3695,720,0,0,0,64,0,0,0,0,0,3127,3755,1.118,4.800,8.633,0.484,0.151,0.125,2.315,-3.371,9.488,0.052,0.146,0.106,sad
3.90,3847,2941,3966,3665,395,0,0,0,0,0,0,0,0,0,3200,3792,1.219,4.815,8.674,0.556,0.129,0.147,1.120,-3.512,10.065,0.052,0.063,0.023,sad
3.91,3838,2900,3967,3654,563,0,0,0,0,0,0,0,0,0,3326,3807,1.034,4.925,8.705,0.566,0.130,0.120,1.470,-3.139,9.740,0.071,0.027,-0.008,sad
3.92,3841,2854,3951,3619,218,0,0,0,0,0,0,0,0,0,3430,3831,1.058,4.997,8.679,0.617,0.147,0.133,1.544,-3.091,9.747,0.073,-0.013,-0.022,sad
3.93,3846,2818,3951,3567,272,0,0,0,0,0,0,0,0,0,3487,3841,0.895,5.162,8.626,0.602,0.121,0.131,1.913,-2.942,9.443,0.057,0.048,0.012,sad
3.94,3834,2807,3930,3511,7,0,0,0,0,0,0,0,0,0,3487,3841,1.137,5.100,8.617,0.677,0.127,0.139,1.652,-3.203,9.876,0.024,-0.059,-0.032,sad
3.95,3844,2703,3924,3435,0,0,0,0,0,0,0,0,0,0,3568,3856,1.147,5.219,8.473,0.684,0.152,0.135,1.918,-3.069,9.345,0.071,-0.074,-0.027,sad
3.96,3842,2698,3914,3343,0,0,0,0,0,0,0,0,0,0,3651,3865,1.010,5.262,8.399,0.717,0.152,0.126,1.568,-3.041,9.699,0.017,-0.072,-0.057,sad
3.97,3913,2659,3888,3275,0,0,0,0,0,0,0,0,69,0,3691,3871,1.149,5.406,8.286,0.759,0.132,0.135,1.937,-2.902,9.074,0.069,0.020,0.003,sad
3.98,3828,2672,3866,3229,0,0,0,0,0,0,0,0,81,0,3728,4002,1.104,5.495,8.224,0.755,0.153,0.116,2.215,-3.053,9.045,0.037,0.038,0.034,sad
3.99,3823,2633,3853,3213,0,0,0,0,0,0,0,0,162,0,3761,3910,1.027,5.423,8.262,0.789,0.209,0.103,1.894,-3.067,9.337,0.029,0.032,0.031,sad
4.00,3822,2544,3838,3191,0,0,0,0,0,0,0,0,166,0,3728,3974,1.192,5.600,8.459,0.823,0.238,0.087,1.884,-3.026,9.404,0.053,0.072,0.044,sad
4.01,3815,2513,3803,3164,0,0,0,0,0,0,0,0,268,0,3805,3975,1.089,5.622,8.246,0.853,0.180,0.074,1.877,-2.806,9.263,0.040,0.074,0.027,sad
4.02,3789,2484,3773,3093,0,0,0,0,0,0,0,0,358,0,3835,3834,1.070,5.710,8.095,0.882,0.181,0.033,1.377,-2.976,9.661,0.031,0.068,0.005,sad
4.03,3743,2448,3729,3045,0,0,0,0,0,0,0,0,491,0,3871,3944,1.077,6.005,8.083,0.916,0.153,0.009,1.748,-2.878,9.390,0.033,0.084,-0.007,sad
4.04,3690,2386,3668,3017,0,0,0,0,0,0,0,0,495,0,3893,3948,1.101,5.909,8.116,0.961,0.188,-0.017,1.604,-2.952,9.673,0.043,0.074,0.025,sad
4.05,3629,2313,3559,2929,0,0,0,0,0,0,0,0,567,0,3913,3927,0.982,5.986,8.452,1.046,0.113,-0.074,2.037,-3.031,9.242,0.058,0.097,0.006,sad
4.06,3469,2243,3450,2745,0,0,0,0,0,0,0,0,577,0,3986,3973,0.539,5.988,8.832,1.180,-0.176,-0.263,1.729,-3.086,9.555,0.031,0.087,-0.006,sad
4.07,3287,2150,3231,2557,0,0,0,0,0,0,0,0,577,0,3962,3985,0.910,6.395,8.253,1.283,-0.521,-0.469,1.824,-2.971,9.570,0.048,0.130,0.034,sad
4.08,3173,1968,3018,2317,0,0,0,0,0,2,0,0,761,0,3851,4095,0.309,7.101,9.977,1.389,-0.917,-0.552,1.841,-2.942,9.316,0.058,0.124,0.033,sad
4.09,3023,1811,2797,1990,0,0,0,0,0,2,0,0,761,0,3999,4003,1.298,6.694,9.787,1.635,-1.163,-0.742,1.468,-3.038,9.969,0.025,0.114,0.026,sad
4.10,2813,1430,2519,1450,0,0,0,0,0,0,0,0,845,0,4013,4023,1.166,7.010,10.108,1.847,-1.432,-0.957,0.989,-3.026,10.374,0.001,-0.002,-0.006,sad
4.11,2337,591,1535,470,0,0,0,0,0,0,163,0,1226,0,4031,4016,1.695,7.851,9.821,2.145,-1.673,-1.290,1.563,-3.010,9.948,-0.005,-0.104,-0.071,sad
4.12,1618,0,85,0,0,0,0,0,0,68,0,0,1840,0,4089,3989,1.985,6.946,10.379,1.534,-1.065,-1.553,1.592,-2.806,9.577,-0.048,-0.146,-0.129,sad
4.13,1101,0,0,0,0,0,0,0,0,0,0,0,2197,0,4078,3984,1.470,4.451,11.296,0.795,-0.586,-1.683,2.162,-2.794,9.266,0.071,-0.102,-0.120,sad
4.14,467,0,0,0,0,0,0,0,0,17,0,0,2506,0,4095,3951,1.614,2.320,10.604,0.161,-0.383,-1.789,1.915,-3.211,9.653,-0.003,-0.133,-0.195,sad
4.15,382,0,0,0,0,0,0,0,0,528,0,0,2723,0,4058,4051,1.056,3.737,11.947,-0.459,-0.318,-1.334,1.946,-2.744,9.397,0.032,-0.111,-0.098,sad
4.16,475,0,0,0,0,0,0,0,0,487,0,0,2854,0,4095,3834,1.927,2.349,9.764,-0.804,-0.327,-1.244,1.544,-3.079,9.258,-0.059,-0.162,-0.146,sad
4.17,590,0,0,0,0,0,0,0,0,624,0,0,2975,0,4095,3762,1.465,1.666,8.715,-0.985,-0.310,-1.050,2.346,-2.334,8.813,-0.040,-0.071,-0.044,sad
4.18,640,0,0,0,0,0,0,0,0,719,0,0,3088,0,4095,3707,1.417,2.358,8.088,-1.114,-0.310,-0.926,2.164,-2.617,9.184,-0.045,0.039,-0.005,sad
4.19,687,0,0,0,0,0,0,0,0,1050,0,0,3170,0,4095,3737,1.391,2.358,8.375,-1.270,-0.313,-0.805,1.906,-2.859,9.373,-0.058,0.064,0.039,sad
4.20,669,0,0,0,0,0,0,0,0,943,0,32,3323,0,4095,3718,1.688,2.696,8.485,-1.425,-0.304,-0.669,2.243,-2.959,8.957,-0.001,0.140,0.097,sad
4.21,645,0,0,0,0,0,0,0,0,1111,0,0,3299,0,4095,3729,1.695,2.883,8.363,-1.559,-0.304,-0.514,1.681,-3.048,9.510,-0.044,0.138,0.082,sad
4.22,626,0,0,0,0,0,0,0,0,1295,0,0,3350,0,4095,3728,1.674,3.158,7.944,-1.617,-0.308,-0.381,2.145,-2.806,8.928,-0.040,0.200,0.125,sad
4.23,640,0,0,0,0,0,0,0,0,1331,0,0,3406,0,4095,3683,1.743,3.436,7.903,-1.604,-0.316,-0.204,1.954,-3.026,9.093,-0.005,0.267,0.133,sad
4.24,670,0,0,0,0,0,0,0,0,1459,63,0,3470,0,4095,3693,1.920,3.972,8.186,-1.533,-0.341,0.025,1.865,-3.038,9.263,0.019,0.305,0.134,sad
4.25,637,0,0,0,0,0,0,0,0,1517,314,0,3486,0,4095,3680,2.162,5.033,9.333,-1.511,-0.345,0.266,1.786,-3.132,9.175,0.005,0.311,0.140,sad
4.26,626,0,0,0,0,0,0,0,0,1578,813,0,3365,0,4095,3686,2.358,6.017,10.187,-1.640,-0.290,0.443,1.628,-3.043,9.337,-0.029,0.311,0.160,sad
4.27,642,0,0,0,0,0,0,0,0,1602,1407,0,3541,0,4095,3696,2.265,6.242,9.689,-1.747,-0.120,0.551,1.678,-2.964,9.067,0.073,0.377,0.174,sad
4.28,658,0,0,0,0,0,0,0,0,1823,2052,0,3599,0,4095,3682,2.294,6.345,8.681,-1.717,-0.082,0.602,1.678,-2.966,9.479,0.174,0.424,0.166,sad
4.29,679,0,0,0,0,0,0,0,0,1758,2252,0,3626,0,4095,3698,2.763,6.737,8.459,-1.587,-0.106,0.636,1.322,-3.251,9.737,-0.048,0.307,0.146,sad
4.30,694,0,0,0,0,0,0,0,0,1951,2318,0,3648,0,4095,3709,3.352,6.967,8.203,-1.455,-0.106,0.669,1.544,-3.074,9.438,0.052,0.347,0.172,sad
4.31,688,0,0,0,0,0,0,0,0,2034,2423,0,3666,0,4095,3727,3.668,6.888,7.884,-1.301,-0.072,0.724,1.602,-2.962,9.009,0.040,0.414,0.179,sad
4.32,755,0,0,0,0,0,0,0,0,2060,2505,0,3690,0,4095,3743,3.800,7.226,8.317,-1.116,-0.093,0.815,1.322,-2.892,9.136,0.031,0.504,0.200,sad
4.33,752,0,0,0,0,0,0,0,0,2146,2648,0,3923,0,4095,3764,3.725,7.460,8.847,-1.071,-0.098,0.891,1.422,-3.026,9.744,0.084,0.581,0.257,sad
4.34,811,0,0,0,0,0,0,0,0,2171,2677,0,3678,0,4095,3775,3.417,7.003,8.531,-1.010,-0.124,0.928,1.331,-3.170,10.889,0.085,0.383,0.228,sad
4.35,816,0,0,0,0,0,0,0,0,2227,2756,0,3680,0,4095,3778,2.911,6.668,8.339,-0.890,-0.201,0.925,1.080,-3.306,9.409,-0.015,0.195,0.059,sad
4.36,832,0,0,0,0,0,0,0,0,2277,2822,0,3687,0,4095,3769,2.653,7.341,9.481,-0.834,-0.333,0.967,0.939,-3.218,9.809,0.017,0.103,0.088,sad
4.37,855,0,0,0,0,0,0,0,0,2325,2792,0,3703,0,4095,3765,2.274,7.099,9.668,-0.912,-0.362,0.964,1.183,-3.072,9.328,-0.030,0.042,0.042,sad
4.38,912,0,0,0,0,0,0,0,0,2226,2784,0,3727,0,4095,3767,1.750,6.790,9.100,-0.948,-0.332,0.935,1.142,-2.904,9.572,0.012,0.086,0.058,sad
4.39,935,0,0,0,0,0,0,0,0,2400,2812,0,3731,0,4095,3743,1.389,6.436,8.686,-0.919,-0.262,0.879,1.094,-3.108,9.694,-0.043,0.030,0.029,sad
4.40,967,0,0,0,0,0,0,0,0,2451,2597,0,3749,0,4095,3735,1.358,6.500,8.653,-0.863,-0.200,0.805,1.183,-3.007,9.483,-0.001,0.039,0.052,sad
4.41,997,0,0,0,0,0,0,0,0,2483,2810,0,3759,0,4095,3726,1.343,6.421,8.449,-0.833,-0.166,0.731,1.202,-3.062,9.318,-0.019,0.040,0.038,sad
4.42,999,0,0,0,0,0,0,0,0,2495,2825,0,3781,0,4095,3728,1.733,6.421,8.241,-0.779,-0.124,0.675,0.962,-3.014,9.546,-0.002,0.040,0.045,sad
4.43,1009,0,0,0,0,0,0,0,0,2493,2825,0,3793,0,4095,3675,2.071,6.455,8.205,-0.729,-0.060,0.652,1.061,-2.964,9.304,-0.016,0.027,0.053,sad
4.44,1020,0,0,0,0,0,0,0,0,2534,2825,0,3809,0,4095,3678,2.387,6.529,7.977,-0.675,0.030,0.678,1.166,-3.091,9.234,-0.032,0.020,0.042,sad
4.45,1076,0,0,0,0,0,0,0,0,2559,2846,0,3842,0,4095,3662,2.444,6.409,7.908,-0.586,0.108,0.713,1.125,-3.179,9.483,-0.066,0.013,0.031,sad
4.46,1068,0,0,0,0,0,0,0,0,2597,2879,0,3878,0,4095,3648,2.289,6.797,8.509,-0.529,0.099,0.793,1.137,-3.079,9.433,-0.059,0.016,0.040,sad
4.47,1062,0,0,0,0,0,0,0,0,2627,2907,0,3888,0,4095,3648,2.389,6.881,8.552,-0.566,0.092,0.895,1.106,-3.026,9.340,-0.057,0.036,0.037,sad
4.48,1104,0,0,0,0,0,0,0,0,2605,2907,0,3911,0,4095,3598,2.528,6.278,7.678,-0.529,0.138,0.992,1.168,-3.077,9.450,-0.080,0.046,0.045,sad
4.49,1122,0,0,0,0,0,0,0,0,2701,2948,0,3937,0,4095,3600,2.588,5.792,7.068,-0.394,0.245,1.069,1.132,-3.134,9.567,-0.094,0.059,0.045,sad
4.50,1147,0,0,0,0,0,0,0,0,2764,2961,29,3938,0,4049,3566,2.480,5.744,7.207,-0.240,0.328,1.155,1.082,-3.148,9.445,-0.097,0.050,0.047,sad
4.51,1153,0,0,0,0,0,0,0,0,2784,2963,336,3957,0,3995,3526,2.148,5.792,7.460,-0.140,0.367,1.254,1.274,-3.160,9.467,-0.086,0.070,0.056,sad
4.52,1186,0,0,0,0,0,0,0,0,2844,2989,680,3978,0,4095,3469,1.875,5.499,7.360,-0.075,0.409,1.348,1.171,-3.055,9.560,-0.116,0.077,0.066,sad
4.53,1232,0,0,0,0,0,0,0,0,2896,2999,866,3984,0,4084,3389,1.702,5.131,7.479,0.041,0.479,1.420,1.051,-3.244,9.481,-0.117,0.095,0.061,sad
4.54,1264,0,0,0,0,0,0,0,0,2912,2999,973,3991,0,3955,3361,1.709,4.721,7.810,0.111,0.608,1.444,1.061,-3.213,9.553,-0.092,0.074,0.077,sad
4.55,1269,0,0,0,0,0,0,0,0,3009,3066,1232,4010,0,3991,3313,1.202,4.700,8.416,0.140,0.685,1.410,1.101,-3.237,9.400,-0.070,0.079,0.076,sad
4.56,1264,0,0,0,0,0,0,0,0,2868,3071,1365,3841,0,3855,3281,0.417,4.647,8.401,0.117,0.652,1.321,1.109,-3.172,9.529,-0.095,0.094,0.085,sad
4.57,1325,0,0,0,0,0,0,0,0,3131,3109,1603,4095,0,3970,3247,-0.330,4.405,7.901,0.138,0.510,1.184,1.128,-3.230,9.337,-0.065,0.083,0.091,sad
4.58,1327,0,0,0,0,0,0,0,0,3157,3142,1855,4020,0,3979,3191,-0.725,4.769,8.545,0.196,0.315,0.996,1.049,-3.223,9.402,-0.086,0.065,0.092,sad
4.59,1344,0,0,0,0,0,0,0,0,3184,3176,2000,4038,0,3984,3138,-0.797,5.013,9.471,0.112,0.137,0.751,0.972,-3.352,9.548,-0.043,0.081,0.099,sad
4.60,1360,0,0,0,0,0,0,0,0,3239,3140,2194,4027,0,3961,3119,-0.848,4.791,9.268,-0.022,0.055,0.469,1.003,-3.421,9.402,-0.051,0.057,0.068,sad
4.61,1387,0,0,0,0,0,0,0,0,3280,3242,2291,4033,0,3921,3088,-0.668,4.226,8.317,-0.030,-0.127,0.054,0.979,-3.304,9.558,-0.068,0.039,0.052,sad
4.62,1407,0,0,0,0,0,0,0,0,3333,3227,2356,4054,0,3952,3043,0.036,4.482,8.538,0.007,-0.343,-0.171,1.044,-3.273,9.507,-0.062,0.055,0.061,sad
4.63,1399,0,0,0,0,0,0,0,0,3355,3250,2478,4059,0,3952,2978,0.778,4.307,8.152,0.006,-0.301,-0.294,0.979,-3.393,9.424,-0.044,0.057,0.050,sad
4.64,1451,0,0,0,0,0,0,0,0,3430,3270,2592,4061,0,3940,2926,0.747,4.841,8.282,0.125,-0.281,-0.236,0.979,-3.361,9.572,-0.033,0.046,0.041,sad
4.65,1467,0,0,0,0,0,0,0,0,3459,3322,2673,4074,0,3927,2843,4.254,0.742,5.361,0.824,0.672,0.199,0.855,-3.287,9.469,-0.029,0.038,0.045,sad
4.66,1340,0,0,0,0,0,0,0,0,3451,3304,2640,4075,0,3891,2767,1.530,4.410,10.542,0.215,1.990,0.030,0.915,-3.254,9.527,-0.055,0.029,0.040,sad
4.67,1153,0,0,0,0,0,0,0,0,3482,3304,2507,4073,0,3883,2834,-0.208,1.003,9.658,0.471,1.228,0.438,0.955,-3.417,9.498,-0.052,0.035,0.044,sad
4.68,1205,0,0,0,0,0,0,0,0,3502,3301,2623,4085,0,3567,2624,0.517,1.034,8.976,0.766,0.787,0.695,0.994,-3.373,9.488,-0.056,0.035,0.038,sad
4.69,1134,0,0,0,0,0,0,0,0,3534,3314,2616,4079,0,4048,2475,-1.793,2.334,10.721,0.924,0.419,0.735,0.958,-3.400,9.400,-0.049,0.050,0.050,sad
4.70,1106,0,0,0,0,0,128,1090,0,3583,3316,2630,4090,0,3780,1821,-3.682,3.036,10.592,0.757,0.243,0.186,1.001,-3.438,9.450,-0.080,0.038,0.062,sad
4.71,1119,0,0,0,0,0,426,1712,0,3583,3316,2663,4091,0,3716,654,-1.937,2.389,9.292,0.876,-0.034,-0.365,1.094,-3.481,9.424,-0.087,0.056,0.059,sad
4.72,1150,0,0,0,0,0,731,1921,0,3630,3319,2645,4095,0,3651,847,2.042,3.103,8.519,1.078,-0.222,-0.451,0.955,-3.426,9.407,-0.065,0.052,0.050,sad
4.73,1145,0,0,0,0,0,1138,1986,0,3671,3357,2742,4075,0,3525,784,1.748,5.286,10.364,1.006,-0.415,-0.408,1.003,-3.620,9.383,-0.064,0.096,0.067,sad
4.74,1390,0,0,0,0,0,1623,2268,0,3700,3071,2754,3971,0,3485,662,5.121,7.082,8.847,0.189,-0.026,-0.104,0.845,-3.555,9.483,-0.058,0.000,0.015,sad
4.75,1609,0,0,0,0,0,1884,2559,0,3702,3406,2726,4048,0,3248,437,-1.199,4.513,13.740,0.425,0.440,-0.475,0.989,-3.486,9.452,-0.030,0.047,0.045,sad
4.76,1847,166,242,0,0,0,1966,2809,128,3741,3355,2743,4011,0,2960,274,2.222,4.518,9.041,0.288,0.035,-0.234,0.876,-3.527,9.383,-0.077,0.028,0.042,sad
4.77,2022,400,618,0,113,0,2079,2999,247,3735,3355,2737,3932,0,2497,64,0.802,4.231,9.412,0.248,0.026,-0.162,0.879,-3.663,9.421,-0.092,0.040,0.091,sad
4.78,2121,727,1001,258,387,0,2201,3138,301,3736,3365,2702,3882,0,2125,67,1.135,4.302,9.266,0.196,0.015,-0.128,0.876,-3.601,9.304,-0.083,0.013,0.074,sad
4.79,2212,978,1325,465,550,0,2355,3242,243,3754,2771,2593,3715,0,1231,0,1.350,4.401,9.136,0.120,0.028,-0.068,0.819,-3.594,9.330,-0.076,0.013,0.086,sad
4.80,2319,1149,1758,577,591,0,2471,3317,279,3738,3355,2631,3533,0,487,0,1.463,4.274,9.086,0.109,0.048,-0.060,0.946,-3.615,9.424,-0.073,0.028,0.083,sad
4.81,2355,1297,2091,894,656,0,2587,3373,394,3719,3370,2506,3216,0,0,0,1.305,4.276,8.954,0.115,0.007,-0.048,0.838,-3.543,9.352,-0.081,0.018,0.067,sad
4.82,2407,1445,2343,1297,944,0,2670,3435,506,3693,3368,2507,3042,0,0,0,1.355,4.345,9.057,0.074,0.059,-0.045,0.828,-3.656,9.531,-0.358,-0.113,-0.099,sad
4.83,2450,1557,2497,1580,1174,0,2778,3479,687,3638,3360,2559,2845,0,0,0,1.255,4.276,9.062,0.064,0.070,-0.049,0.819,-3.598,9.227,-0.401,0.088,-0.012,sad
4.84,2499,1651,2650,1740,1232,0,2863,3531,720,3637,3316,2602,2692,0,0,0,1.183,4.286,9.079,0.068,0.068,-0.041,0.766,-3.735,9.431,-0.379,0.028,-0.025,sad
4.85,2543,1758,2765,1877,1424,0,2944,3572,921,3654,3334,2657,2263,0,0,0,1.226,4.293,9.024,0.066,0.047,-0.040,0.802,-3.926,9.309,-0.375,0.066,-0.045,sad
4.86,2586,1835,2850,2074,1495,0,3034,3609,845,3762,3529,2607,1782,0,0,0,1.252,4.235,9.091,0.071,0.042,-0.043,0.809,-4.063,9.172,-0.333,0.030,-0.054,sad
4.87,2609,1907,2924,2192,1399,0,3111,3633,853,3647,3345,2512,1500,0,0,0,1.302,4.221,8.926,0.074,-0.005,-0.047,0.838,-4.132,9.122,-0.331,0.028,-0.063,sad
4.88,2646,1995,2983,2330,1421,0,3186,3669,829,3583,3316,2291,807,0,0,0,1.264,4.281,8.947,0.082,0.031,-0.034,0.898,-4.223,9.014,-0.320,0.045,-0.054,sad
4.89,2693,2106,3057,2458,1601,0,3268,3696,975,3552,3309,2108,511,0,0,0,1.113,4.480,8.985,0.064,0.044,-0.009,0.919,-4.197,9.160,-0.344,0.078,-0.029,sad
4.90,2704,2239,3149,2559,1703,0,3347,3731,930,3494,3316,2077,430,0,0,0,1.235,4.499,9.208,0.055,0.049,0.016,1.238,-4.475,9.045,-0.355,0.136,0.008,sad
4.91,2705,2333,3211,2629,1920,0,3431,3765,944,3478,3273,1979,190,0,0,0,1.286,4.214,8.892,0.027,-0.041,0.052,1.379,-4.262,8.921,-0.408,0.104,0.032,sad
4.92,2704,2410,3266,2668,2042,83,3505,3794,775,3165,3191,1696,35,0,0,0,1.279,4.178,8.950,0.023,-0.006,0.013,0.661,-4.204,9.191,-0.592,0.051,0.019,sad
4.93,2704,2494,3301,2704,2178,337,3546,3824,720,3024,3227,1326,7,0,0,0,1.293,4.281,9.050,0.046,0.011,-0.006,0.570,-4.104,9.268,-0.706,-0.005,0.006,sad
4.94,2704,2546,3341,2724,2350,479,3600,3851,418,2864,3104,368,0,0,0,0,1.199,4.259,8.940,0.007,-0.049,0.025,0.699,-4.252,9.210,-0.989,-0.082,-0.080,sad
4.95,2697,2618,3377,2709,2455,763,3648,3855,321,2479,2380,0,0,0,0,0,1.386,4.171,8.973,0.019,-0.066,0.024,0.757,-4.434,9.515,-1.417,-0.152,-0.094,sad
4.96,2658,2653,3417,2735,2618,1023,3695,3877,430,2162,1955,0,0,0,0,0,1.295,4.223,8.911,0.039,-0.037,0.018,1.427,-4.944,9.740,-1.587,-0.262,-0.115,sad
4.97,2693,2722,3445,2736,2736,1230,3722,3886,192,1412,0,0,0,0,0,0,1.319,4.130,8.997,0.035,-0.022,-0.002,0.043,-5.001,10.151,-2.425,-0.808,-0.035,sad
4.98,2717,2787,3476,2749,2838,1248,3758,3890,0,753,0,0,0,0,0,0,1.365,4.197,8.957,0.049,0.006,-0.022,-0.730,-7.870,10.546,-2.885,-1.773,-0.011,sad
4.99,2739,2835,3509,2795,2950,1293,3777,3901,0,239,0,0,0,0,0,0,1.331,4.322,8.976,0.072,0.024,-0.026,1.448,-7.503,9.366,-2.558,-2.119,0.079,sad
5.00,2765,2878,3536,2847,3003,1424,3815,3903,0,0,0,0,0,0,0,0,1.358,4.444,9.189,0.073,0.024,-0.016,4.118,-5.418,10.285,-1.124,-0.968,0.610,sad
5.01,2785,2918,3553,2883,3113,1515,3792,3907,0,0,0,0,0,0,0,0,1.372,4.357,9.021,0.034,-0.003,0.005,0.251,-1.621,9.364,-0.589,0.730,1.343,sad
5.02,2791,2970,3582,2869,3191,1469,3795,3904,0,0,0,0,0,0,0,0,1.247,4.005,8.832,0.024,-0.024,0.006,-3.543,-6.986,10.652,-0.082,0.774,1.563,sad
5.03,2782,3007,3583,2863,3246,1369,3808,3906,0,0,0,0,0,0,0,0,1.374,4.183,9.012,0.042,-0.006,-0.002,1.243,-2.698,8.648,1.088,0.316,2.067,sad
5.04,2781,3050,3607,2847,3281,1200,3818,3894,0,0,0,0,0,0,0,0,1.348,4.350,9.115,0.051,-0.007,0.002,2.777,-2.569,7.276,1.309,0.705,2.112,sad
5.05,2773,3125,3638,2819,3363,1105,3827,3883,0,0,0,0,0,0,0,0,1.494,4.202,8.947,0.045,-0.055,0.040,3.517,-2.667,7.312,1.519,0.846,1.914,sad
5.06,2736,3174,3662,2800,3383,1034,3827,3871,0,0,0,0,0,0,0,0,1.367,4.149,8.792,0.083,-0.134,0.054,3.847,-3.156,7.518,1.641,0.670,1.097,sad
5.07,2734,3222,3696,2789,3409,943,3829,3850,0,0,0,0,0,0,0,0,1.470,4.286,9.007,0.067,-0.011,-0.001,3.385,-4.513,9.088,1.680,0.187,0.179,sad
5.08,2737,3270,3693,2791,3426,862,3839,3827,0,0,0,0,0,0,0,0,1.508,4.353,8.839,0.051,-0.014,-0.010,2.988,-4.798,9.538,1.812,-0.038,-0.217,sad
5.09,2763,3325,3716,2815,3479,887,3841,3822,0,0,0,0,0,0,0,0,1.547,4.238,8.959,0.058,0.000,-0.012,1.970,-4.824,8.722,1.774,-0.240,-0.714,sad
5.10,2768,3371,3735,2819,3519,958,3834,3807,0,0,0,0,0,0,0,0,1.484,4.456,9.139,0.061,-0.015,-0.001,1.164,-5.363,9.237,1.619,-0.411,-0.773,sad
5.11,2778,3408,3743,2794,3559,943,3844,3756,0,0,0,0,0,0,0,0,1.547,4.245,8.916,0.056,-0.026,-0.004,1.077,-5.571,9.974,1.611,-0.518,-0.769,sad
5.12,2780,3440,3745,2766,3615,897,3839,3817,0,0,0,0,0,0,0,0,1.439,4.175,8.770,0.047,-0.016,-0.003,0.958,-6.060,10.247,1.621,-0.528,-0.658,sad
5.13,2775,3483,3748,2750,3661,790,3845,3735,0,0,0,0,0,0,0,0,1.609,4.288,8.959,0.067,-0.009,0.002,0.802,-5.717,9.184,1.575,-0.437,-0.478,sad
5.14,2803,3520,3751,2755,3696,751,3835,3702,0,0,0,0,0,0,0,0,1.422,4.240,8.950,0.068,-0.006,-0.014,0.919,-5.483,8.667,1.455,-0.364,-0.399,sad
5.15,2785,3563,3761,2768,3723,627,3839,3678,0,0,0,0,0,0,0,0,1.573,4.286,8.935,0.067,0.007,-0.003,0.563,-5.708,10.448,1.208,-0.149,-0.187,sad
5.16,2783,3600,3770,2751,3744,526,3829,3632,0,0,0,0,0,0,0,0,1.444,4.290,8.942,0.064,0.000,-0.001,0.160,-6.074,10.455,1.249,-0.498,-0.125,sad
5.17,2786,3631,3783,2774,3769,474,3813,3561,0,0,0,0,0,0,0,0,1.518,4.101,8.756,0.085,-0.003,-0.007,0.723,-5.557,9.179,1.245,-0.610,-0.126,sad
5.18,2809,3659,3790,2800,3799,390,3810,3482,0,0,0,0,0,0,0,0,1.602,4.319,8.873,0.079,0.012,-0.015,1.405,-5.344,8.729,0.894,-0.313,-0.161,sad
5.19,2823,3696,3799,2821,3825,304,3795,3334,0,0,0,0,0,0,0,0,1.556,4.293,8.897,0.083,0.015,-0.011,1.142,-4.932,7.793,0.644,-0.013,-0.334,sad
5.20,2851,3718,3817,2848,3854,235,3782,3184,0,0,0,0,0,0,0,0,1.487,4.240,8.842,0.091,-0.007,-0.011,1.123,-5.274,9.629,0.474,-0.002,-0.425,sad
5.21,2869,3746,3820,2893,3872,175,3767,3115,0,0,0,0,0,0,0,0,1.566,4.343,8.894,0.083,0.038,-0.022,0.448,-6.038,10.554,0.620,-0.097,-0.564,sad
5.22,2897,3759,3830,2923,3891,176,3746,3120,0,0,0,0,0,0,0,0,1.587,4.312,8.945,0.083,0.042,-0.022,0.723,-4.530,7.954,0.509,-0.255,-0.690,sad
5.23,2919,3765,3850,2967,3897,41,3726,3110,0,0,0,0,0,0,0,0,1.614,4.314,8.904,0.082,0.048,-0.016,1.168,-4.436,7.824,0.324,-0.151,-0.784,sad
5.24,2983,3780,3854,3018,3905,0,3703,3102,0,0,0,0,0,0,0,0,1.556,4.417,8.938,0.072,0.051,-0.021,1.130,-4.410,8.715,0.053,0.087,-0.943,sad
5.25,2965,3798,3866,3030,3911,0,3696,3083,0,0,0,0,0,0,0,0,1.487,4.384,8.873,0.076,0.043,-0.030,0.168,-5.248,10.266,0.001,0.018,-1.025,sad
5.26,2999,3813,3870,3066,3911,0,3664,3038,0,0,0,0,0,0,0,0,1.554,4.398,8.856,0.076,0.038,-0.028,-0.220,-4.243,9.179,0.225,-0.237,-0.923,sad
5.27,3013,3824,3886,3098,3926,0,3633,2993,0,0,0,0,0,0,0,0,1.580,4.331,8.894,0.072,0.038,-0.026,-1.549,-3.864,9.038,0.234,-0.405,-0.746,sad
5.28,3046,3834,3889,3120,3923,0,3600,2981,0,0,0,0,0,0,0,0,1.511,4.472,8.885,0.080,0.029,-0.027,-1.571,-3.687,8.267,0.177,-0.626,-0.245,sad
5.29,3066,3835,3890,3139,3922,0,3568,2985,0,0,0,0,0,0,0,0,1.544,4.393,8.916,0.056,0.038,-0.019,-0.680,-4.334,9.589,0.140,-0.529,0.266,sad
5.30,3098,3852,3891,3167,3932,0,3553,3006,0,0,0,0,0,0,0,0,1.551,4.417,8.880,0.051,0.042,-0.020,-0.510,-4.183,9.203,0.175,-0.534,0.406,sad
5.31,3122,3854,3901,3171,3924,0,3541,3024,0,0,0,0,0,0,0,0,1.506,4.410,8.866,0.052,0.038,-0.018,1.221,-3.771,7.954,-0.254,-0.126,0.319,sad
5.32,3138,3902,3909,3189,3920,0,3551,3068,0,0,0,0,0,0,0,0,1.482,4.492,8.928,0.041,0.041,-0.012,1.743,-2.179,9.577,-0.235,0.800,0.262,sad
5.33,3158,3862,3906,3198,3922,0,3555,3091,0,0,0,0,0,0,0,0,1.484,4.331,8.880,0.043,0.038,-0.016,1.877,-2.152,9.967,-0.265,0.236,-0.276,sad
5.34,3168,3879,3911,3211,3931,0,3546,3093,0,0,0,0,0,0,0,86,1.516,4.389,8.921,0.051,0.033,-0.015,3.577,-1.125,9.922,-0.438,0.036,-0.428,sad
5.35,3187,3874,3920,3222,3924,0,3504,3056,0,0,0,0,0,0,0,11,1.525,4.350,8.928,0.067,0.030,-0.020,1.468,-1.568,9.179,-0.788,0.202,-0.376,sad
5.36,3215,3890,3920,3234,3919,0,3433,2983,0,0,0,0,0,0,0,0,1.516,4.417,8.885,0.072,0.030,-0.026,-0.089,-1.101,10.949,-0.978,0.717,0.242,sad
5.37,3242,3884,3919,3242,3903,0,3361,2768,0,0,0,0,0,0,0,11,1.508,4.369,8.856,0.086,0.036,-0.028,-1.750,-1.154,11.439,-1.068,0.356,0.256,sad
5.38,3278,3902,3935,3261,3878,0,3278,2417,0,0,0,0,0,0,113,1124,1.499,4.398,8.892,0.092,0.030,-0.032,1.877,-3.297,9.256,-1.087,-0.057,0.301,sad
5.39,3291,3903,3926,3280,3832,0,3184,1959,0,0,0,0,0,0,816,2001,1.535,4.441,8.887,0.098,0.030,-0.033,1.717,-2.313,8.918,-0.993,-0.060,0.159,sad
5.40,3329,3903,3938,3291,3731,0,3056,1490,0,0,0,0,0,0,1296,2246,1.484,4.436,8.844,0.105,0.039,-0.035,-1.604,-6.665,12.567,0.462,0.737,0.539,sad
5.41,3358,3895,3936,3303,3583,0,2874,652,0,0,0,0,0,0,1984,2706,1.700,4.492,9.153,0.141,0.186,-0.060,1.013,-3.160,10.776,-0.188,-0.218,-0.076,sad
5.42,3387,3899,3938,3328,3281,0,2526,0,0,0,0,0,0,0,2340,2967,1.518,4.551,8.957,0.112,0.064,-0.030,1.516,-3.431,9.347,-0.068,-0.256,-0.088,sad
5.43,3424,3858,3943,3346,2870,0,2117,0,0,0,0,0,0,0,2523,3056,1.487,4.559,8.930,0.115,0.112,-0.043,1.923,-3.687,10.439,-0.013,-0.292,-0.044,sad
5.44,3444,3767,3945,3376,2678,0,1603,0,0,39,0,0,0,0,2826,3223,1.391,4.475,8.806,0.123,0.113,-0.052,1.468,-3.316,9.809,-0.039,-0.514,-0.221,sad
5.45,3487,3824,3947,3393,2499,0,1241,0,0,48,0,0,0,0,3119,3352,1.434,4.547,8.969,0.118,0.089,-0.074,2.351,-3.206,9.347,-0.008,-0.399,-0.179,sad
5.46,3533,3799,3943,3405,2288,0,889,0,0,66,0,0,0,0,3210,3400,1.331,4.506,8.971,0.141,0.060,-0.083,1.812,-3.682,9.773,-0.098,-0.438,-0.218,sad
5.47,3557,3780,3939,3389,2123,0,576,0,0,111,0,0,29,0,3391,3499,1.372,4.539,8.835,0.204,0.024,-0.043,2.164,-3.012,9.443,0.018,-0.259,-0.147,sad
5.48,3568,3747,3942,3375,1855,0,459,0,0,91,0,0,80,0,3468,3536,1.334,4.654,8.971,0.316,0.057,0.033,1.822,-3.268,9.711,0.011,-0.263,-0.119,sad
5.49,3583,3711,3925,3341,1692,0,405,0,0,165,0,0,360,0,3203,3621,1.389,4.518,8.844,0.361,0.061,0.042,2.545,-2.875,8.583,0.029,-0.132,-0.094,sad
5.50,3602,3661,3915,3311,1446,0,289,0,0,176,0,0,240,0,3632,3685,1.458,4.664,8.753,0.418,0.070,0.068,1.935,-3.534,9.737,0.028,-0.097,-0.087,sad
5.51,3617,3572,3903,3245,1424,0,117,0,0,144,0,0,384,0,3696,3729,1.470,4.731,8.830,0.463,0.127,0.075,2.703,-3.203,9.131,0.094,-0.073,-0.099,sad
5.52,3639,3436,3861,3199,1139,0,0,0,0,101,0,0,418,0,3744,3758,1.568,4.707,8.729,0.525,0.133,0.098,2.025,-3.136,9.380,0.142,-0.039,-0.105,sad
5.53,3632,3281,3824,3059,848,0,0,0,0,90,0,0,554,0,3761,3790,1.374,5.021,8.650,0.602,0.124,0.084,2.442,-3.400,9.706,0.018,-0.142,-0.146,sad
5.54,3610,3119,3696,2838,573,0,0,0,0,109,0,0,593,0,3814,3827,1.305,4.721,8.722,0.697,0.081,0.058,2.097,-2.940,9.469,0.027,-0.190,-0.191,sad
5.55,3537,2827,3658,2416,57,0,0,0,0,66,0,0,688,0,3847,3856,1.420,4.896,8.947,0.909,0.001,-0.057,2.887,-2.962,8.636,0.122,-0.128,-0.140,sad
5.56,3403,2338,3449,1835,0,0,0,0,0,0,0,0,915,0,3905,3918,1.271,4.760,9.151,1.264,-0.208,-0.105,2.509,-3.096,9.601,0.037,-0.114,-0.104,sad
5.57,3122,1648,3002,1017,0,0,0,0,0,0,0,0,1041,0,3966,3958,1.496,5.555,9.584,1.614,-0.590,-0.232,2.988,-2.684,8.717,0.137,-0.017,0.004,sad
5.58,2759,1264,2320,418,0,0,0,0,0,0,0,0,1021,0,3984,4002,0.941,5.346,9.594,1.986,-0.968,-0.410,2.715,-2.763,9.237,0.099,0.034,0.012,sad
5.59,2401,956,1618,27,0,0,0,0,0,0,0,0,1015,0,4000,4002,0.819,6.199,11.545,2.044,-1.541,-0.580,3.323,-2.734,8.440,0.150,0.108,0.050,sad
5.60,2011,431,923,0,0,0,0,0,0,0,0,0,1041,0,4009,4038,2.368,5.720,10.001,1.788,-1.472,-0.857,1.891,-2.942,9.799,0.080,0.090,-0.033,sad
5.61,1611,176,0,0,0,0,0,0,0,0,0,0,1194,0,4025,4043,-0.649,4.518,12.208,1.304,-1.221,-1.034,2.411,-2.722,9.337,0.083,0.085,0.030,sad
5.62,1283,0,0,0,0,0,0,0,0,0,0,0,1365,0,4065,4070,1.647,4.793,10.989,0.786,-0.699,-1.448,2.727,-2.998,9.031,0.088,0.119,-0.011,sad
5.63,886,0,0,0,0,0,0,0,0,0,0,0,1457,0,4077,4064,-0.029,2.184,10.834,0.102,-0.423,-1.875,2.471,-2.595,9.112,0.059,0.133,0.031,sad
5.64,929,0,0,0,0,0,0,0,0,0,0,0,1516,0,4080,4075,1.233,2.600,11.959,-0.382,-0.126,-1.833,3.196,-2.564,8.593,0.077,0.217,0.093,sad
5.65,978,0,0,0,0,0,0,0,0,0,0,0,1584,0,4095,4077,2.526,2.105,8.705,-0.731,-0.037,-1.741,3.227,-2.605,8.418,0.076,0.346,0.116,sad
5.66,1043,0,0,0,0,0,0,0,0,0,0,0,1644,0,4095,4091,2.322,1.628,8.176,-0.809,-0.059,-1.578,1.999,-3.141,9.823,0.047,0.291,0.105,sad
5.67,1033,0,0,0,0,0,0,0,0,0,0,0,1686,0,4069,4087,2.784,2.418,8.171,-0.859,-0.179,-1.297,2.059,-2.878,9.665,0.057,0.220,0.136,sad
5.68,1086,0,0,0,0,0,0,0,0,0,0,0,1746,0,4095,4091,3.232,2.296,7.690,-0.957,-0.110,-1.027,2.526,-2.780,9.019,0.072,0.293,0.126,sad
5.69,1062,0,0,0,0,0,0,0,0,0,0,0,1825,0,4095,4095,3.182,2.363,7.472,-0.976,0.014,-0.808,2.545,-2.588,9.175,0.020,0.249,0.130,sad
5.70,1052,0,0,0,0,0,0,0,0,0,0,0,1897,0,4095,4094,3.000,2.665,7.989,-0.990,-0.019,-0.542,1.741,-3.187,9.969,0.014,0.199,0.104,sad
5.71,1023,0,0,0,0,0,0,0,0,0,0,0,1963,0,4095,4095,2.959,3.062,8.459,-1.024,-0.161,-0.259,2.114,-2.966,9.567,0.037,0.163,0.104,sad
5.72,1010,0,0,0,0,0,0,0,0,0,0,0,2013,0,4095,4048,2.945,3.589,8.880,-1.086,-0.293,0.038,2.116,-2.794,9.536,0.006,0.142,0.094,sad
5.73,983,0,0,0,0,0,0,0,0,0,0,0,2090,0,4095,4095,3.048,3.950,8.969,-1.134,-0.293,0.312,2.164,-2.720,9.261,-0.017,0.138,0.086,sad
5.74,976,0,0,0,0,0,0,0,0,0,0,0,2130,0,4095,4081,2.634,4.269,9.038,-1.176,-0.191,0.498,2.385,-2.816,9.148,0.028,0.199,0.136,sad
5.75,1008,0,0,0,0,0,0,0,0,0,0,0,2170,0,4095,4095,2.052,4.594,9.103,-1.213,-0.127,0.615,2.358,-2.787,9.199,0.026,0.211,0.146,sad
5.76,966,0,0,0,0,0,0,0,0,0,0,0,2035,0,4095,4063,2.006,4.975,9.333,-1.227,-0.101,0.700,2.516,-2.892,8.813,0.056,0.296,0.192,sad
5.77,993,0,0,0,0,0,0,0,0,0,0,0,2117,0,4095,4095,2.069,5.444,9.785,-1.281,-0.044,0.726,1.987,-2.792,9.232,0.030,0.298,0.202,sad
5.78,1015,0,0,0,0,0,0,0,0,0,0,0,2101,0,4095,4095,2.025,5.430,9.285,-1.323,0.004,0.746,1.815,-2.868,9.598,0.044,0.312,0.213,sad
5.79,1015,0,0,0,0,0,0,0,0,0,0,0,2093,0,4095,4095,2.109,5.356,8.741,-1.254,-0.001,0.782,1.846,-2.942,9.701,0.058,0.293,0.217,sad
5.80,1051,0,0,0,0,0,0,0,0,66,0,0,2155,0,4095,4095,2.428,5.392,8.665,-1.147,0.017,0.808,2.126,-2.933,9.309,0.058,0.285,0.184,sad
5.81,1066,0,0,0,0,0,0,0,0,117,0,0,2251,0,4095,4095,2.902,5.610,8.832,-1.049,0.110,0.818,1.724,-2.686,9.287,0.084,0.325,0.185,sad
5.82,1088,0,0,0,0,0,0,0,0,128,0,0,2318,0,4042,4095,3.100,5.897,9.280,-0.974,0.198,0.829,2.059,-2.758,9.261,0.087,0.395,0.197,sad
5.83,1089,0,0,0,0,0,0,0,0,343,0,0,2383,0,4095,4095,2.844,6.491,9.929,-0.985,0.137,0.890,1.267,-3.345,10.355,-0.008,0.258,0.127,sad
5.84,1107,0,0,0,0,0,0,0,0,377,0,0,2425,0,4095,4095,2.672,6.129,9.175,-1.032,0.073,0.928,2.265,-2.763,9.067,0.089,0.334,0.194,sad
5.85,1151,0,0,0,0,0,0,0,0,433,0,0,2468,0,4095,4095,2.567,5.329,7.870,-0.926,0.028,0.920,1.547,-2.806,9.424,0.057,0.341,0.134,sad
5.86,1189,0,0,0,0,0,0,0,0,474,0,0,2495,0,4095,4095,2.523,5.083,7.329,-0.682,0.075,0.882,1.896,-2.519,8.554,0.025,0.430,0.180,sad
5.87,1167,0,0,0,0,0,0,0,0,833,0,0,2503,0,4095,4095,2.564,5.423,7.956,-0.460,0.195,0.804,2.124,-2.519,9.776,0.172,0.548,0.303,sad
5.88,1151,0,0,0,0,0,0,0,0,906,0,0,2544,0,4095,4095,2.523,6.029,8.851,-0.396,0.345,0.714,0.596,-3.589,10.831,-0.072,0.306,0.066,sad
5.89,1106,0,0,0,0,0,0,0,0,910,0,0,2541,0,4095,4095,2.179,6.378,9.711,-0.422,0.351,0.625,1.630,-2.828,9.603,0.144,0.372,0.293,sad
5.90,1022,0,0,0,0,0,0,0,0,807,0,0,2434,0,3967,4095,1.477,7.479,11.011,-0.564,0.127,0.591,0.929,-2.571,9.570,-0.049,0.287,0.172,sad
5.91,1045,0,0,0,0,0,0,0,0,854,0,0,2181,0,4095,4095,1.216,6.567,9.687,-0.803,-0.050,0.554,1.396,-2.502,8.854,-0.062,0.410,0.298,sad
5.92,1089,0,0,0,0,0,0,0,0,886,0,0,1739,0,4083,4095,1.281,5.847,8.128,-0.759,-0.192,0.495,2.066,-2.282,8.859,-0.035,0.627,0.454,sad
5.93,1109,0,0,0,0,0,0,0,0,1022,0,0,1356,0,4042,4095,1.492,6.311,8.691,-0.671,-0.249,0.423,1.041,-3.615,10.795,-0.272,0.489,0.312,sad
5.94,1083,0,0,0,0,0,0,0,0,943,0,0,955,0,4016,4095,1.707,6.917,9.139,-0.761,-0.215,0.387,1.642,-2.966,10.472,-0.176,0.458,0.530,sad
5.95,1108,0,0,0,0,0,0,0,0,1058,0,0,908,0,4019,4095,2.428,6.912,7.003,-0.874,0.016,0.334,0.491,-3.017,10.027,0.028,0.465,0.278,sad
5.96,1107,0,0,0,0,0,0,0,0,1146,0,0,1001,0,4003,4095,1.671,6.093,6.828,-0.607,0.385,0.163,1.037,-3.270,9.340,-0.001,0.357,0.169,sad
5.97,1063,0,0,0,0,0,0,0,0,1237,0,0,1151,0,4015,4095,1.281,5.873,7.836,-0.443,0.352,0.150,0.735,-3.311,10.398,-0.052,0.285,0.120,sad
5.98,1023,0,0,0,0,0,0,0,0,1271,0,0,1262,0,4014,4095,1.073,6.282,9.033,-0.406,-0.020,0.258,0.898,-3.239,9.215,0.017,0.198,0.064,sad
5.99,1056,0,0,0,0,0,0,0,0,1296,0,0,1312,0,4091,4095,1.559,6.108,8.337,-0.420,-0.224,0.329,0.864,-2.931,9.579,-0.020,0.156,0.120,sad
6.00,1091,0,0,0,0,0,0,0,0,1280,0,0,1375,0,4022,4095,1.903,5.215,7.226,-0.329,-0.159,0.321,0.788,-2.947,9.383,-0.051,0.126,0.100,sad
6.01,1104,0,0,0,0,0,0,0,0,1418,184,0,1483,0,4019,4095,1.841,5.409,7.807,-0.213,-0.024,0.282,0.828,-2.789,9.594,-0.124,0.116,0.143,sad
6.02,1078,0,0,0,0,0,0,0,0,1477,1187,128,1535,0,4018,4095,1.389,6.086,8.720,-0.201,-0.050,0.353,0.826,-3.089,9.550,-0.096,0.120,0.145,sad
6.03,1104,0,0,0,0,0,0,0,0,1648,1694,704,1783,0,4014,4095,1.113,5.665,7.563,-0.182,-0.009,0.338,0.816,-2.890,9.558,-0.090,0.145,0.177,sad
6.04,1119,0,0,0,0,0,0,0,23,1635,2165,1087,1889,0,4014,4095,0.388,5.535,6.232,-0.068,0.048,0.229,0.769,-3.278,9.584,-0.122,0.119,0.136,sad
6.05,1104,0,0,0,0,0,0,0,148,1749,2426,1919,2090,0,3991,3920,-0.481,6.457,7.353,0.206,-0.070,-0.017,0.702,-3.321,9.716,-0.051,0.112,0.118,sad
6.06,1061,0,0,0,0,0,0,0,343,1887,2584,2352,2179,0,3982,4032,0.381,5.847,5.689,0.341,0.237,-0.295,0.694,-3.124,9.661,-0.036,0.103,0.069,sad
6.07,933,0,0,0,0,0,0,0,366,1972,2638,2483,2317,0,3904,4011,1.219,5.440,5.794,0.670,0.992,-0.401,0.661,-3.129,9.663,-0.037,0.093,0.066,sad
6.08,805,0,0,0,0,0,0,0,610,1904,2618,2736,2226,0,3949,3981,-0.785,4.496,10.341,0.548,0.855,-0.147,0.627,-3.172,9.570,-0.035,0.081,0.071,sad
6.09,755,0,0,0,0,0,0,0,714,1969,2656,2955,2227,0,3935,3946,0.493,0.939,9.395,0.706,0.511,0.007,0.692,-3.158,9.632,-0.021,0.077,0.050,sad
6.10,710,0,0,0,0,0,0,450,734,1966,2643,3024,2241,0,3941,3952,-0.189,0.436,10.736,0.807,0.451,-0.076,0.661,-3.031,9.584,-0.034,0.064,0.055,sad
6.11,708,0,0,0,0,0,62,1175,834,1946,2666,3132,2307,0,3945,3920,-1.590,3.280,8.801,1.155,-0.133,-0.170,0.658,-3.189,9.579,-0.052,0.063,0.051,sad
6.12,723,0,0,0,0,0,371,1569,873,1974,2715,3152,2379,0,3910,3894,1.118,4.465,10.192,0.966,-0.116,-0.414,0.563,-3.239,9.531,-0.024,0.054,0.049,sad
6.13,673,0,0,0,0,0,845,1840,1043,1969,2797,3319,2384,0,3869,3825,0.725,18.136,19.613,0.864,0.763,-0.826,0.560,-3.182,9.586,-0.026,0.063,0.050,sad
6.14,1313,94,0,0,0,0,1370,2192,1076,2000,2782,3369,2417,0,3838,3787,-0.500,2.954,9.275,0.274,0.238,-0.235,0.503,-3.175,9.519,-0.041,0.045,0.044,sad
6.15,1471,203,174,0,0,0,1594,2491,1326,2058,2848,3437,2375,0,3735,3685,1.602,3.349,8.423,0.196,-0.129,-0.047,0.579,-3.184,9.608,-0.032,0.061,0.036,sad
6.16,1673,374,372,0,64,0,1791,2729,1627,2117,2874,3489,2223,0,3511,3558,0.936,4.080,8.988,0.131,0.015,-0.091,0.656,-3.208,9.610,-0.061,0.053,0.044,sad
6.17,1831,682,619,0,218,0,1934,2880,1535,2122,2899,3514,2158,0,3470,3574,1.214,3.905,8.875,0.165,-0.106,-0.032,0.584,-3.223,9.546,-0.046,0.064,0.045,sad
6.18,1943,977,863,74,307,0,2100,3005,1691,2142,2956,3575,1911,0,3199,3366,1.338,4.228,9.091,0.156,-0.065,-0.068,0.567,-3.199,9.560,-0.050,0.064,0.050,sad
6.19,2089,1168,1113,266,571,0,2295,3146,1773,2161,2989,3624,1775,0,2951,3226,1.374,4.065,8.933,0.134,-0.067,-0.058,0.555,-3.211,9.550,-0.064,0.043,0.028,sad
6.20,2193,1351,1361,404,749,0,2445,3259,1882,2160,2999,3646,1786,0,2864,3136,1.420,4.223,9.124,0.159,0.000,-0.067,0.534,-3.263,9.500,-0.047,0.044,0.031,sad
6.21,2313,1569,1782,550,1089,0,2554,3349,2031,2207,3071,3909,1734,0,2807,2731,1.252,4.329,9.041,0.126,-0.015,-0.060,0.622,-3.270,9.443,-0.060,0.047,0.031,sad
6.22,2417,1743,2155,754,1163,0,2669,3435,2270,2215,3071,4085,1607,0,2624,2366,1.446,4.424,9.249,0.110,0.034,-0.056,0.548,-3.285,9.572,-0.068,0.044,0.025,sad
6.23,2491,1924,2352,1022,1286,0,2801,3495,2337,2243,3094,3732,1472,0,2385,2027,1.290,4.310,9.072,0.067,-0.011,-0.056,0.503,-3.256,9.553,-0.078,0.038,0.022,sad
6.24,2533,1983,2474,1211,1394,0,2895,3557,2487,2273,3124,3731,1119,0,1984,1627,1.183,4.288,9.041,0.047,-0.046,-0.001,0.541,-3.369,9.560,-0.116,0.067,0.018,sad
6.25,2579,2084,2494,1259,1335,0,2992,3610,2838,2297,3048,3751,789,0,1408,815,1.425,4.223,8.871,0.023,-0.018,-0.009,0.510,-3.378,9.469,-0.092,0.049,0.021,sad
6.26,2622,2167,2550,1344,1469,0,3087,3653,2736,2325,3148,3776,704,0,976,348,1.372,4.171,8.887,0.041,-0.003,-0.018,0.503,-3.371,9.459,-0.094,0.043,0.028,sad
6.27,2655,2240,2641,1465,1529,0,3153,3696,2879,2349,3171,3790,556,0,215,95,1.336,4.269,8.981,0.044,0.014,-0.019,0.462,-3.426,9.577,-0.138,0.017,0.015,sad
6.28,2676,2284,2704,1535,1616,0,3221,3728,2999,2398,3178,3776,464,0,0,0,1.348,4.254,9.043,0.034,0.004,-0.014,0.486,-3.551,9.361,-0.091,0.078,0.075,sad
6.29,2690,2325,2734,1600,1748,0,3279,3762,3039,2427,3181,3797,595,0,0,0,1.456,4.197,8.928,0.016,-0.008,-0.009,0.476,-3.527,9.448,-0.052,-0.002,0.066,sad
6.30,2703,2352,2752,1618,1726,0,3333,3791,3127,2447,3186,3801,335,0,0,0,1.367,4.274,8.995,0.028,0.014,-0.005,0.503,-3.555,9.390,-0.213,0.068,0.023,sad
6.31,2721,2367,2757,1586,1778,0,3370,3801,3200,2374,3204,3797,97,0,0,0,1.305,4.451,9.278,0.011,-0.036,0.015,0.587,-3.943,9.371,-0.413,0.085,-0.034,sad
6.32,2730,2342,2622,1166,1903,0,3409,3819,3251,2289,3181,3794,49,0,0,0,1.475,4.223,8.966,-0.025,-0.063,0.035,0.259,-3.515,9.507,-0.407,0.156,-0.049,sad
6.33,2722,2290,2465,882,1981,0,3455,3851,3326,2179,3178,3766,0,0,0,0,1.542,4.065,8.863,-0.000,-0.019,0.015,0.486,-3.644,9.419,-0.307,0.055,-0.068,sad
6.34,2703,2295,2377,727,2027,0,3495,3878,3340,1928,3206,3760,0,0,0,0,1.463,4.345,9.148,-0.054,-0.104,0.061,0.515,-3.792,9.306,-0.390,0.122,-0.064,sad
6.35,2649,2250,2036,416,2090,0,3543,3894,3377,1705,3119,3758,0,0,0,0,1.563,4.144,9.043,-0.121,-0.156,0.106,0.469,-3.807,9.366,-0.410,0.101,-0.090,sad
6.36,2559,2213,1731,259,2186,0,3600,3920,3370,1033,3145,3686,0,0,0,0,1.674,3.989,8.899,-0.145,-0.193,0.118,0.479,-3.709,9.404,-0.551,0.130,-0.083,sad
6.37,2475,2224,1695,167,2320,1,3650,3927,3360,867,2884,3480,0,0,0,0,1.549,3.924,9.041,-0.074,-0.131,0.096,0.436,-4.482,9.749,-0.808,0.112,0.102,sad
6.38,2415,2258,1709,84,2341,183,3703,3959,3283,731,2497,3339,0,0,0,0,1.611,3.893,8.950,-0.064,-0.104,0.088,0.555,-4.049,9.261,-0.721,-0.007,0.233,sad
6.39,2373,2272,1729,14,2410,174,3728,3953,3054,32,1520,2854,0,0,0,0,1.765,3.845,8.882,-0.015,-0.025,0.039,0.632,-3.764,9.677,-1.057,-0.129,0.421,sad
6.40,2366,2289,1887,62,2485,250,3754,3978,2559,0,0,1473,0,0,0,0,1.611,3.771,8.959,0.039,0.074,-0.018,0.448,-4.015,9.668,-1.485,-0.180,0.670,sad
6.41,2387,2309,2067,214,2541,394,3654,3965,2353,0,0,895,0,0,0,0,1.690,3.984,9.045,0.078,0.137,-0.051,0.577,-4.017,10.130,-1.629,-0.396,0.768,sad
6.42,2442,2320,2207,322,2627,595,3761,3982,1606,0,0,0,0,0,0,0,1.609,3.934,9.081,0.081,0.159,-0.061,0.113,-4.183,10.767,-1.885,-0.498,1.147,sad
6.43,2508,2307,2281,400,2608,772,3765,3993,1113,0,0,0,0,0,0,0,1.604,3.862,9.072,0.109,0.167,-0.080,1.216,-5.344,10.712,-1.525,-0.692,1.398,sad
6.44,2559,2268,2310,493,2533,845,3771,3994,0,0,0,0,0,0,0,0,1.602,4.049,9.050,0.120,0.156,-0.086,-0.182,-2.248,11.260,-0.612,-0.000,1.817,sad
6.45,2635,2178,2315,527,2487,763,3776,4002,0,0,0,0,0,0,0,0,1.556,4.149,9.084,0.063,0.114,-0.052,1.470,-1.913,9.960,0.062,-0.320,1.848,sad
6.46,2673,1997,2253,545,2373,797,3775,4011,0,0,0,0,0,0,0,0,1.578,4.003,9.155,0.088,0.168,-0.058,2.780,-3.108,10.297,0.928,-0.219,1.297,sad
6.47,2699,1938,2227,581,2308,883,3776,4013,0,0,0,0,0,0,0,0,1.377,4.013,8.926,0.087,0.124,-0.064,3.383,-2.567,9.290,0.875,-0.074,1.004,sad
6.48,2736,1808,2176,676,2256,893,3773,4014,0,0,0,0,0,0,0,0,1.489,4.034,9.026,0.058,0.152,-0.070,2.907,-2.710,7.951,1.101,-0.360,0.284,sad
6.49,2742,1777,2161,802,2208,915,3766,4016,0,0,0,0,0,0,0,0,1.413,4.020,9.088,0.061,0.139,-0.060,2.832,-3.220,8.550,1.085,-0.331,-0.414,sad
6.50,2756,1617,2224,987,2199,902,3765,4019,0,0,0,0,0,0,0,0,1.379,4.037,9.057,0.063,0.158,-0.068,1.906,-3.577,9.548,1.077,-0.256,-0.666,sad
6.51,2773,1570,2320,1121,2064,1038,3760,4013,0,0,0,0,0,0,0,0,1.283,4.185,9.139,0.075,0.138,-0.058,0.421,-3.424,9.366,1.211,-0.277,-0.768,sad
6.52,2779,1351,2352,1314,2082,976,3749,4016,0,0,0,0,0,0,0,0,1.329,4.061,8.973,0.036,0.179,-0.059,0.093,-3.788,10.075,1.221,-0.338,-0.638,sad
6.53,2768,1127,2377,1435,1978,1065,3746,4017,0,0,0,0,0,0,0,0,1.341,4.070,9.002,0.052,0.183,-0.074,0.007,-3.946,10.269,1.246,-0.390,-0.571,sad
6.54,2774,1071,2387,1602,1929,1120,3733,4017,0,0,0,0,0,0,0,0,1.243,4.202,9.055,0.057,0.159,-0.066,0.642,-4.046,9.869,1.307,-0.496,-0.521,sad
6.55,2777,994,2431,1712,1851,1185,3754,4017,0,0,0,0,0,0,0,0,1.252,4.053,9.055,0.048,0.138,-0.054,1.214,-3.960,9.479,1.186,-0.381,-0.585,sad
6.56,2799,963,2481,1819,1873,1242,3728,4009,0,0,0,0,0,0,0,0,1.156,4.053,9.110,0.069,0.105,-0.056,1.499,-3.802,9.230,1.187,-0.259,-0.655,sad
6.57,2804,982,2581,1983,1894,1277,3731,4023,0,0,0,0,0,0,0,0,1.123,4.108,9.131,0.076,0.060,-0.038,0.974,-3.905,10.434,1.012,0.140,-0.766,sad
6.58,2815,1039,2677,2090,2000,1402,3733,4022,0,0,0,0,0,0,0,0,1.264,4.032,9.048,0.096,0.026,-0.034,0.340,-3.462,9.754,1.012,0.079,-0.768,sad
6.59,2835,1250,2790,2228,2102,1425,3739,4017,0,0,0,0,0,0,0,0,1.185,4.092,8.880,0.111,-0.053,-0.037,0.366,-3.385,9.222,0.919,0.043,-0.734,sad
6.60,2864,1520,2950,2369,2205,1618,3743,4019,0,0,0,0,0,0,0,0,1.243,4.156,9.055,0.159,-0.100,-0.028,0.532,-3.433,8.851,0.620,0.246,-0.611,sad
6.61,2891,1733,3071,2474,2469,1765,3748,3998,0,0,0,0,0,0,0,0,1.058,4.056,8.947,0.125,-0.138,-0.008,0.237,-3.974,10.025,0.465,0.227,-0.568,sad
6.62,2926,2018,3186,2558,2662,1862,3758,3985,0,0,0,0,0,0,0,0,1.197,4.094,8.930,0.165,-0.137,0.001,-0.532,-4.372,10.499,0.434,-0.165,-0.493,sad
6.63,2959,2275,3303,2654,2800,1856,3770,3971,0,0,0,0,0,0,0,0,1.142,4.173,9.055,0.136,-0.081,0.009,0.215,-5.306,11.222,0.570,-0.487,-0.417,sad
6.64,2986,2429,3402,2738,2879,1908,3765,3947,0,0,0,0,0,0,0,0,1.307,4.298,9.122,0.105,-0.027,0.001,0.433,-5.262,10.072,0.717,-0.254,-0.465,sad
6.65,3024,2530,3479,2815,2975,1899,3764,3920,0,0,0,0,0,0,0,0,1.305,4.262,9.079,0.138,-0.029,-0.001,0.443,-4.544,8.375,0.612,-0.219,-0.520,sad
6.66,3063,2640,3522,2890,3071,1885,3749,3885,0,0,0,0,0,0,0,0,1.216,4.298,8.976,0.107,-0.001,-0.012,0.972,-4.630,8.284,0.297,-0.327,-0.730,sad
6.67,3104,2749,3583,2960,3135,1741,3743,3882,0,0,0,0,0,0,0,0,1.341,4.389,9.000,0.096,0.000,-0.011,1.453,-4.561,8.641,0.017,0.083,-0.864,sad
6.68,3149,2857,3630,3011,3197,1633,3728,3855,0,0,0,0,0,0,0,0,1.329,4.271,8.947,0.109,-0.006,0.006,1.209,-5.061,10.003,0.024,0.139,-0.944,sad
6.69,3187,2928,3664,3059,3261,1584,3714,3818,0,0,0,0,0,0,0,0,1.255,4.348,9.050,0.074,0.031,-0.011,0.802,-4.029,8.583,0.267,0.170,-1.091,sad
6.70,3232,2977,3696,3104,3306,1477,3696,3792,0,0,0,0,0,0,0,0,1.379,4.195,8.923,0.080,0.018,-0.009,-0.139,-3.294,8.811,-0.012,0.180,-1.039,sad
6.71,3269,2998,3723,3149,3347,1422,3671,3767,0,0,0,0,0,0,0,0,1.298,4.274,8.897,0.070,0.025,-0.015,-0.481,-3.589,10.096,0.043,0.074,-0.936,sad
6.72,3305,3051,3824,3184,3381,1301,3648,3744,0,0,0,0,0,0,0,0,1.283,4.360,8.969,0.081,0.025,-0.016,-0.371,-2.502,8.523,0.211,0.005,-0.539,sad
6.73,3325,3099,3779,3216,3413,1037,3622,3709,0,0,0,0,0,0,0,0,1.267,4.386,8.892,0.075,0.029,-0.014,-0.493,-2.935,10.082,0.096,-0.155,-0.139,sad
6.74,3361,3145,3797,3257,3440,899,3583,3664,0,0,0,0,0,0,0,0,1.358,4.240,8.921,0.077,0.024,-0.018,-0.072,-2.160,9.273,0.166,-0.371,0.020,sad
6.75,3390,3200,3821,3285,3463,688,3554,3623,0,0,0,0,0,0,0,0,1.283,4.381,8.964,0.084,0.016,-0.017,0.953,-1.915,8.679,0.074,-0.576,0.281,sad
6.76,3429,3263,3833,3328,3489,511,3508,3558,0,0,0,0,0,0,0,0,1.302,4.408,8.935,0.082,0.014,0.002,1.547,-2.607,9.105,-0.303,0.170,0.276,sad
6.77,3453,3326,3856,3356,3524,472,3461,3490,0,0,0,0,0,0,0,0,1.324,4.345,9.014,0.092,0.015,-0.008,0.864,-2.456,9.086,-0.273,0.657,0.416,sad
6.78,3481,3357,3872,3381,3519,333,3360,3355,0,0,0,0,0,0,0,0,1.300,4.336,8.952,0.108,-0.024,0.004,1.063,-2.713,9.230,-0.469,0.238,0.025,sad
6.79,3504,3441,3901,3418,3573,242,3261,3226,0,0,0,32,0,0,0,0,1.422,4.429,8.911,0.090,0.016,-0.008,0.704,-1.860,9.790,-0.345,0.572,0.065,sad
6.80,3536,3489,3910,3441,3583,0,3182,2896,0,0,0,0,0,0,0,0,1.293,4.247,8.873,0.110,-0.033,-0.001,0.781,-1.568,9.661,-0.291,0.557,0.044,sad
6.81,3569,3558,3920,3478,3583,0,3105,2251,0,0,0,0,0,0,0,0,1.362,4.401,9.000,0.095,0.025,-0.018,0.795,-0.491,8.844,-0.666,0.076,-0.066,sad
6.82,3602,3615,3945,3510,3566,0,2966,1521,0,0,0,0,0,0,0,0,1.336,4.398,8.930,0.117,0.025,-0.019,0.309,-1.130,8.260,-1.255,-0.281,0.046,sad
6.83,3626,3668,3956,3538,3485,0,2769,747,0,0,0,0,0,0,0,0,1.374,4.441,8.894,0.121,0.031,-0.030,1.566,-1.695,8.274,-1.361,-0.137,0.156,sad
6.84,3634,3707,3967,3545,3422,0,2619,43,0,0,0,0,0,0,0,0,1.298,4.408,8.978,0.119,0.028,-0.032,1.779,-2.461,8.650,-1.286,0.159,0.221,sad
6.85,3655,3743,3970,3565,3306,0,2421,0,0,0,0,0,0,0,0,147,1.317,4.453,8.892,0.118,0.023,-0.021,1.551,-3.680,8.878,-1.305,0.712,0.599,sad
6.86,3676,3772,3982,3576,3137,0,2178,0,0,0,0,0,0,0,0,393,1.358,4.496,8.921,0.141,0.024,-0.023,19.613,-6.196,16.937,-1.039,-0.411,0.375,sad
6.87,3714,3814,4002,3607,2907,0,1799,0,0,0,0,0,0,0,0,941,1.336,4.551,8.916,0.132,0.025,-0.027,-2.832,-4.575,11.507,-0.589,0.063,0.168,sad
6.88,3750,3846,3995,3619,2706,0,1342,0,0,0,0,0,0,0,73,1808,1.393,4.511,8.914,0.162,0.020,-0.037,0.769,-2.907,9.878,-0.502,0.134,0.220,sad
6.89,3771,3869,4003,3626,2455,0,929,0,0,0,0,0,0,0,384,2075,1.439,4.456,8.875,0.220,0.009,-0.050,-0.057,-3.373,10.056,-0.267,-0.033,0.211,sad
6.90,3775,3899,4006,3647,2253,0,560,0,0,0,0,0,0,0,233,2458,1.211,4.065,8.928,0.379,-0.010,0.059,0.314,-3.256,9.752,-0.108,-0.028,0.095,sad
6.91,3792,3903,4026,3675,1999,0,528,0,0,0,0,250,0,0,1141,2679,1.274,4.599,8.818,0.371,0.031,0.049,0.663,-3.227,9.591,-0.063,0.033,0.081,sad
6.92,3803,3927,4019,3633,1824,0,434,0,0,0,0,562,0,0,1455,2757,1.310,4.630,8.768,0.393,0.042,0.055,0.620,-3.199,9.661,-0.025,0.057,0.068,sad
6.93,3824,3930,4016,3639,1745,0,342,0,0,0,0,952,0,0,1446,2864,1.384,4.647,8.823,0.439,0.048,0.080,0.639,-3.081,9.591,-0.037,0.028,0.049,sad
6.94,3829,3931,4016,3642,1666,0,198,0,0,48,0,1278,0,0,1584,2935,1.408,4.908,8.638,0.441,0.065,0.107,0.752,-3.577,9.510,0.017,0.182,0.146,sad
6.95,3833,3914,4021,3617,1565,0,138,0,0,34,0,1574,0,0,1686,2951,1.432,4.985,8.593,0.448,0.050,0.117,0.704,-3.249,9.404,-0.062,-0.061,0.115,sad
6.96,3856,3891,4026,3617,1351,0,103,0,0,78,417,2065,0,0,1979,3041,1.568,5.085,8.717,0.431,0.132,0.078,0.390,-3.218,9.452,-0.062,0.029,0.077,sad
6.97,3872,3923,4016,3612,1296,0,0,0,45,549,1415,2379,0,0,2273,3121,1.441,5.071,8.559,0.463,0.127,0.087,0.522,-3.244,9.567,-0.044,0.016,0.057,sad
6.98,3883,3809,4007,3605,1221,0,0,0,150,612,1497,2542,0,0,2346,3169,1.381,4.906,8.516,0.533,0.109,0.092,0.491,-3.268,9.531,-0.034,-0.001,0.021,sad
6.99,3895,3728,4002,3600,1023,0,0,0,201,752,1673,2688,0,0,2621,3258,1.360,5.191,8.516,0.529,0.125,0.086,0.536,-3.335,9.483,-0.009,-0.011,0.014,sad
7.00,3904,3646,3999,3566,771,0,0,0,282,942,1719,2800,0,0,2851,3361,1.326,5.227,8.291,0.582,0.083,0.120,0.637,-3.371,9.443,-0.033,0.006,0.023,sad
7.01,3920,3440,3967,3521,202,0,0,0,258,886,1786,2831,113,0,2971,3406,1.350,5.574,8.387,0.635,0.133,0.103,0.692,-3.546,9.577,0.004,0.013,0.017,sad
7.02,3910,3123,3943,3395,0,0,0,0,323,1010,1924,2864,112,0,3119,3465,1.523,5.705,8.396,0.705,0.155,0.107,0.572,-3.225,9.450,0.008,-0.002,0.010,sad
7.03,3895,2881,3895,3126,0,0,0,0,356,1062,1988,2901,280,0,3248,3535,1.805,5.782,8.246,0.698,0.178,0.081,0.725,-3.311,9.558,0.010,0.031,-0.001,sad
7.04,3856,2825,3849,2936,0,0,0,0,366,1133,2062,2907,373,0,3313,3601,1.413,5.691,8.296,0.831,0.179,0.084,0.632,-3.280,9.416,-0.019,-0.011,0.006,sad
7.05,3761,2647,3769,2693,0,0,0,0,400,1313,2154,2939,523,0,3349,3641,1.350,5.904,8.696,0.903,0.029,0.026,0.266,-3.098,9.500,0.098,0.041,-0.034,sad
7.06,3600,2320,3521,2343,0,0,0,0,370,1585,2254,3094,779,0,3525,3728,0.702,6.424,9.304,0.991,-0.111,0.010,0.520,-3.100,9.467,-0.050,-0.019,-0.043,sad
7.07,3200,1990,3059,1699,0,0,0,0,391,1698,2318,3163,929,0,3623,3734,1.113,6.088,8.701,1.229,-0.387,-0.111,0.752,-3.326,9.491,-0.085,-0.042,-0.060,sad
7.08,2762,1333,2492,692,0,0,0,0,295,1685,2416,3235,1232,0,3677,3777,1.314,6.354,8.662,1.494,-0.691,-0.378,0.551,-3.249,9.503,0.047,0.002,-0.058,sad
7.09,2352,588,1449,234,0,0,0,0,208,1775,2418,3298,1882,0,3793,3991,1.025,6.723,9.048,1.614,-0.853,-0.579,0.759,-3.335,9.459,0.054,0.041,-0.007,sad
7.10,1790,80,192,0,0,0,0,0,129,1895,2541,3342,2045,0,3884,3854,0.735,7.341,11.576,1.190,-0.895,-1.121,0.675,-3.203,9.416,-0.015,-0.048,-0.057,sad
7.11,925,0,0,0,0,0,0,0,107,2022,2707,3334,2480,0,3918,3827,-0.124,4.149,10.060,0.194,-0.341,-1.948,0.704,-3.354,9.512,0.061,0.056,-0.009,sad
7.12,644,0,0,0,0,0,0,0,33,2174,2792,3371,2717,0,3994,3843,0.883,5.265,13.297,-0.685,-0.148,-2.265,0.673,-3.251,9.608,0.003,0.042,0.017,sad
7.13,821,0,0,0,0,0,0,0,32,2201,2999,3385,2803,0,3987,3824,3.280,2.552,7.925,-0.948,-0.049,-2.182,0.673,-3.117,9.591,-0.052,-0.009,-0.004,sad
7.14,880,0,0,0,0,0,0,0,197,2292,3122,3456,2895,8,4001,3778,4.381,2.938,7.525,-0.902,-0.125,-1.541,0.630,-3.182,9.610,-0.038,0.045,0.041,sad
7.15,967,0,0,0,0,0,0,0,364,2459,2986,3454,2989,0,4005,3715,4.381,2.210,6.634,-0.855,-0.132,-0.761,0.685,-3.227,9.476,-0.054,0.049,0.051,sad
7.16,864,0,0,0,0,0,0,0,496,2362,3045,3472,2973,0,3991,3677,3.359,2.332,7.207,-0.636,-0.193,-0.023,0.627,-3.306,9.450,-0.058,0.033,0.054,sad
7.17,770,0,0,0,0,0,0,0,763,2363,3055,3523,3021,0,3974,3505,2.234,3.381,9.184,-0.548,-0.375,0.551,0.632,-3.268,9.574,-0.031,0.068,0.070,sad
7.18,771,0,0,0,0,0,0,0,1165,2469,3071,3581,3007,0,3975,3388,1.604,4.872,10.834,-0.929,-0.340,0.843,0.709,-3.297,9.469,-0.036,0.070,0.088,sad
7.19,805,0,0,0,0,0,0,0,1357,2452,3073,3986,3029,0,3914,3351,0.488,4.695,9.890,-1.115,-0.236,0.813,0.587,-3.352,9.584,-0.060,0.050,0.067,sad
7.20,835,0,0,0,0,0,0,0,1578,2355,3053,3611,3024,0,3837,3286,0.304,5.255,10.309,-1.308,-0.185,0.622,0.577,-3.438,9.541,-0.002,0.087,0.097,sad
7.21,848,0,0,0,0,0,0,0,1914,2511,3109,3692,3027,0,3872,3306,0.333,5.468,10.092,-1.451,-0.170,0.413,0.582,-3.452,9.620,-0.021,0.109,0.101,sad
7.22,891,0,0,0,0,0,0,0,2131,2518,3137,3753,3030,0,3893,3372,0.599,5.368,9.924,-1.519,-0.221,0.219,0.611,-3.373,9.467,-0.041,0.070,0.063,sad
7.23,944,0,0,0,0,0,0,0,2359,2549,3153,3790,3056,0,3883,3027,1.271,5.689,9.723,-1.551,-0.285,0.095,0.572,-3.373,9.440,-0.027,0.059,0.063,sad
7.24,1009,0,0,0,0,0,0,0,2739,2558,3160,3820,3038,0,3837,3311,2.121,5.748,9.661,-1.513,-0.317,0.095,0.575,-3.385,9.550,-0.040,0.085,0.059,sad
7.25,1078,0,0,0,0,0,0,0,2658,2541,3181,3827,3024,0,3794,3263,2.413,5.387,8.734,-1.388,-0.225,0.228,0.553,-3.397,9.443,-0.008,0.080,0.069,sad
7.26,1211,0,0,0,0,0,0,0,2810,2559,3181,3862,2945,0,3659,3196,2.392,5.217,8.674,-1.155,-0.083,0.376,0.524,-3.388,9.510,-0.004,0.093,0.081,sad
7.27,1232,0,0,0,0,0,0,0,2869,2553,3188,3893,2854,0,3443,3205,2.136,4.774,7.901,-0.923,0.119,0.484,0.532,-3.479,9.510,-0.007,0.092,0.075,sad
7.28,1282,0,0,0,0,0,0,0,2927,2559,3209,3933,2814,0,3409,3098,1.803,4.575,7.020,-0.510,0.567,0.486,0.479,-3.395,9.534,-0.023,0.043,0.042,sad
7.29,1157,0,0,0,0,0,0,0,3021,2549,3263,3920,2700,0,3558,3088,0.424,6.740,10.745,-0.317,0.321,0.564,0.529,-3.438,9.450,-0.006,0.053,0.057,sad
7.30,1173,0,0,0,0,0,0,0,3070,2593,3229,3933,2649,0,3373,3069,0.043,6.452,9.804,-0.591,-0.373,0.720,0.481,-3.426,9.438,0.004,0.053,0.059,sad
7.31,1169,0,0,0,0,0,0,0,3109,2608,3235,3938,2643,0,3362,3071,0.249,5.236,7.666,-0.521,-0.252,0.564,0.496,-3.464,9.462,0.003,0.039,0.048,sad
7.32,1083,0,0,0,0,0,0,0,3167,2676,3240,3982,2599,0,3195,3052,-0.077,6.778,8.296,-0.498,0.015,0.431,0.445,-3.440,9.464,0.000,0.047,0.043,sad
7.33,1023,0,0,0,0,0,0,0,3165,2599,3247,3978,2668,0,3377,3071,-0.124,6.393,7.209,-0.289,-0.347,0.499,0.457,-3.476,9.505,0.010,0.038,0.041,sad
7.34,935,0,0,0,0,0,0,0,3216,2625,3268,3982,2704,0,3385,3088,1.053,10.597,10.858,-0.362,-0.699,0.630,0.529,-3.428,9.524,-0.004,0.038,0.039,sad
7.35,1006,0,0,0,0,0,0,0,3248,2518,3268,3978,2718,0,3366,3087,1.298,8.976,4.733,-0.814,0.066,0.505,0.455,-3.505,9.493,0.019,0.045,0.048,sad
7.36,971,0,0,0,0,0,0,0,3235,2530,3229,3777,2639,0,3374,3120,-1.152,7.484,2.552,-0.144,0.408,0.408,0.493,-3.479,9.481,0.036,0.048,0.040,sad
7.37,917,0,0,0,0,0,0,0,3244,2589,3222,3979,2635,0,3376,3149,-0.941,10.422,4.094,0.437,0.214,0.445,0.503,-3.455,9.498,0.027,0.037,0.026,sad
7.38,950,0,0,0,0,0,403,1087,3202,2471,3194,3937,2490,0,3324,3117,0.838,4.757,11.202,0.421,0.483,-0.135,0.441,-3.486,9.495,0.038,0.041,0.036,sad
7.39,1007,0,0,0,0,0,1285,2332,3159,2266,3032,3933,2315,0,3319,3248,-0.328,0.532,8.633,0.930,-0.618,0.048,0.472,-3.472,9.495,0.076,0.043,0.026,sad
7.40,1125,0,0,0,0,0,1792,2906,3140,2186,3153,3933,2146,0,3281,3269,3.314,6.069,10.963,0.886,-0.500,-0.216,0.632,-3.211,9.500,0.038,0.048,0.034,sad
7.41,1367,0,0,0,0,0,2158,3189,3152,2163,3140,3953,1963,0,2995,3248,2.440,3.361,9.076,0.617,-0.275,-0.161,0.409,-3.407,9.510,-0.019,0.056,0.024,sad
7.42,1466,0,0,0,0,0,2397,3338,3132,2102,3160,3975,1623,64,2659,2907,1.882,4.142,9.622,0.584,-0.318,-0.108,0.450,-3.467,9.385,-0.009,0.059,0.014,sad
7.43,1626,0,0,0,0,0,2608,3446,3152,2101,3140,3986,1227,0,2368,2503,3.620,5.598,10.448,0.315,0.206,-0.436,0.453,-3.402,9.562,-0.051,0.046,0.009,sad
7.44,1757,0,0,0,448,0,2785,3532,3243,2109,3168,4016,931,0,1871,1744,1.760,3.376,8.586,0.311,0.377,-0.348,-0.256,-3.745,8.464,-0.114,0.101,-0.037,sad
7.45,1906,68,0,0,591,0,2983,3571,3355,2021,3183,4065,683,0,606,481,1.628,3.855,9.031,0.268,0.247,-0.245,0.419,-3.412,9.668,-0.065,0.120,0.018,sad
7.46,2061,173,0,0,1023,0,3141,3696,3415,1968,3191,4062,505,0,0,192,2.028,4.003,9.290,0.230,0.280,-0.257,0.323,-3.450,9.536,-0.074,0.015,0.009,sad
7.47,2202,368,0,0,1282,0,3264,3760,3514,1807,3196,4095,242,0,0,0,1.999,4.147,9.220,0.156,0.192,-0.194,0.421,-3.060,9.821,-0.217,0.154,0.030,sad
7.48,2287,582,0,0,1410,0,3376,3812,3572,1661,3181,4089,0,0,0,0,1.690,4.137,9.254,0.030,0.075,-0.067,0.450,-3.340,9.708,-0.423,0.192,-0.011,sad
7.49,2340,701,0,0,1479,0,3481,3847,3598,1441,3194,4089,0,0,0,0,1.547,4.274,9.708,0.035,0.037,-0.029,0.347,-3.259,9.467,-0.522,0.171,-0.030,sad
7.50,2359,853,0,0,1646,0,3558,3872,3629,1235,3224,4095,0,0,0,0,1.889,3.979,9.179,-0.034,-0.088,0.055,0.311,-3.723,9.093,-0.635,0.178,-0.082,sad
7.51,2359,848,0,0,1669,0,3583,3888,3755,912,3204,4031,0,0,0,0,1.980,3.903,9.129,-0.062,-0.128,0.073,0.134,-3.929,9.172,-0.665,0.139,-0.097,sad
7.52,2306,722,0,0,1775,0,3610,3909,3786,818,3181,4012,0,0,0,0,1.846,4.274,9.821,-0.124,-0.384,0.190,0.371,-3.924,9.376,-0.567,0.214,-0.077,sad
7.53,2241,470,0,0,1764,0,3668,3920,3757,673,3150,3952,0,0,0,0,1.832,3.977,9.476,-0.233,-0.740,0.385,0.373,-4.456,9.143,-0.580,0.252,-0.086,sad
7.54,2109,227,0,0,1822,0,3664,3920,3729,55,2812,3855,0,0,0,0,1.911,4.216,9.632,-0.399,-1.065,0.605,0.256,-4.221,9.222,-0.768,0.252,-0.037,sad
7.55,1930,76,0,0,1771,0,3731,3958,3709,117,2608,3793,0,0,0,0,2.942,3.642,8.717,-0.392,-1.080,0.724,0.292,-4.561,9.189,-0.826,0.260,0.049,sad
7.56,1597,0,0,0,1773,0,3632,3846,3605,0,217,3627,0,0,0,0,2.739,3.579,8.985,-0.394,-0.982,0.722,0.429,-4.324,9.273,-0.929,0.214,0.180,sad
7.57,1445,0,0,0,1797,0,3641,3838,3229,0,0,3213,0,0,0,0,3.120,3.247,8.626,-0.358,-0.806,0.651,-0.156,-3.673,10.156,-1.367,0.099,0.442,sad
7.58,1336,0,0,0,1708,0,3693,3895,3157,0,0,3035,0,0,0,0,3.661,2.749,8.334,-0.382,-0.486,0.501,0.445,-4.796,9.421,-1.389,-0.113,0.637,sad
7.59,1214,0,0,0,1653,0,3666,3864,2947,0,0,2098,0,0,0,0,3.670,2.820,8.559,-0.403,-0.376,0.400,0.110,-4.808,10.089,-1.556,-0.311,0.753,sad
7.60,1161,0,0,0,1715,0,3748,3962,2692,0,0,1472,0,0,0,0,3.424,2.327,7.858,-0.342,-0.216,0.291,-0.613,-5.576,12.151,-1.654,-0.654,0.991,sad
7.61,1097,0,0,0,1741,0,3653,3847,1499,0,0,411,0,0,0,0,3.275,2.895,8.868,-0.212,-0.039,0.139,0.421,-4.805,11.916,-1.382,-0.220,1.208,sad
7.62,1061,0,0,0,1565,0,3651,3852,634,0,0,0,0,0,0,0,3.565,1.939,8.006,-0.192,0.118,0.044,1.049,-3.436,11.650,-1.047,-0.229,1.643,sad
7.63,1018,0,0,0,1663,0,3697,3890,0,0,0,0,0,0,0,0,3.558,1.812,7.614,-0.076,0.296,-0.042,0.587,-3.156,11.152,-0.803,-0.199,1.551,sad
7.64,942,0,0,0,1728,0,3694,3911,0,0,0,0,0,0,0,0,3.383,1.444,7.420,0.057,0.565,-0.205,0.294,-2.002,10.482,-0.056,-0.139,1.838,sad
7.65,785,0,0,0,1787,0,3696,3918,0,0,0,0,0,0,0,0,3.414,2.923,9.615,0.148,0.639,-0.285,1.669,-1.484,8.284,-0.129,-0.135,1.751,sad
7.66,752,0,0,0,1870,0,3687,3921,0,0,0,0,0,0,0,0,3.089,3.005,8.823,0.080,0.629,-0.274,2.871,-1.824,11.911,0.519,-0.364,1.554,sad
7.67,763,0,0,0,1886,0,3696,3929,0,0,0,0,0,0,0,0,3.156,2.602,8.971,0.181,0.625,-0.308,2.871,-1.824,11.911,0.519,-0.364,1.554,sad
7.68,771,0,0,0,1955,0,3685,3921,0,0,0,0,0,0,0,0,3.249,2.674,8.545,0.168,0.676,-0.296,2.356,-1.765,8.198,0.777,-0.460,1.122,sad
7.69,695,0,0,0,2020,0,3683,3927,0,0,0,0,0,0,0,0,2.354,2.959,9.364,0.227,0.609,-0.266,2.442,-2.327,7.925,0.791,-0.569,0.853,sad
7.70,672,0,0,0,2082,0,3671,3927,0,0,0,0,0,0,0,0,2.380,2.753,8.878,0.251,0.573,-0.255,2.555,-2.354,7.769,0.851,-0.587,0.601,sad
7.71,570,0,0,0,2145,0,3690,3933,0,0,0,0,0,0,0,0,2.588,2.907,9.239,0.320,0.618,-0.285,2.193,-2.545,8.229,0.888,-0.625,0.303,sad
7.72,638,26,0,0,2224,0,3689,3952,0,0,0,0,0,0,0,0,2.763,3.373,9.900,0.317,0.635,-0.311,1.714,-3.060,8.404,0.893,-0.541,0.084,sad
7.73,689,74,0,0,2275,0,3687,3936,0,0,0,0,0,0,0,0,2.140,3.864,9.687,0.207,0.669,-0.262,0.828,-3.359,9.005,0.888,-0.526,-0.041,sad
7.74,747,80,0,0,2294,0,3689,3934,0,0,0,0,0,0,0,0,2.229,2.756,8.882,0.226,0.699,-0.304,0.163,-3.601,9.598,0.935,-0.645,-0.182,sad
7.75,820,76,0,0,2334,0,3696,3939,0,0,0,0,0,0,0,0,1.690,2.823,8.593,0.281,0.781,-0.373,-0.065,-3.689,9.706,1.044,-0.737,-0.270,sad
7.76,1173,128,0,0,2320,0,3682,3935,0,0,0,0,0,0,0,0,2.579,1.985,7.199,0.393,1.212,-0.532,-0.239,-3.982,10.017,1.097,-0.740,-0.303,sad
7.77,1392,281,0,0,2269,0,3664,3935,0,0,0,0,0,0,0,0,2.064,4.171,10.613,0.524,1.088,-0.609,-0.503,-3.977,9.586,1.107,-0.624,-0.262,sad
7.78,1610,272,5,0,2162,0,3648,3921,0,0,0,0,0,0,0,0,2.631,2.473,7.568,0.467,1.373,-0.734,-0.903,-3.814,9.333,1.075,-0.587,-0.190,sad
7.79,1697,301,260,0,2090,0,3600,3903,0,0,0,0,0,0,0,0,-0.299,3.766,12.033,0.999,0.950,-0.721,-0.838,-3.879,9.732,1.105,-0.640,-0.171,sad
7.80,1881,442,622,0,2035,0,3623,3965,0,0,0,0,0,0,0,0,1.712,4.341,9.718,0.711,0.744,-0.649,-0.838,-3.879,9.732,1.105,-0.640,-0.171,sad
7.81,2083,548,1007,237,1963,0,3612,3971,0,0,0,0,0,0,0,0,1.271,4.451,8.976,0.686,0.268,-0.541,-1.008,-4.101,11.198,1.160,-0.603,-0.102,sad
7.82,2382,944,1979,1056,2110,7,3643,3975,0,0,0,0,0,0,0,0,1.204,4.527,9.519,0.518,0.106,-0.300,-1.015,-3.953,10.558,1.164,-0.564,0.039,sad
7.83,2559,1179,2416,1634,2213,256,3667,4002,0,0,0,0,0,0,0,0,1.214,3.718,9.045,0.357,0.071,-0.209,-0.620,-3.654,10.171,1.157,-0.759,0.274,sad
7.84,2650,1440,2703,1934,2348,665,3633,3972,0,0,0,0,0,0,0,0,1.159,4.298,9.136,0.306,0.008,-0.157,0.163,-3.191,9.804,1.118,-0.800,0.364,sad
7.85,2768,1680,2883,2193,2478,877,3664,4014,0,0,0,0,0,0,0,0,1.111,4.293,9.098,0.179,-0.011,-0.050,0.302,-3.208,10.178,1.065,-0.791,0.326,sad
7.86,2800,1799,2993,2383,2521,848,3649,3985,0,0,0,0,0,0,0,0,1.118,4.214,9.122,0.143,0.017,-0.031,0.713,-2.684,10.053,0.948,-0.659,0.170,sad
7.87,2863,1932,3071,2498,2559,948,3637,3963,0,0,0,0,0,0,0,0,1.128,4.154,9.021,0.100,0.049,-0.026,0.946,-3.534,11.315,0.899,-0.660,-0.229,sad
7.88,2891,2031,3141,2588,2559,1023,3617,3952,0,0,0,0,0,0,0,0,1.111,4.293,9.038,0.103,0.015,0.002,1.252,-3.704,11.131,0.949,-0.655,-0.430,sad
7.89,2915,2096,3197,2645,2586,1200,3577,3910,0,0,0,0,0,0,0,0,1.149,4.118,9.036,0.085,0.036,-0.013,1.207,-3.709,9.663,0.966,-0.376,-0.695,sad
7.90,2947,2223,3259,2703,2634,1119,3602,3930,0,0,0,0,0,0,0,0,1.037,4.226,8.978,0.067,0.021,0.001,1.305,-4.075,8.947,0.911,-0.112,-0.812,sad
7.91,2959,2274,3301,2738,2688,1205,3610,3946,0,0,0,0,0,0,0,0,1.226,4.298,9.069,0.042,0.042,-0.007,1.439,-3.752,8.346,0.760,0.158,-0.828,sad
7.92,2971,2308,3344,2763,2716,1232,3522,3952,0,0,0,0,0,0,0,0,1.190,4.190,9.050,0.055,0.041,-0.008,0.299,-4.779,10.621,0.172,0.054,-0.895,sad
7.93,2967,2352,3374,2798,2747,1149,3614,3948,0,0,0,0,0,0,0,0,1.116,4.199,8.973,0.063,0.033,-0.004,0.584,-5.612,9.907,0.592,-0.895,-1.030,sad
7.94,2958,2437,3398,2817,2741,1223,3618,3935,0,0,0,0,0,0,0,0,1.109,4.283,9.043,0.057,0.022,0.002,1.125,-4.944,8.217,0.649,-0.966,-0.991,sad
7.95,2981,2470,3415,2838,2768,1306,3614,3926,0,0,0,0,0,0,0,0,1.164,4.187,9.100,0.047,0.019,0.009,1.336,-4.927,7.307,0.009,-0.575,-0.919,sad
7.96,2997,2513,3443,2880,2805,1382,3625,3922,0,0,0,0,0,0,0,0,1.144,4.185,9.009,0.070,0.013,-0.002,1.262,-6.349,8.942,-0.025,-0.781,-1.018,sad
7.97,2992,2559,3472,2917,2834,1333,3620,3920,0,0,0,0,0,0,0,0,1.123,4.219,9.009,0.072,-0.001,0.010,1.518,-5.835,8.061,-0.040,-0.786,-0.982,sad
7.98,3023,2629,3499,2951,2869,1250,3614,3902,0,0,0,0,0,0,0,0,1.154,4.233,9.000,0.072,0.006,0.013,2.004,-6.369,5.306,-0.469,-0.492,-1.112,sad
7.99,3050,2674,3520,2990,2896,1238,3583,3882,0,0,0,0,0,0,0,0,1.144,4.144,8.978,0.068,0.018,0.002,0.778,-6.728,5.619,-0.721,0.409,-0.592,sad
8.00,3079,2733,3536,3015,2919,1218,3559,3869,0,0,0,0,0,0,0,0,1.111,4.214,9.005,0.081,0.017,-0.004,0.390,-6.043,6.364,-0.781,0.496,-0.534,sad
8.01,3114,2782,3563,3057,2957,1139,3536,3839,0,0,0,0,0,0,0,0,1.015,4.247,9.005,0.083,0.008,0.004,4.477,-3.158,9.828,-0.509,1.228,-0.571,sad
8.02,3154,2829,3597,3071,3007,927,3504,3802,0,0,0,0,0,0,0,0,1.173,4.271,9.045,0.085,0.016,-0.004,2.820,-0.318,7.865,-0.916,0.935,-0.712,sad
8.03,3185,2882,3625,3139,3033,703,3453,3769,0,0,0,0,0,0,0,0,1.149,4.274,8.995,0.104,0.022,0.001,1.322,-2.277,9.670,-1.075,1.034,-0.693,sad
8.04,3217,2918,3649,3175,3046,560,3391,3632,0,0,0,0,0,0,0,0,1.247,4.171,9.036,0.096,0.036,-0.019,-4.934,1.901,10.118,-0.742,0.898,-0.084,sad
8.05,3250,2966,3633,3216,3018,173,3309,3657,0,0,0,0,0,0,0,1295,1.080,4.266,9.009,0.110,0.040,-0.006,-2.172,-1.094,12.234,-1.698,0.600,0.764,sad
8.06,3309,3018,3711,3255,2990,41,3184,3568,0,0,0,0,0,32,0,1857,1.305,4.183,9.091,0.111,0.028,-0.011,1.171,-5.150,11.918,-1.439,0.275,0.613,sad
8.07,3344,3049,3729,3298,2919,0,3024,3459,0,0,0,0,0,0,1189,2559,1.147,4.221,8.950,0.114,0.035,-0.011,-2.411,-6.984,14.030,0.694,0.891,0.800,sad
8.08,3377,3088,3745,3328,2770,0,2704,3285,0,0,0,0,0,0,1925,2954,1.180,4.310,9.000,0.119,0.045,-0.015,1.544,-4.073,11.961,-0.091,0.400,0.178,sad
8.09,3403,3107,3774,3357,2510,0,2441,2943,0,0,0,0,0,0,2107,3051,1.111,4.231,8.794,0.137,0.029,-0.007,0.982,-3.268,9.452,0.133,0.599,0.329,sad
8.10,3441,3143,3796,3392,2222,0,2157,2192,0,0,0,0,0,0,2163,3195,1.180,4.317,8.993,0.140,0.037,-0.004,0.769,-3.249,9.773,-0.033,0.442,0.230,sad
8.11,3471,3152,3822,3426,1889,0,1826,659,0,0,0,0,0,0,2423,3311,1.214,4.317,8.911,0.179,0.040,0.003,0.869,-3.603,10.202,-0.115,0.259,0.151,sad
8.12,3527,3193,3839,3449,1680,0,1306,0,0,0,0,0,0,0,2474,3344,1.192,4.286,8.950,0.200,0.038,-0.006,1.075,-3.373,9.728,-0.016,0.288,0.220,sad
8.13,3556,3216,3857,3473,1503,0,733,0,0,26,0,0,0,0,2725,3443,1.231,4.444,9.215,0.250,0.049,0.017,0.845,-3.275,9.627,-0.061,0.167,0.125,sad
8.14,3581,3229,3867,3494,1443,0,192,0,0,74,0,0,0,0,2806,3514,1.118,4.492,9.136,0.289,0.012,0.041,0.749,-3.328,9.833,-0.084,0.089,0.079,sad
8.15,3632,3230,3883,3489,1393,0,0,0,0,99,0,0,0,0,2819,3547,1.185,4.492,8.885,0.342,0.066,0.025,0.769,-3.208,9.620,-0.016,0.086,0.064,sad
8.16,3632,3223,3891,3467,1319,0,0,0,0,32,0,0,0,0,2816,3373,1.188,4.094,9.036,0.373,0.032,0.021,0.883,-3.330,9.591,0.048,0.118,0.069,sad
8.17,3648,3205,3894,3458,1270,0,0,0,0,22,0,0,0,0,2873,3583,1.188,4.597,8.801,0.470,0.059,0.117,0.792,-3.235,9.524,-0.016,0.047,0.074,sad
8.18,3659,3167,3903,3430,1252,0,0,0,0,56,0,166,0,64,2958,3611,1.142,4.489,8.844,0.450,0.087,0.104,0.764,-3.206,9.565,-0.021,0.065,0.075,sad
8.19,3675,3109,3894,3397,1014,0,0,0,0,179,0,962,48,0,3021,3657,1.209,4.750,8.842,0.507,0.117,0.136,0.666,-3.244,9.483,-0.011,0.070,0.073,sad
8.20,3709,3024,3902,3366,887,0,0,0,0,431,0,1186,111,0,3069,3682,1.070,4.896,8.739,0.535,0.095,0.144,0.670,-3.196,9.565,0.007,0.074,0.064,sad
8.21,3727,2915,3895,3335,838,0,0,0,0,623,0,1456,115,0,3120,3690,1.240,5.004,8.669,0.576,0.092,0.130,0.730,-3.218,9.596,0.007,0.063,0.049,sad
8.22,3730,2761,3883,3303,784,0,0,0,0,498,0,1791,185,0,3186,3696,1.226,5.078,8.487,0.622,0.095,0.138,0.666,-3.163,9.574,0.001,0.057,0.039,sad
8.23,3728,2693,3874,3254,225,0,0,0,0,593,1100,2119,13,0,3294,3760,1.176,5.272,8.404,0.628,0.115,0.128,0.642,-3.175,9.558,-0.010,0.025,0.030,sad
8.24,3731,2594,3856,3237,49,0,0,0,0,576,1187,2160,230,0,3298,3723,1.159,5.272,8.399,0.630,0.157,0.123,0.654,-3.203,9.550,0.016,0.051,0.021,sad
8.25,3737,2506,3833,3221,0,0,0,0,0,685,1433,2320,289,0,3280,3728,1.283,5.430,8.368,0.666,0.173,0.128,0.670,-3.230,9.527,0.043,0.054,0.019,sad
8.26,3726,2345,3802,3189,0,0,0,0,0,841,1571,2426,450,0,3408,3775,1.410,5.418,8.341,0.682,0.257,0.083,0.752,-3.297,9.495,0.009,0.056,0.021,sad
8.27,3675,2038,3738,3136,0,0,0,0,0,707,1714,2445,464,0,3440,3792,1.298,5.765,8.358,0.696,0.269,0.048,0.654,-3.194,9.481,-0.004,-0.009,-0.007,sad
8.28,3583,1888,3627,3055,0,0,0,0,37,897,1778,2559,592,0,3504,3800,1.317,5.744,8.308,0.735,0.271,-0.004,0.563,-3.163,9.548,0.029,0.022,-0.002,sad
8.29,3475,1749,3417,2928,0,0,0,0,48,1058,1796,2640,865,0,3583,3826,1.259,5.887,8.191,0.842,0.333,-0.063,0.807,-3.230,9.495,0.038,0.020,-0.016,sad
8.30,3364,1402,3103,2736,0,0,0,0,0,1039,1806,2688,734,0,3619,3841,1.041,5.787,7.910,0.958,0.204,-0.209,0.646,-3.170,9.670,0.022,0.005,-0.043,sad
8.31,3261,865,2641,2510,0,0,0,0,0,1062,2124,2755,899,0,3387,3869,0.965,6.045,8.547,1.119,0.017,-0.432,0.702,-3.194,9.558,0.074,0.039,-0.037,sad
8.32,3093,454,2178,2198,0,0,0,0,0,1190,2638,2779,996,0,3730,3886,1.015,6.199,8.887,1.357,-0.129,-0.687,0.737,-3.213,9.503,0.029,0.014,-0.018,sad
8.33,2877,48,1456,1590,0,0,0,0,0,1220,2116,2799,1073,0,3766,3905,0.869,6.828,8.801,1.596,-0.303,-1.081,0.694,-3.069,9.589,0.029,0.023,-0.003,sad
8.34,2559,0,557,766,0,0,0,0,0,1255,1440,2815,1204,0,3812,3925,1.276,7.621,8.545,1.569,-0.193,-1.509,0.678,-3.117,9.651,0.032,0.034,0.007,sad
8.35,2179,0,0,233,0,0,0,0,0,1264,2124,2831,1342,0,3845,3927,0.998,6.577,10.106,1.385,-0.180,-1.789,0.670,-3.074,9.531,-0.002,0.018,0.006,sad
8.36,1176,0,0,0,0,0,0,0,0,1277,2157,2720,1395,0,3877,3951,1.348,5.284,10.192,0.634,0.117,-1.933,0.704,-3.108,9.680,-0.010,0.002,-0.001,sad
8.37,448,0,0,0,0,0,0,0,0,1365,2144,2858,1525,0,3897,4000,1.240,4.199,10.633,-0.069,-0.064,-1.562,0.697,-3.098,9.584,0.014,0.030,0.010,sad
8.38,528,0,0,0,0,0,0,0,0,1456,2515,2869,1584,0,3906,3956,2.698,2.612,9.067,-0.931,-0.209,-1.143,0.673,-3.132,9.574,0.016,0.044,0.021,sad
8.39,565,0,0,0,0,0,0,0,0,1490,2170,2871,1593,0,3907,3955,2.409,2.195,8.085,-1.023,-0.148,-0.989,0.675,-3.122,9.629,0.012,0.039,0.018,sad
8.40,592,0,0,0,0,0,0,0,0,1456,2216,2855,1603,0,3910,3959,2.205,2.641,8.174,-1.083,-0.250,-0.770,0.699,-3.112,9.536,0.013,0.040,0.015,sad
8.41,624,0,0,0,0,0,0,0,0,1475,2188,2850,1613,0,3669,3975,2.145,3.069,8.801,-1.162,-0.439,-0.475,0.670,-3.089,9.517,0.013,0.029,0.015,sad
8.42,704,0,0,0,0,0,0,0,0,1473,2167,2839,1621,0,3920,3967,2.337,3.251,8.629,-1.292,-0.455,-0.221,0.725,-3.127,9.577,0.010,0.030,0.011,sad
8.43,704,0,0,0,0,0,0,0,0,1435,2167,2838,1602,0,3921,3955,1.824,3.467,8.559,-1.329,-0.444,0.012,0.675,-3.139,9.519,0.011,0.027,0.010,sad
8.44,732,0,0,0,0,0,0,0,0,1472,2157,2839,1700,0,3943,3959,1.065,3.768,8.729,-1.378,-0.459,0.185,0.673,-3.096,9.596,0.013,0.027,0.012,sad
8.45,735,0,0,0,0,0,0,0,0,1459,2154,2832,1750,0,3935,3965,0.675,3.907,8.753,-1.380,-0.545,0.324,0.716,-3.139,9.608,0.010,0.029,0.014,sad
