timestamp,L1,L2,L3,L4,L5,L6,L7,L8,R1,R2,R3,R4,R5,R6,R7,R8,acc_x_left,acc_y_left,acc_z_left,gyro_x_left,gyro_y_left,gyro_z_left,acc_x_right,acc_y_right,acc_z_right,gyro_x_right,gyro_y_right,gyro_z_right,mood
0.00,2871,2122,3095,2850,1870,0,2891,3579,367,251,2311,2552,203,35,2735,3704,0.761,2.492,9.673,0.046,0.030,-0.008,0.934,-2.911,9.680,0.006,0.021,0.012,sad
0.01,2881,2126,3086,2855,1878,0,2885,3580,339,271,2311,2552,199,41,2744,3708,0.785,2.452,9.641,0.046,0.035,-0.006,0.943,-2.904,9.668,0.009,0.023,0.015,sad
0.02,2875,2119,3071,2859,1886,0,2883,3583,327,271,2321,2557,79,0,2762,3717,0.699,2.480,9.639,0.040,0.027,-0.009,0.917,-2.940,9.673,0.011,0.026,0.014,sad
0.03,2873,2128,3071,2854,1878,0,2883,3583,315,276,2290,2556,205,41,2805,3711,0.757,2.468,9.740,0.044,0.029,-0.003,0.910,-2.954,9.675,0.012,0.020,0.013,sad
0.04,2873,2124,3060,2849,1875,0,2889,3583,309,240,2290,2535,187,41,2778,3726,0.807,2.461,9.680,0.047,0.035,-0.010,0.883,-2.947,9.656,0.016,0.020,0.007,sad
0.05,2877,2112,3056,2844,1869,0,2886,3583,253,203,2265,2516,189,37,2803,3769,0.723,2.471,9.694,0.042,0.030,-0.007,0.924,-2.940,9.658,0.015,0.019,0.010,sad
0.06,2867,2114,3046,2839,1874,0,2895,3601,213,171,2213,2475,184,35,2807,3737,0.802,2.483,9.653,0.040,0.026,-0.007,0.919,-2.921,9.697,0.020,0.021,0.011,sad
0.07,2865,2116,3029,2831,1853,0,2896,3606,179,127,2218,2461,170,31,2809,3743,0.745,2.519,9.689,0.041,0.028,-0.008,0.903,-2.911,9.572,0.010,0.023,0.010,sad
0.08,2861,2099,3023,2819,1886,0,2896,3614,140,117,2172,2429,183,25,2823,3751,0.778,2.461,9.675,0.041,0.031,-0.006,0.931,-2.892,9.685,0.012,0.017,0.009,sad
0.09,2854,2102,3011,2817,1875,0,2901,3617,127,89,2152,2405,191,21,2827,3753,0.728,2.444,9.665,0.038,0.030,-0.007,0.979,-2.907,9.697,0.012,0.017,0.013,sad
0.10,2849,2111,3010,2815,1871,0,2909,3626,109,84,2070,2359,173,20,2829,3758,0.797,2.442,9.663,0.042,0.030,-0.004,0.898,-2.878,9.601,0.013,0.017,0.011,sad
0.11,2837,2086,2997,2800,1827,0,2913,3634,89,42,1991,2207,155,8,2829,3764,0.797,2.480,9.639,0.042,0.026,-0.006,0.972,-2.909,9.639,0.020,0.017,0.011,sad
0.12,2831,2085,2988,2800,1744,0,2922,3639,45,63,1978,2147,117,11,2825,3768,0.711,2.497,9.697,0.035,0.031,-0.008,0.936,-2.875,9.661,0.018,0.016,0.011,sad
0.13,2813,2093,2983,2784,1635,0,2931,3654,61,61,1916,2099,83,11,2822,3769,0.771,2.485,9.701,0.028,0.028,0.001,0.931,-2.919,9.718,0.003,0.012,0.009,sad
0.14,2787,2096,2973,2759,1453,0,2944,3664,43,53,1957,1979,111,7,2787,3769,0.785,2.502,9.708,0.023,0.027,0.007,0.915,-2.897,9.685,0.005,0.015,0.014,sad
0.15,2761,2098,2966,2730,1422,0,2947,3670,43,58,1937,1994,105,3,2769,3769,0.797,2.473,9.692,0.025,0.024,0.001,0.934,-2.911,9.610,0.002,0.012,0.017,sad
0.16,2742,2097,2943,2710,1495,0,2929,3678,91,55,1942,1927,116,7,2767,3772,0.783,2.464,9.680,0.034,0.030,0.000,0.950,-2.885,9.701,0.004,0.020,0.011,sad
0.17,2727,2084,2928,2691,1581,0,2922,3683,41,53,1896,1892,143,0,2733,4005,0.761,2.425,9.680,0.033,0.033,-0.008,0.929,-2.875,9.610,0.006,0.015,0.015,sad
0.18,2723,2075,2922,2687,1616,0,2935,3689,62,5,1891,1886,123,8,2686,3767,0.850,2.464,9.682,0.036,0.029,-0.005,0.955,-2.911,9.728,-0.005,0.016,0.014,sad
0.19,2729,2069,2910,2672,1571,0,2929,3695,37,35,1865,1949,43,3,2621,3753,0.718,2.454,9.689,0.034,0.033,-0.006,0.967,-3.000,9.711,-0.002,0.020,0.016,sad
0.20,2717,2061,2893,2651,1535,0,2919,3693,89,5,1901,1911,82,2,2523,3732,0.759,2.430,9.634,0.037,0.036,-0.004,0.970,-2.904,9.615,-0.018,-0.007,0.007,sad
0.21,2710,2043,2883,2629,1590,0,2917,3703,45,1,1868,1935,52,2,2507,3735,0.800,2.428,9.713,0.034,0.031,-0.007,0.891,-2.957,9.637,-0.018,-0.003,0.014,sad
0.22,2704,2027,2869,2617,1574,0,2934,3711,41,2,1796,1896,72,1,2537,3749,0.773,2.447,9.675,0.042,0.030,-0.012,0.860,-2.974,9.610,0.006,0.003,0.001,sad
0.23,2697,2000,2845,2593,1514,0,2918,3708,51,5,1579,1801,73,0,2748,3805,0.771,2.452,9.728,0.047,0.033,-0.009,0.979,-2.923,9.639,0.023,0.015,-0.004,sad
0.24,2691,1982,2805,2549,1633,0,2917,3715,31,3,1446,1621,84,2,2631,3789,0.812,2.425,9.689,0.049,0.033,-0.006,0.970,-2.851,9.670,0.017,0.014,0.006,sad
0.25,2680,1914,2783,2496,1648,0,2879,3704,31,1,1208,1533,73,1,2695,3797,0.824,2.437,9.680,0.056,0.037,-0.010,0.939,-2.902,9.562,0.033,0.017,0.001,sad
0.26,2691,1829,2765,2481,1595,0,2821,3696,23,1,1392,1485,83,1,2724,3835,0.879,2.428,9.692,0.065,0.042,-0.014,0.950,-2.959,9.641,0.035,0.019,0.005,sad
0.27,2694,1745,2738,2492,1390,0,2705,3675,16,0,1622,1618,111,0,2751,3885,0.725,2.444,9.610,0.072,0.042,-0.011,0.960,-2.868,9.653,0.033,0.021,0.001,sad
0.28,2700,1648,2707,2507,1253,0,2602,3645,21,0,1484,1543,73,0,2795,3852,0.735,2.449,9.704,0.064,0.031,-0.010,0.960,-2.907,9.675,0.030,0.021,0.007,sad
0.29,2705,1586,2698,2512,1104,0,2494,3598,3,0,1707,1592,91,0,2855,3867,0.749,2.404,9.601,0.082,0.024,-0.014,0.948,-2.844,9.641,0.052,0.019,0.005,sad
0.30,2736,1623,2725,2559,1014,0,2382,3513,0,0,1755,1656,101,0,2861,3847,0.781,2.480,9.701,0.098,0.021,-0.010,0.948,-2.832,9.665,0.041,0.018,0.009,sad
0.31,2773,1660,2768,2604,991,0,2115,3405,2,4,2055,1855,41,51,2991,3888,0.745,2.468,9.661,0.094,0.021,-0.013,0.948,-2.828,9.610,0.043,0.019,0.015,sad
0.32,2810,1696,2798,2624,881,0,1869,3204,3,91,2126,2005,115,3,3146,3897,0.728,2.509,9.625,0.100,0.017,-0.013,1.056,-2.885,9.704,0.027,0.021,0.021,sad
0.33,2836,1745,2830,2658,793,0,1455,2896,8,109,2019,2075,173,4,3193,3899,0.735,2.567,9.773,0.108,0.013,-0.008,0.929,-2.808,9.610,0.034,0.023,0.030,sad
0.34,2858,1719,2854,2661,595,0,949,2278,37,165,2359,2263,151,11,3318,3878,0.670,2.404,9.608,0.105,0.018,-0.010,1.032,-2.823,9.658,0.006,0.021,0.030,sad
0.35,2871,1719,2880,2653,290,0,200,538,81,307,2474,2458,115,20,3403,3943,0.850,2.303,9.661,0.168,-0.003,0.024,0.967,-2.976,9.646,0.005,0.019,0.025,sad
0.36,2885,1641,2886,2623,157,0,0,0,90,383,2648,2521,203,25,3534,3915,1.046,2.638,9.881,0.239,0.007,0.064,0.917,-2.921,9.622,0.025,0.021,0.027,sad
0.37,2858,1023,2805,2390,17,0,0,0,147,828,2815,2600,226,36,3529,3925,0.108,1.827,9.182,0.563,-0.033,0.106,0.977,-2.969,9.608,0.062,0.015,0.046,sad
0.38,2770,657,2559,1807,0,0,0,0,247,1049,2920,2747,330,45,3625,3927,0.127,2.004,9.505,0.628,0.104,0.144,0.848,-2.921,9.785,0.060,0.016,0.031,sad
0.39,2559,365,1456,771,0,0,0,0,280,1071,2976,2821,445,41,3675,3933,1.508,2.717,10.269,0.874,0.205,0.066,0.989,-2.818,9.680,0.026,0.033,0.023,sad
0.40,1796,0,0,208,0,0,0,0,334,1239,2958,2873,585,127,3725,3935,1.432,2.808,10.192,0.868,0.276,-0.270,0.991,-2.890,9.697,-0.010,0.033,0.029,sad
0.41,406,0,0,0,0,0,0,0,613,1209,3191,2925,859,523,3753,3911,3.706,0.651,11.224,0.501,0.626,-0.862,0.953,-2.837,9.661,-0.014,0.038,0.027,sad
0.42,0,0,0,0,0,0,0,0,761,1299,3109,2956,1065,567,3756,3917,2.246,2.919,13.827,0.008,0.791,-0.665,0.931,-2.837,9.685,-0.014,0.034,0.024,sad
0.43,0,0,0,0,0,0,0,0,779,1225,3212,3005,1239,457,3767,3895,3.740,-0.891,9.517,-0.292,0.133,-0.113,0.883,-2.808,9.665,-0.031,0.028,0.020,sad
0.44,0,0,0,0,0,0,0,0,845,1162,3163,3061,1437,51,3771,3849,2.974,-1.044,9.199,-0.297,0.043,0.171,0.977,-2.883,9.579,-0.029,0.029,0.019,sad
0.45,0,0,0,0,0,0,0,0,916,1227,3165,3096,1509,51,3767,3804,2.385,-1.156,9.407,-0.356,-0.190,0.319,0.958,-2.873,9.658,-0.031,0.028,0.019,sad
0.46,0,0,0,0,0,0,0,0,1047,1255,3206,3131,1685,40,3772,3773,2.198,-0.536,10.185,-0.513,-0.289,0.467,0.986,-2.868,9.632,-0.043,0.022,0.017,sad
0.47,0,0,0,0,0,0,0,0,979,1247,3242,3164,1755,51,3755,3707,1.745,0.163,11.279,-0.765,-0.411,0.632,1.006,-2.919,9.685,-0.027,0.034,0.015,sad
0.48,0,0,0,0,0,0,0,0,1031,1321,3375,3171,1819,52,3783,3691,1.159,0.656,11.018,-1.012,-0.394,0.719,0.936,-2.854,9.720,-0.023,0.038,0.012,sad
0.49,0,0,0,0,0,0,0,0,1139,1335,3242,3241,1877,73,3753,3645,0.730,0.903,10.317,-1.097,-0.305,0.693,0.934,-2.914,9.780,-0.012,0.038,0.019,sad
0.50,0,0,0,0,0,0,0,0,1111,1418,3212,3315,1893,47,3755,3611,0.996,0.874,9.064,-1.000,-0.092,0.657,0.934,-2.904,9.634,-0.024,0.032,0.020,sad
0.51,0,0,0,0,0,0,0,0,1233,1401,3380,3319,1863,45,3753,3589,0.594,2.490,12.639,-0.852,-0.187,0.632,0.915,-2.952,9.550,-0.016,0.035,0.015,sad
0.52,0,0,0,0,0,0,0,0,1303,1448,3247,3335,1879,48,3751,3572,1.238,2.689,11.351,-1.231,-0.283,0.714,0.946,-2.923,9.668,-0.004,0.041,0.017,sad
0.53,0,0,0,0,0,0,0,0,1327,1453,3299,3363,1893,123,3737,3543,0.340,2.368,9.098,-1.089,-0.087,0.639,0.917,-2.933,9.704,-0.007,0.040,0.020,sad
0.54,0,0,0,0,0,0,0,0,1309,1437,3470,3366,1850,99,3733,3533,1.025,2.837,8.459,-0.844,0.040,0.633,0.893,-2.931,9.632,-0.007,0.037,0.022,sad
0.55,0,0,0,0,0,0,0,0,1385,1510,3048,3398,1777,47,3723,3492,0.632,3.474,9.158,-0.610,0.461,0.668,0.883,-2.964,9.692,-0.004,0.047,0.020,sad
0.56,0,0,0,0,0,0,0,0,1383,1435,3227,3407,1675,51,3816,3471,-0.230,3.996,10.458,-0.554,0.311,0.769,0.939,-2.907,9.601,0.010,0.048,0.018,sad
0.57,0,0,0,0,0,0,0,0,1401,1307,3232,3419,1671,78,3689,3481,-0.460,3.742,8.801,-0.518,0.055,0.761,0.903,-2.928,9.641,0.004,0.046,0.022,sad
0.58,0,0,0,0,0,0,0,0,1438,1395,3227,3576,1687,409,3647,3481,-1.341,3.692,7.714,-0.246,-0.075,0.638,0.886,-2.938,9.651,-0.003,0.048,0.025,sad
0.59,0,0,0,0,0,0,0,0,1506,1327,3232,3469,1643,355,3576,3443,-1.319,4.290,7.695,-0.043,0.103,0.408,0.848,-2.954,9.687,-0.002,0.061,0.022,sad
0.60,0,0,0,0,0,0,0,0,1531,1355,3252,3475,1633,329,3480,3591,-2.231,5.112,7.137,0.312,0.238,0.148,0.874,-2.892,9.694,-0.004,0.058,0.030,sad
0.61,0,0,0,0,0,0,0,0,1657,1381,3232,3464,1575,51,3208,3350,-2.227,6.785,6.220,0.709,0.239,0.007,0.852,-2.933,9.699,-0.020,0.047,0.039,sad
0.62,0,0,0,0,0,0,0,537,1847,1407,3322,3507,1437,51,3095,3213,0.153,-0.268,13.091,0.309,0.665,-0.199,0.836,-2.933,9.697,-0.031,0.060,0.031,sad
0.63,0,0,0,0,0,0,0,2186,1891,1481,3181,3517,1372,52,3076,3111,1.104,-0.536,6.433,1.035,0.101,-0.164,0.879,-2.875,9.699,-0.042,0.060,0.033,sad
0.64,0,0,0,0,0,0,0,2955,2004,1467,3380,3645,1166,51,2952,2531,0.383,1.597,11.126,1.310,-0.255,-0.045,0.852,-2.950,9.658,-0.075,0.047,0.023,sad
0.65,0,0,0,0,0,0,740,3295,2271,1449,3409,3477,696,52,2567,2316,1.259,1.805,10.044,1.254,0.035,-0.219,0.950,-3.079,9.500,-0.073,0.043,0.020,sad
0.66,0,0,0,0,0,0,1385,3472,2431,1512,3424,3484,363,51,2395,2107,0.960,2.634,11.080,1.128,0.099,-0.229,0.833,-2.756,9.807,-0.165,0.027,0.003,sad
0.67,0,0,0,0,0,0,1954,3578,2655,1565,3457,3549,105,27,1719,1586,2.703,2.595,9.740,0.869,0.024,-0.216,0.824,-3.146,9.821,-0.228,-0.006,-0.021,sad
0.68,0,0,0,0,207,0,2369,3659,2799,1544,3470,3591,45,16,548,1067,2.131,1.377,10.834,0.573,0.237,-0.291,0.385,-3.316,9.421,-0.574,-0.011,-0.068,sad
0.69,0,0,0,0,562,0,2492,3686,2812,1398,3467,3606,9,0,0,699,1.628,2.976,10.082,0.462,-0.096,-0.048,0.893,-2.717,9.416,-0.552,-0.062,-0.107,sad
0.70,0,0,179,7,899,0,2658,3713,2925,1005,3452,3596,11,35,3,309,0.680,2.143,9.838,0.315,-0.056,-0.121,0.481,-3.519,9.220,-1.024,-0.064,-0.257,sad
0.71,209,250,525,720,1200,0,2806,3739,3145,937,3542,3485,12,0,0,142,0.694,2.277,9.977,0.148,-0.024,-0.089,0.934,-3.871,9.376,-0.956,-0.095,-0.311,sad
0.72,377,370,928,1184,1303,0,2925,3749,3003,634,3288,3430,1,0,0,75,0.826,2.227,9.862,0.148,0.005,-0.072,0.936,-3.589,9.146,-1.052,-0.022,-0.348,sad
0.73,613,611,1458,1485,1445,0,3008,3760,3130,409,3222,3360,0,0,0,0,0.903,2.394,9.828,0.104,0.038,-0.067,1.231,-3.943,9.270,-1.164,0.088,-0.362,sad
0.74,882,722,1893,1872,1605,0,3071,3771,3235,213,3186,3163,0,0,7,0,0.900,2.150,9.692,0.146,0.058,-0.094,1.154,-4.132,9.294,-1.241,0.205,-0.340,sad
0.75,1124,1040,2279,2148,1532,0,3124,3775,3227,59,3068,3021,0,0,3,0,0.886,2.246,9.637,0.199,0.056,-0.117,1.109,-4.480,8.811,-1.276,0.245,-0.324,sad
0.76,1455,1319,2559,2400,1635,0,3177,3773,3281,0,2935,2915,0,0,0,0,0.663,2.342,9.653,0.142,0.044,-0.064,1.183,-4.855,9.031,-1.271,0.381,-0.248,sad
0.77,1709,1619,2803,2595,1845,119,3253,3778,3013,0,2195,2739,0,0,0,0,0.541,2.428,9.807,0.079,0.011,-0.030,1.094,-4.630,9.246,-1.505,0.339,0.021,sad
0.78,1921,1890,3035,2719,1940,298,3319,3775,2901,0,760,2397,0,0,0,0,0.927,2.363,9.744,0.101,-0.007,-0.011,0.776,-4.717,9.364,-1.652,0.208,0.298,sad
0.79,2102,2123,3199,2803,2074,339,3367,3773,2295,53,33,949,11,0,0,0,0.821,2.471,9.756,0.081,-0.014,-0.013,1.384,-6.316,10.824,-1.798,-0.142,0.954,sad
0.80,2232,2258,3291,2864,2239,816,3395,3761,1421,0,43,536,0,0,0,0,0.766,2.267,9.620,0.062,0.003,-0.016,1.427,-6.527,9.883,-1.553,0.566,1.427,sad
0.81,2382,2429,3389,2928,2406,908,3416,3748,857,0,30,520,0,41,73,0,0.807,2.354,9.742,0.077,0.003,-0.009,1.046,-6.792,8.689,-1.804,0.450,1.399,sad
0.82,2482,2516,3455,2990,2411,960,3414,3712,0,0,30,0,0,0,0,10,0.795,2.365,9.732,0.075,0.014,-0.014,1.824,-5.418,10.362,-0.911,0.681,1.603,sad
0.83,2604,2559,3507,3063,2512,1056,3425,3678,0,0,25,43,0,42,0,0,0.840,2.363,9.713,0.076,0.025,-0.021,3.201,-2.464,10.714,0.122,0.807,1.759,sad
0.84,2683,2559,3554,3118,2606,905,3411,3639,0,0,25,0,0,0,0,0,0.869,2.423,9.766,0.086,0.031,-0.025,2.454,-4.688,10.633,0.066,0.461,0.820,sad
0.85,2755,2610,3583,3171,2671,723,3379,3583,0,0,25,0,0,0,0,0,0.860,2.356,9.644,0.097,0.037,-0.021,3.381,-2.229,8.373,0.570,0.365,0.331,sad
0.86,2842,2613,3632,3205,2673,657,3329,3535,0,0,15,0,0,0,0,0,0.785,2.425,9.608,0.101,0.021,-0.021,2.535,-2.138,8.413,0.703,0.137,-0.092,sad
0.87,2915,2687,3670,3202,2725,385,3287,3431,0,0,23,0,0,1,0,0,0.838,2.428,9.627,0.094,0.011,-0.013,2.138,-2.112,8.729,0.803,0.024,-0.232,sad
0.88,2981,2753,3697,3267,2765,39,3218,3378,0,0,25,0,0,0,0,26,0.848,2.514,9.744,0.094,0.010,-0.015,0.397,-2.437,10.374,1.139,-0.218,-0.365,sad
0.89,3043,2796,3719,3317,2786,80,3168,3312,0,11,23,0,0,0,103,0,0.900,2.526,9.780,0.088,0.015,-0.014,-0.486,-2.200,9.503,1.486,-0.475,-0.208,sad
0.90,3088,2835,3745,3343,2837,0,3105,3235,0,0,23,0,0,0,0,0,0.776,2.495,9.701,0.076,0.027,-0.020,-0.359,-2.282,9.591,1.586,-0.503,-0.073,sad
0.91,3129,2845,3761,3397,2864,17,3070,3185,0,0,28,0,0,0,0,0,0.781,2.452,9.692,0.059,0.030,-0.017,0.479,-3.007,10.534,1.738,-0.614,-0.072,sad
0.92,3151,2902,3776,3423,2896,51,3018,3132,0,102,25,0,0,0,0,0,0.860,2.559,9.732,0.060,0.040,-0.018,0.783,-3.225,10.111,1.790,-0.703,-0.305,sad
0.93,3175,2913,3794,3446,2915,112,2963,3069,0,0,25,0,0,0,0,0,0.900,2.483,9.675,0.060,0.049,-0.019,0.910,-3.218,10.094,1.764,-0.695,-0.426,sad
0.94,3205,2897,3803,3482,2917,135,2894,3024,0,0,25,0,0,0,0,0,0.790,2.535,9.718,0.056,0.049,-0.022,1.001,-3.452,10.874,1.748,-0.701,-0.691,sad
0.95,3227,2923,3810,3497,2890,143,2789,2971,0,0,7,0,0,0,0,0,0.816,2.519,9.689,0.053,0.047,-0.014,0.081,-3.742,11.401,1.737,-0.709,-0.904,sad
0.96,3251,2906,3822,3518,2871,54,2667,2910,0,0,7,0,0,0,0,0,0.852,2.480,9.725,0.067,0.044,-0.013,0.081,-3.742,11.401,1.737,-0.709,-0.904,sad
0.97,3271,2902,3824,3536,2845,0,2543,2795,0,0,17,0,0,0,0,0,0.802,2.559,9.639,0.069,0.047,-0.010,-0.905,-3.278,10.173,1.602,-0.512,-0.800,sad
0.98,3281,2880,3823,3541,2799,0,2433,2691,0,0,23,111,0,0,0,0,0.790,2.631,9.651,0.063,0.053,-0.006,-0.757,-4.214,11.586,1.378,-0.213,-0.641,sad
0.99,3281,2862,3824,3543,2768,0,2369,2601,0,0,23,0,0,0,0,0,0.742,2.533,9.594,0.051,0.054,-0.005,-0.553,-4.846,12.730,1.459,-0.329,-0.637,sad
1.00,3302,2867,3830,3571,2762,0,2359,2557,0,0,104,0,0,0,0,0,0.807,2.495,9.608,0.056,0.047,-0.005,0.776,-4.877,10.218,1.486,-0.550,-0.701,sad
1.01,3328,2839,3834,3574,2747,14,2361,2559,0,0,23,0,0,0,0,0,0.761,2.497,9.656,0.042,0.052,-0.004,1.824,-5.514,8.531,1.086,-0.394,-1.004,sad
1.02,3330,2825,3841,3583,2750,49,2369,2586,0,0,23,0,0,3,0,0,0.716,2.478,9.675,0.033,0.054,-0.013,2.119,-6.941,10.408,1.006,-0.209,-1.215,sad
1.03,3344,2816,3839,3601,2695,96,2353,2496,0,0,17,0,17,0,0,0,0.718,2.504,9.622,0.046,0.050,-0.010,1.683,-7.491,9.388,1.266,0.075,-1.714,sad
1.04,3357,2791,3841,3617,2672,84,2268,2348,0,0,20,0,0,0,0,0,0.764,2.504,9.656,0.045,0.047,-0.010,0.718,-7.288,6.129,0.620,0.232,-1.887,sad
1.05,3361,2864,3849,3617,2559,4,2176,2082,0,0,20,0,0,0,0,0,0.752,2.471,9.716,0.063,0.040,-0.012,0.718,-7.288,6.129,0.620,0.232,-1.887,sad
1.06,3365,2862,3849,3624,2323,0,2060,1795,0,0,17,0,0,0,0,0,0.790,2.488,9.673,0.074,0.030,-0.007,-2.796,-9.000,3.898,-0.332,0.246,-1.291,sad
1.07,3373,2864,3855,3635,2118,0,1846,1488,0,0,20,0,0,0,0,0,0.721,2.519,9.720,0.075,0.049,-0.012,-3.405,-10.022,4.305,-1.058,0.595,-0.216,sad
1.08,3377,2881,3859,3639,2023,0,1616,1072,0,0,23,0,0,0,0,0,0.697,2.562,9.749,0.085,0.056,-0.013,3.414,-4.925,13.671,-0.637,0.975,0.246,sad
1.09,3355,2843,3858,3642,1923,0,1280,382,0,0,23,0,0,0,0,0,0.785,2.483,9.689,0.119,0.059,0.003,1.721,3.036,4.858,-1.257,0.044,-0.235,sad
1.10,3361,2823,3874,3580,1888,0,1130,0,0,0,23,0,0,0,0,139,0.867,2.543,9.687,0.145,0.075,0.002,-1.769,-0.807,11.360,-1.047,0.390,0.371,sad
1.11,3374,2852,3868,3655,1754,0,684,0,0,0,30,0,25,0,0,1321,0.838,2.193,9.704,0.209,0.083,0.013,0.637,-2.428,11.040,-1.144,-0.041,0.224,sad
1.12,3383,2787,3862,3663,1296,0,301,0,0,0,58,0,9,0,0,1927,0.824,2.638,9.673,0.404,0.132,0.109,1.365,-2.188,10.472,-1.052,-0.067,0.210,sad
1.13,3408,2725,3869,3669,1110,0,0,0,0,0,20,0,0,0,975,2779,0.792,2.622,9.749,0.540,0.156,0.161,-0.515,-3.697,13.556,-0.789,-0.758,0.015,sad
1.14,3441,2729,3850,3660,896,0,0,0,0,0,25,0,0,0,2139,3324,0.496,3.730,9.512,0.745,0.112,0.126,2.143,-2.605,10.369,-0.605,-1.120,-0.122,sad
1.15,3423,2684,3819,3637,326,0,0,0,0,0,30,17,0,0,2347,3473,0.950,2.332,9.024,0.868,0.079,0.248,2.559,-2.571,11.681,-0.427,-1.306,-0.078,sad
1.16,3495,2649,3808,3600,0,0,0,0,0,0,23,0,0,0,2843,3621,0.838,3.182,9.421,1.144,0.086,0.339,1.250,-0.996,9.541,-0.173,-0.391,-0.025,sad
1.17,3522,2625,3790,3536,0,0,0,0,0,0,107,0,26,0,2964,3749,0.656,4.185,10.271,1.192,0.148,0.385,2.169,-2.744,10.027,-0.104,-0.369,-0.040,sad
1.18,3602,2517,3747,3391,0,0,0,0,0,0,20,0,73,0,3153,3831,0.800,3.563,9.275,1.136,0.301,0.359,1.918,-2.107,9.543,-0.060,-0.337,-0.041,sad
1.19,3614,2448,3696,3357,0,0,0,0,0,0,23,0,38,0,3219,3886,0.910,3.773,9.412,1.078,0.463,0.319,1.949,-2.253,9.543,-0.051,-0.274,-0.037,sad
1.20,3626,2352,3662,3338,0,0,0,0,0,0,33,0,38,0,3371,3902,0.613,3.723,9.299,1.224,0.386,0.314,2.042,-2.203,9.527,-0.063,-0.188,-0.030,sad
1.21,3631,2331,3602,3292,0,0,0,0,0,7,20,0,49,0,3339,3925,0.879,4.250,9.306,1.120,0.488,0.255,2.176,-2.215,9.143,-0.088,-0.181,-0.029,sad
1.22,3614,2210,3526,3239,0,0,0,0,0,7,20,0,49,0,3339,3925,0.491,3.950,9.155,1.130,0.509,0.212,2.176,-2.215,9.143,-0.088,-0.181,-0.029,sad
1.23,3603,2016,3417,3200,0,0,0,0,0,7,20,0,49,0,3339,3925,0.541,4.350,9.201,1.084,0.492,0.159,2.176,-2.215,9.143,-0.088,-0.181,-0.029,sad
1.24,3571,1834,3234,3131,0,0,0,0,0,0,25,0,159,0,3448,3960,0.354,4.539,8.940,1.119,0.595,0.123,1.958,-2.452,9.742,-0.060,-0.018,0.026,sad
1.25,3539,1693,2918,3059,0,0,0,0,0,0,25,0,53,83,3516,3991,0.086,4.343,8.940,1.240,0.455,0.080,2.207,-2.193,9.340,-0.035,0.052,0.038,sad
1.26,3514,1611,2765,2999,0,0,0,0,0,52,28,0,85,0,3567,3997,-0.024,4.264,8.435,1.306,0.421,0.064,2.356,-2.119,9.021,-0.002,0.182,0.092,sad
1.27,3483,1535,2693,2924,0,0,0,0,0,0,23,0,31,0,3607,4015,-0.208,4.556,8.906,1.436,0.439,0.132,2.251,-2.028,8.782,-0.010,0.358,0.161,sad
1.28,3451,1532,2614,2871,0,0,0,0,0,0,0,0,139,0,3679,3957,0.084,4.635,8.780,1.614,0.488,0.161,2.509,-2.289,9.112,-0.003,0.519,0.216,sad
1.29,3364,1405,2496,2853,0,0,0,0,0,0,23,0,56,0,3640,4029,0.096,5.195,8.643,1.680,0.439,0.100,1.779,-2.447,9.780,-0.021,0.516,0.199,sad
1.30,3331,1169,2367,2785,0,0,0,0,0,0,176,0,47,0,3654,4061,-0.034,5.136,9.196,1.803,0.274,-0.070,1.365,-2.521,10.202,-0.031,0.448,0.167,sad
1.31,3116,848,2096,2606,0,0,0,0,0,0,25,0,23,0,3645,4054,0.438,5.856,9.929,1.848,-0.081,-0.513,1.465,-2.014,9.620,-0.052,0.309,0.181,sad
1.32,2979,609,1871,2368,0,0,0,0,0,0,25,0,23,0,3645,4054,-0.036,5.480,8.581,1.988,-0.183,-0.519,1.465,-2.014,9.620,-0.052,0.309,0.181,sad
1.33,2819,367,1581,2146,0,0,0,0,0,0,28,5,100,0,3682,4075,0.206,6.491,9.167,2.049,-0.168,-0.656,1.875,-2.538,9.701,-0.054,0.383,0.157,sad
1.34,2632,300,1303,1635,0,0,0,0,0,0,23,0,70,0,3682,4061,0.120,6.756,9.232,1.987,-0.138,-0.863,1.707,-2.442,11.399,-0.285,0.282,0.159,sad
1.35,2347,50,704,970,0,0,0,0,0,0,1471,0,63,0,3703,4085,-0.678,8.387,9.242,2.260,-0.271,-0.832,1.966,-2.945,9.950,-0.125,0.268,0.213,sad
1.36,1910,0,99,590,0,0,0,0,0,0,1663,0,98,0,3703,4086,0.175,7.609,8.241,2.037,-0.230,-1.116,1.707,-2.813,10.020,-0.034,0.186,0.173,sad
1.37,1137,0,0,13,0,0,0,0,0,0,1896,152,127,0,3737,4085,-0.405,7.843,8.210,2.052,-0.312,-1.124,1.571,-2.703,9.840,0.037,0.200,0.124,sad
1.38,386,0,0,0,0,0,0,0,1,62,2019,238,143,18,3772,4095,-0.488,7.068,12.345,1.464,-0.528,-1.307,1.396,-2.562,9.795,0.041,0.154,0.104,sad
1.39,0,0,0,0,0,0,0,0,3,126,2208,379,143,4,3797,4085,-0.632,4.530,12.831,0.473,-0.421,-1.681,1.338,-2.559,9.744,0.063,0.082,0.114,sad
1.40,0,0,0,0,0,0,0,0,6,138,2311,389,169,2,3823,4092,0.012,4.113,8.724,-0.122,-0.043,-1.969,1.511,-2.339,9.706,0.044,0.123,0.095,sad
1.41,0,0,0,0,0,0,0,0,3,116,2316,629,171,0,3831,4091,-0.819,1.956,7.970,-0.506,0.259,-2.266,1.551,-2.411,9.629,0.025,0.124,0.103,sad
1.42,0,0,0,0,0,0,0,0,29,232,2346,693,211,2,3846,4083,-0.124,4.374,9.756,-0.662,-0.080,-1.865,1.597,-2.466,9.725,0.027,0.175,0.139,sad
1.43,0,0,0,0,0,0,0,0,3,152,2346,781,239,61,3847,4087,1.389,3.172,9.371,-0.919,-0.347,-1.765,1.470,-2.837,10.192,-0.007,0.136,0.107,sad
1.44,0,0,0,0,0,0,0,0,2,171,2359,827,185,5,3855,4080,3.531,3.797,7.966,-1.173,-0.147,-1.427,1.377,-2.734,9.974,0.062,0.020,0.017,sad
1.45,0,0,0,0,0,0,0,0,3,184,2369,868,182,3,4006,4069,3.491,3.467,8.085,-1.304,0.118,-1.026,1.381,-2.409,9.689,0.030,0.018,0.001,sad
1.46,0,0,0,0,0,0,0,0,1,171,2367,838,219,5,3824,4076,2.950,4.290,8.291,-1.486,0.065,-0.576,1.499,-2.435,9.641,0.028,0.020,-0.001,sad
1.47,0,0,0,0,0,0,0,0,3,153,2372,810,271,3,3887,4052,2.476,4.223,7.774,-1.601,-0.070,-0.183,1.458,-2.377,9.661,0.021,0.006,0.010,sad
1.48,0,0,0,0,0,0,0,0,3,167,2372,773,299,3,3888,4073,2.119,4.027,7.259,-1.619,-0.085,0.120,1.437,-2.406,9.651,0.023,0.021,0.016,sad
1.49,0,0,0,0,0,0,0,0,0,173,2367,862,287,4,3933,4095,1.123,4.130,7.829,-1.606,-0.149,0.298,1.403,-2.397,9.668,0.028,0.053,0.027,sad
1.50,0,0,0,0,0,0,0,0,2,217,2372,871,284,5,3967,4062,0.383,4.010,8.126,-1.605,-0.331,0.398,1.475,-2.339,9.711,0.010,0.081,0.044,sad
1.51,0,0,0,0,0,0,0,0,5,218,2398,933,365,12,3917,4056,0.146,3.742,8.116,-1.581,-0.489,0.469,1.372,-2.294,9.610,0.000,0.099,0.081,sad
1.52,0,0,0,0,0,0,0,0,2,214,2395,999,375,4,3917,4056,-0.132,3.764,8.969,-1.570,-0.578,0.501,1.413,-2.339,9.572,0.002,0.126,0.104,sad
1.53,0,0,0,0,0,0,0,0,3,191,2428,1069,349,4,3918,3919,-0.388,4.077,9.941,-1.639,-0.621,0.505,1.415,-2.495,9.768,-0.013,0.119,0.120,sad
1.54,0,0,0,0,0,0,0,0,5,187,2449,1095,339,3,3945,4049,-0.553,4.190,10.271,-1.748,-0.638,0.474,1.305,-2.442,9.864,0.001,0.143,0.122,sad
1.55,0,0,0,0,0,0,0,0,3,232,2572,1041,217,2,3912,4043,-0.766,4.032,9.905,-1.811,-0.669,0.441,1.214,-2.155,9.864,-0.028,0.200,0.196,sad
1.56,0,0,0,0,0,0,0,0,3,232,2572,1041,217,2,3912,4043,-0.903,3.936,9.644,-1.781,-0.744,0.391,1.214,-2.155,9.864,-0.028,0.200,0.196,sad
1.57,0,0,0,0,0,0,0,0,1,185,2408,979,233,1,3893,4077,-0.575,4.027,9.926,-1.741,-0.812,0.359,1.367,-2.260,9.586,-0.088,0.258,0.273,sad
1.58,0,0,0,0,0,0,0,0,2,123,2326,1083,123,75,3853,4039,0.045,4.020,9.936,-1.711,-0.795,0.390,1.235,-2.658,10.166,-0.133,0.306,0.255,sad
1.59,0,0,0,0,0,0,0,0,4,139,2352,1263,117,2,3827,4071,0.242,3.677,9.883,-1.628,-0.757,0.476,1.154,-2.763,9.795,-0.092,0.191,0.223,sad
1.60,0,0,0,0,0,0,0,0,2,116,2341,1223,97,37,4021,4015,0.249,3.692,10.274,-1.524,-0.792,0.602,1.085,-2.591,9.759,-0.047,0.196,0.143,sad
1.61,0,0,0,0,0,0,0,0,3,121,2259,1288,117,3,3823,4088,0.261,3.670,10.896,-1.455,-0.855,0.741,1.070,-2.816,9.737,0.003,0.114,0.096,sad
1.62,0,0,0,0,0,0,0,0,5,151,2285,1287,155,3,3827,4088,0.007,3.579,10.999,-1.452,-0.815,0.854,1.137,-2.670,9.725,-0.007,0.085,0.072,sad
1.63,0,0,0,0,0,0,0,0,8,133,2249,1319,143,0,3832,4095,-0.761,3.211,11.085,-1.442,-0.774,0.897,1.097,-2.574,9.694,-0.015,0.065,0.059,sad
1.64,0,0,0,0,0,0,0,0,3,119,2449,1447,151,3,3827,4095,-1.539,3.031,11.358,-1.476,-0.787,0.856,1.085,-2.617,9.711,-0.015,0.058,0.041,sad
1.65,0,0,0,0,0,0,0,0,7,124,2270,1465,174,3,3823,4095,-2.093,2.844,11.509,-1.511,-0.783,0.730,1.092,-2.543,9.720,-0.017,0.059,0.047,sad
1.66,0,0,0,0,0,0,0,0,1,157,2280,1579,181,3,3815,4095,-2.167,2.840,11.406,-1.563,-0.735,0.570,1.159,-2.679,9.701,-0.026,0.059,0.038,sad
1.67,0,0,0,0,0,0,0,0,8,139,2290,1641,218,3,3814,4095,-1.824,2.770,10.851,-1.571,-0.610,0.394,1.030,-2.629,9.761,-0.012,0.056,0.035,sad
1.68,0,0,0,0,0,0,0,0,6,163,2265,1721,240,4,3817,4089,-1.269,2.655,10.048,-1.516,-0.472,0.265,1.097,-2.598,9.732,-0.014,0.050,0.035,sad
1.69,0,0,0,0,0,0,0,0,20,172,2270,1717,232,3,3799,4095,-0.869,2.725,10.659,-1.391,-0.463,0.163,1.015,-2.557,9.670,-0.015,0.048,0.031,sad
1.70,0,0,0,0,0,0,0,0,5,160,2308,1805,213,3,3721,4095,-0.599,3.699,12.031,-1.436,-0.584,0.148,1.032,-2.512,9.711,-0.019,0.037,0.040,sad
1.71,0,0,0,0,0,0,0,0,23,184,2270,1785,181,7,3800,4083,0.256,3.551,11.054,-1.528,-0.510,0.161,1.030,-2.545,9.749,-0.035,0.034,0.049,sad
1.72,0,0,0,0,0,0,0,0,25,182,2270,1809,165,9,3797,4078,0.275,3.462,9.838,-1.493,-0.340,0.208,1.039,-2.595,9.730,-0.041,0.041,0.052,sad
1.73,0,0,0,0,0,0,0,0,25,185,2270,1870,155,8,3789,4095,0.184,3.232,9.222,-1.350,-0.250,0.234,1.051,-2.624,9.687,-0.029,0.050,0.049,sad
1.74,0,0,0,0,0,0,0,0,17,189,2352,1908,171,12,3787,4077,0.170,3.730,10.089,-1.201,-0.299,0.280,1.022,-2.638,9.694,-0.027,0.054,0.051,sad
1.75,0,0,0,0,0,0,0,0,23,213,2372,1983,171,9,3784,4059,0.740,4.369,11.059,-1.159,-0.340,0.370,1.068,-2.665,9.790,-0.026,0.053,0.051,sad
1.76,0,0,0,0,0,0,0,0,35,221,2357,2071,160,33,3934,4056,1.025,4.911,10.934,-1.247,-0.293,0.545,1.030,-2.631,9.759,-0.031,0.054,0.050,sad
1.77,0,0,0,0,0,0,0,0,47,228,2367,2199,186,12,3784,4057,0.922,4.372,9.165,-1.227,-0.103,0.674,0.986,-2.691,9.749,-0.023,0.054,0.051,sad
1.78,0,0,0,0,0,0,0,0,111,186,2669,2276,283,27,3659,4051,0.237,4.456,8.224,-1.049,-0.015,0.778,0.977,-2.650,9.759,-0.016,0.061,0.046,sad
1.79,0,0,0,0,0,0,0,0,105,197,2372,2293,159,61,3771,4042,-0.225,4.592,7.887,-0.818,-0.115,0.848,0.974,-2.672,9.725,-0.007,0.061,0.042,sad
1.80,0,0,0,0,0,0,0,0,133,147,2387,2316,213,29,3767,4029,-0.266,5.073,7.324,-0.626,-0.124,0.799,1.049,-2.579,9.685,-0.021,0.059,0.040,sad
1.81,0,0,0,0,0,0,0,0,128,187,2369,2411,219,28,3771,4095,-1.355,5.198,7.621,-0.408,-0.191,0.666,0.962,-2.653,9.835,-0.027,0.052,0.047,sad
1.82,0,0,0,0,0,0,0,0,169,182,2382,2445,135,35,3769,4084,-1.745,5.689,8.229,-0.256,-0.278,0.467,0.955,-2.691,9.740,-0.026,0.054,0.047,sad
1.83,0,0,0,0,0,0,0,0,191,221,2382,2547,223,40,3759,3998,-1.788,5.945,7.580,-0.200,-0.199,0.217,0.955,-2.691,9.780,-0.020,0.056,0.041,sad
1.84,0,0,0,0,0,0,0,0,203,217,2426,2583,308,37,3753,3993,-1.949,5.574,6.088,-0.045,-0.016,-0.069,0.903,-2.665,9.732,-0.006,0.060,0.035,sad
1.85,0,0,0,0,0,0,0,0,269,232,2413,2622,297,43,3753,3964,-2.452,7.532,6.531,0.791,0.126,-0.544,0.962,-2.655,9.771,-0.002,0.046,0.026,sad
1.86,0,0,0,0,0,0,0,0,263,251,2454,2719,377,44,3741,3957,4.077,3.814,13.187,0.217,0.686,-0.604,0.929,-2.658,9.697,-0.015,0.043,0.026,sad
1.87,0,0,0,0,0,0,0,0,279,319,2520,2732,363,47,3718,3939,1.183,-2.983,12.819,0.088,0.549,-0.481,0.919,-2.631,9.778,-0.020,0.039,0.031,sad
1.88,0,0,0,0,0,0,0,1005,361,287,2531,2725,395,47,3677,3897,3.577,-3.002,5.104,0.959,-0.102,-0.278,0.922,-2.684,9.761,-0.041,0.050,0.026,sad
1.89,0,0,0,0,0,0,0,2289,484,279,2308,2758,415,52,3469,3821,2.195,1.841,11.921,1.012,-0.145,-0.096,0.936,-2.614,9.716,-0.060,0.042,0.030,sad
1.90,0,0,0,0,0,0,96,2955,493,342,2595,2758,389,112,3277,3773,0.189,-0.299,10.065,1.092,-0.204,-0.153,0.979,-2.634,9.677,-0.082,0.048,0.031,sad
1.91,0,0,0,0,0,0,540,3229,803,347,2643,2822,332,49,3037,3553,1.472,1.264,11.281,1.182,-0.436,-0.147,0.989,-2.629,9.761,-0.126,0.047,0.044,sad
1.92,0,0,0,0,0,0,1111,3419,1079,413,2730,2957,266,45,2854,3049,1.810,2.081,10.985,0.913,-0.577,-0.091,1.013,-2.883,9.711,-0.169,0.017,0.007,sad
1.93,0,0,0,0,0,0,1711,3563,1229,423,2679,3000,198,43,2616,2893,2.241,1.630,10.190,0.734,-0.428,-0.079,0.893,-2.871,9.713,-0.175,0.015,0.007,sad
1.94,0,0,0,0,0,0,2151,3661,1371,459,2725,3047,72,23,2166,2530,1.707,1.997,10.750,0.525,-0.440,-0.093,1.020,-2.866,9.646,-0.188,-0.006,-0.006,sad
1.95,0,0,0,0,0,0,2512,3747,1723,313,2833,3189,41,12,1453,1863,2.648,2.045,10.001,0.383,-0.430,-0.072,0.974,-2.562,9.670,-0.343,-0.025,-0.079,sad
1.96,0,0,0,0,101,0,2817,3823,1791,209,2915,3219,36,43,795,1545,1.331,1.561,10.326,0.299,-0.289,-0.090,1.015,-2.868,9.603,-0.376,-0.083,-0.057,sad
1.97,0,0,0,0,209,0,3003,3874,2069,153,2976,3256,14,1,1,755,2.112,1.585,10.034,0.260,-0.244,-0.080,0.886,-1.786,9.692,-0.955,-0.113,-0.260,sad
1.98,0,0,0,0,277,0,3131,3897,2303,127,2966,3213,17,1,31,167,2.555,1.355,8.928,0.256,-0.055,-0.097,1.307,-2.660,9.560,-1.164,-0.164,-0.341,sad
1.99,0,0,0,0,423,0,3267,3935,2479,82,2976,3191,0,0,72,0,2.978,1.755,9.565,0.258,0.274,-0.148,1.702,-3.263,9.565,-1.216,-0.151,-0.297,sad
2.00,0,0,0,0,436,0,3289,3937,2557,35,2981,3196,0,0,0,51,2.789,2.136,9.922,0.183,0.353,-0.100,1.085,-3.419,8.792,-1.081,-0.016,-0.298,sad
2.01,0,0,0,0,477,0,3317,3947,2678,0,3012,3181,0,29,0,0,2.327,1.875,9.797,0.073,0.555,-0.101,0.771,-3.795,9.627,-1.071,0.051,-0.313,sad
2.02,0,0,0,0,494,0,3323,3952,2845,0,3007,3097,0,0,0,0,1.657,1.489,9.874,0.085,0.561,-0.118,1.283,-3.582,9.337,-1.156,0.192,-0.390,sad
2.03,0,0,0,0,556,0,3327,3950,2855,0,3009,3109,0,0,0,0,1.384,1.652,10.199,0.092,0.512,-0.122,1.183,-3.977,9.215,-1.088,0.181,-0.340,sad
2.04,0,0,0,0,559,0,3330,3951,2839,0,3040,3006,0,0,0,0,1.530,1.762,9.955,0.082,0.426,-0.098,0.922,-4.185,9.079,-1.191,0.215,-0.355,sad
2.05,0,0,0,0,600,0,3335,3952,2918,45,2838,2963,59,0,0,0,1.499,1.482,9.567,0.097,0.395,-0.098,0.895,-4.154,9.246,-1.167,0.238,-0.271,sad
2.06,0,0,0,0,689,0,3357,3953,2915,0,2577,2925,0,0,0,42,1.477,1.401,9.409,0.160,0.380,-0.106,1.123,-4.463,9.052,-1.158,0.306,-0.250,sad
2.07,0,0,0,0,732,0,3370,3953,2906,27,2403,2905,0,0,0,0,1.860,1.614,9.503,0.201,0.421,-0.117,1.312,-4.549,8.930,-1.150,0.221,-0.188,sad
2.08,0,0,0,0,1059,0,3381,3964,2917,0,2290,2831,4,0,0,0,1.741,1.911,9.610,0.161,0.517,-0.124,1.367,-4.889,8.734,-1.169,0.229,-0.170,sad
2.09,0,0,0,0,1097,0,3394,3952,2943,0,2249,2786,0,45,0,0,1.968,1.587,9.175,0.174,0.625,-0.132,1.171,-4.906,8.849,-1.170,0.265,-0.157,sad
2.10,0,0,0,0,1168,0,3401,3957,2939,25,1545,2749,0,0,0,0,1.243,1.590,9.720,0.203,0.680,-0.139,1.132,-5.143,8.863,-1.176,0.230,-0.082,sad
2.11,0,0,0,0,1104,0,3401,3955,2969,81,1197,2798,0,0,0,0,0.620,1.276,10.271,0.246,0.686,-0.183,1.166,-5.035,8.839,-1.231,0.216,-0.085,sad
2.12,0,0,0,0,1209,0,3407,3953,2955,125,688,2769,5,0,0,0,0.895,1.918,10.048,0.249,0.574,-0.161,1.451,-5.212,8.502,-1.226,0.272,-0.042,sad
2.13,0,42,0,0,1232,0,3409,3952,2923,225,43,2695,16,0,0,47,1.226,1.932,10.080,0.233,0.457,-0.146,1.216,-5.425,8.492,-1.312,0.287,0.011,sad
2.14,64,185,61,0,1387,0,3431,3951,2813,209,33,2412,0,0,0,0,0.879,1.824,10.084,0.167,0.222,-0.114,1.197,-5.823,8.681,-1.425,0.291,0.217,sad
2.15,358,297,574,0,1424,0,3453,3952,2671,29,33,1976,0,0,0,0,1.037,2.023,10.233,0.242,0.161,-0.142,1.235,-6.318,8.933,-1.520,0.296,0.574,sad
2.16,624,599,901,95,1595,0,3467,3941,2651,17,30,1629,0,0,0,0,1.008,1.935,9.785,0.135,0.219,-0.116,0.649,-6.579,9.019,-1.606,0.079,0.731,sad
2.17,794,715,1440,505,1654,0,3483,3945,2589,0,35,1149,0,0,0,0,0.962,1.772,9.483,0.175,0.290,-0.135,0.824,-6.529,8.751,-1.613,0.207,1.049,sad
2.18,963,970,1989,1169,1571,0,3485,3935,2469,0,30,907,0,0,0,0,0.857,2.095,9.953,0.215,0.245,-0.171,0.266,-7.573,8.935,-1.844,0.056,1.294,sad
2.19,1031,1152,2347,1573,1638,247,3498,3920,2247,0,130,701,0,0,0,0,0.654,2.176,9.878,0.186,0.171,-0.134,0.656,-8.150,9.290,-1.832,-0.001,1.541,sad
2.20,1179,1319,2541,1843,1818,477,3511,3914,943,0,28,18,0,0,0,0,0.718,2.131,9.828,0.151,0.103,-0.100,-0.589,-9.610,7.992,-1.450,0.398,1.776,sad
2.21,1282,1485,2717,2060,1883,587,3522,3908,0,0,20,0,0,0,12,0,0.697,2.136,9.795,0.167,0.052,-0.092,-0.113,-7.135,10.202,-0.029,0.337,2.258,sad
2.22,1347,1595,2819,2196,2058,656,3533,3888,0,0,28,0,0,0,0,0,0.706,2.164,9.730,0.147,0.056,-0.062,0.675,-4.503,10.137,0.757,0.274,2.425,sad
2.23,1515,1735,2905,2326,2131,679,3537,3885,0,0,23,0,10,0,0,0,0.713,2.200,9.895,0.143,0.055,-0.074,2.753,-1.992,9.462,0.922,-0.287,1.227,sad
2.24,1618,1851,3003,2421,2115,656,3537,3863,0,0,7,0,0,0,0,0,0.690,2.210,9.735,0.149,0.023,-0.052,2.674,-2.365,8.598,1.241,-0.373,0.548,sad
2.25,1719,2003,3071,2507,2134,804,3536,3847,0,0,23,0,0,2,0,0,0.754,2.210,9.629,0.128,0.034,-0.054,2.919,-2.035,7.793,1.286,-0.393,0.168,sad
2.26,1879,2128,3165,2602,2262,921,3541,3824,0,0,17,0,0,0,0,0,0.716,2.248,9.819,0.141,0.026,-0.048,1.923,-2.808,8.547,1.475,-0.396,-0.435,sad
2.27,2037,2263,3238,2696,2324,1061,3535,3809,0,0,0,0,0,0,0,0,0.733,2.251,9.718,0.133,0.019,-0.035,0.211,-3.184,9.237,1.673,-0.463,-0.840,sad
2.28,2138,2359,3303,2768,2320,1127,3527,3797,0,0,23,0,0,0,0,0,0.728,2.342,9.771,0.115,0.017,-0.027,-0.769,-3.323,9.924,1.799,-0.571,-0.844,sad
2.29,2234,2453,3365,2832,2441,1216,3511,3775,0,0,28,0,0,0,0,0,0.737,2.270,9.732,0.103,0.023,-0.026,-1.915,-3.139,9.321,1.948,-0.766,-0.611,sad
2.30,2323,2517,3407,2895,2480,1200,3504,3757,0,0,33,0,0,0,0,0,0.745,2.315,9.713,0.094,0.007,-0.014,-1.343,-3.778,10.266,1.953,-0.786,-0.265,sad
2.31,2386,2589,3447,2942,2559,1139,3481,3721,0,0,17,0,0,0,0,0,0.716,2.279,9.711,0.104,-0.005,-0.001,-0.716,-4.197,10.908,2.013,-0.806,-0.188,sad
2.32,2448,2658,3504,3009,2624,859,3482,3692,0,0,17,38,0,0,0,0,0.721,2.380,9.804,0.100,-0.006,-0.003,0.800,-4.123,9.771,2.002,-0.835,-0.293,sad
2.33,2519,2705,3542,3055,2625,867,3456,3664,0,0,0,0,0,0,0,1,0.737,2.358,9.629,0.095,0.001,-0.004,1.666,-4.334,10.027,1.802,-0.794,-0.676,sad
2.34,2559,2771,3583,3088,2666,685,3428,3619,0,0,20,0,0,0,0,0,0.740,2.330,9.677,0.090,-0.013,-0.000,1.238,-4.621,10.915,1.749,-0.721,-0.926,sad
2.35,2631,2845,3626,3111,2721,607,3408,3583,0,0,20,0,0,0,0,0,0.814,2.389,9.804,0.078,0.002,-0.009,-0.740,-4.458,10.604,1.733,-0.622,-1.049,sad
2.36,2703,2899,3648,3147,2768,305,3366,3542,0,0,17,0,0,0,0,0,0.781,2.325,9.749,0.092,0.012,-0.010,-1.865,-4.563,11.389,1.599,-0.562,-0.704,sad
2.37,2757,2927,3670,3165,2806,158,3344,3508,0,0,17,0,0,0,0,0,0.778,2.418,9.756,0.070,0.013,-0.007,-1.209,-5.174,12.333,1.668,-0.585,-0.535,sad
2.38,2803,2954,3683,3195,2852,30,3321,3486,55,0,15,0,0,0,0,0,0.869,2.354,9.682,0.060,0.025,-0.010,-0.251,-4.949,10.465,1.687,-0.458,-0.333,sad
2.39,2832,2988,3696,3216,2869,0,3303,3469,0,0,17,0,58,27,0,0,0.840,2.363,9.694,0.069,0.033,-0.000,0.591,-4.798,9.187,1.444,-0.357,-0.254,sad
2.40,2865,2999,3708,3247,2875,0,3262,3440,0,0,17,0,0,0,13,3,0.730,2.363,9.665,0.071,0.032,-0.009,0.922,-4.336,8.085,1.172,-0.303,-0.347,sad
2.41,2889,3007,3712,3255,2894,0,3229,3409,0,0,20,0,0,0,0,0,0.776,2.447,9.730,0.056,0.029,-0.004,1.195,-5.468,10.934,0.788,-0.478,-0.588,sad
2.42,2901,3019,3727,3277,2901,0,3211,3394,0,0,17,0,0,0,0,0,0.749,2.401,9.704,0.053,0.030,-0.006,1.427,-5.267,10.096,1.112,-0.345,-0.888,sad
2.43,2928,3056,3730,3303,2924,0,3197,3394,0,0,17,0,0,0,57,0,0.752,2.370,9.732,0.049,0.037,-0.008,0.883,-4.566,8.217,0.986,-0.200,-0.962,sad
2.44,2937,3056,3743,3297,2938,77,3191,3396,0,0,0,0,0,0,0,0,0.725,2.385,9.704,0.040,0.037,-0.013,1.137,-5.234,9.115,0.727,-0.067,-1.125,sad
2.45,2965,3066,3746,3337,2957,157,3184,3386,0,0,17,0,0,0,0,0,0.833,2.404,9.728,0.049,0.036,-0.014,-0.637,-4.781,8.511,0.531,0.009,-1.006,sad
2.46,2992,3088,3757,3344,2960,240,3154,3375,17,0,58,0,115,0,0,0,0.781,2.418,9.711,0.048,0.035,-0.006,-1.039,-4.908,8.722,0.463,-0.236,-0.817,sad
2.47,3014,3071,3762,3364,2961,228,3132,3355,0,0,0,0,0,0,0,0,0.713,2.382,9.685,0.050,0.037,-0.008,-0.809,-4.511,7.300,0.269,-0.166,-0.338,sad
2.48,3023,3088,3767,3380,2958,176,3088,3331,0,46,20,0,0,0,0,0,0.766,2.387,9.699,0.054,0.034,-0.011,-0.122,-5.605,5.674,-0.861,-0.193,-0.198,sad
2.49,3039,3088,3775,3386,2948,194,3023,3303,0,0,33,0,0,0,0,0,0.771,2.406,9.716,0.055,0.029,-0.013,0.594,-5.365,5.713,-0.783,0.181,0.044,sad
2.50,3065,3099,3761,3403,2935,56,2919,3265,0,0,99,0,0,0,0,0,0.776,2.368,9.716,0.055,0.030,-0.009,2.849,-0.606,12.392,-0.324,0.467,-0.205,sad
2.51,3071,3090,3792,3407,2893,0,2823,3215,4,0,17,71,0,0,0,0,0.740,2.342,9.692,0.053,0.036,-0.009,1.161,1.391,7.640,-0.733,0.485,-0.122,sad
2.52,3099,3088,3789,3422,2832,0,2705,3118,0,0,15,0,0,0,0,0,0.742,2.394,9.694,0.069,0.039,-0.010,-0.512,0.429,9.242,-0.896,0.433,0.011,sad
2.53,3113,3097,3792,3439,2768,0,2528,2894,0,0,23,47,0,0,0,0,0.776,2.356,9.680,0.092,0.042,-0.003,-1.154,0.400,9.536,-1.423,0.124,0.381,sad
2.54,3130,3132,3807,3453,2703,0,2319,2512,0,57,23,0,0,0,0,685,0.723,2.401,9.656,0.099,0.031,0.001,0.390,-4.341,13.621,-1.220,-0.563,0.254,sad
2.55,3137,3154,3815,3467,2604,0,2067,1845,20,0,2,0,0,0,0,1144,0.778,2.454,9.627,0.120,0.021,0.005,1.626,-3.213,11.756,-1.043,-0.687,0.203,sad
2.56,3170,3184,3835,3485,2402,0,1735,802,0,0,28,0,0,0,473,2005,0.740,2.301,9.704,0.143,0.019,0.016,3.452,-2.528,9.701,-0.937,-0.537,0.187,sad
2.57,3214,3223,3849,3511,1904,0,1167,0,0,0,0,0,0,0,1166,2549,0.723,2.454,9.670,0.172,0.023,0.035,2.468,-2.301,9.606,-0.649,-0.262,0.137,sad
2.58,3236,3269,3859,3453,1581,0,731,0,0,0,10,0,0,0,1490,2762,0.749,2.174,9.603,0.189,0.013,0.032,2.140,-1.523,8.684,-0.722,-0.201,0.149,sad
2.59,3270,3314,3870,3531,1462,0,309,0,0,0,12,0,0,0,1861,3052,0.769,2.562,9.634,0.231,0.033,0.034,1.923,-1.963,9.155,-0.996,-0.258,0.257,sad
2.60,3297,3344,3887,3547,1363,0,0,0,0,0,12,0,99,0,2158,3256,0.704,2.710,9.730,0.305,0.051,0.046,0.867,-2.138,9.529,-0.191,0.542,0.294,sad
2.61,3326,3365,3895,3536,1047,0,0,0,0,0,5,0,0,0,2089,3337,0.539,3.682,9.512,0.334,0.042,0.090,1.245,-2.279,10.688,-0.118,0.501,0.295,sad
2.62,3334,3376,3899,3535,1045,0,0,0,0,0,5,0,0,0,2089,3337,0.694,2.588,9.570,0.399,0.041,0.088,1.245,-2.279,10.688,-0.118,0.501,0.295,sad
2.63,3345,3373,3904,3524,891,0,0,0,0,0,12,0,0,0,2145,3465,0.699,2.703,9.699,0.408,0.057,0.090,1.310,-3.122,10.424,-0.023,0.563,0.300,sad
2.64,3361,3372,3905,3513,994,0,0,0,0,0,12,19,4,0,2148,3263,0.783,2.909,9.610,0.438,0.060,0.113,1.245,-2.988,10.132,0.030,0.489,0.263,sad
2.65,3375,3362,3911,3499,868,0,0,0,0,0,12,11,0,0,2313,3549,0.673,2.851,9.644,0.430,0.059,0.116,1.286,-2.928,10.178,-0.036,0.345,0.211,sad
2.66,3399,3341,3920,3441,814,0,0,0,0,0,15,0,57,0,2491,3607,0.737,2.990,9.579,0.517,0.068,0.136,1.532,-2.677,9.802,0.044,0.365,0.145,sad
2.67,3413,3295,3919,3421,528,0,0,0,0,20,17,0,47,0,2485,3624,0.893,3.000,9.565,0.543,0.082,0.141,-0.005,-1.939,10.180,0.055,0.353,0.197,sad
2.68,3439,3170,3910,3348,554,0,0,0,0,0,20,0,43,0,2542,3651,0.867,3.165,9.651,0.594,0.060,0.153,1.312,-2.737,9.883,0.006,0.240,0.204,sad
2.69,3447,3069,3914,3312,390,0,0,0,0,0,20,0,54,0,2585,3660,0.764,3.213,9.455,0.576,0.062,0.139,1.288,-2.808,9.704,-0.023,0.156,0.186,sad
2.70,3458,2928,3904,3270,232,0,0,0,0,0,23,0,0,0,2601,3672,0.792,3.266,9.483,0.587,0.109,0.130,1.223,-2.729,9.795,-0.010,0.176,0.163,sad
2.71,3466,2832,3888,3237,142,0,0,0,0,3,20,0,55,0,2596,3683,0.807,3.424,9.404,0.592,0.113,0.139,1.238,-2.801,9.697,0.006,0.165,0.140,sad
2.72,3501,2787,3897,3217,93,0,0,0,0,0,23,18,45,0,2654,3689,0.718,3.558,9.261,0.591,0.120,0.139,1.154,-2.705,9.565,-0.009,0.110,0.137,sad
2.73,3483,2815,3888,3214,56,0,0,0,0,0,25,284,61,0,2591,3711,0.843,3.594,9.424,0.579,0.111,0.132,1.118,-2.624,9.665,-0.004,0.126,0.131,sad
2.74,3496,2796,3888,3216,0,0,0,0,0,27,28,429,79,0,2743,3708,0.764,3.687,9.400,0.571,0.127,0.127,1.125,-2.746,9.586,-0.012,0.136,0.138,sad
2.75,3515,2813,3885,3216,0,0,0,0,0,47,28,853,83,0,2776,3722,0.757,3.816,9.239,0.585,0.139,0.122,1.073,-2.849,9.764,-0.007,0.093,0.101,sad
2.76,3536,2770,3879,3216,0,0,0,0,3,103,263,1013,83,59,2927,3733,0.840,3.768,9.311,0.625,0.187,0.133,1.037,-2.672,9.761,0.001,0.052,0.072,sad
2.77,3538,2727,3856,3185,0,0,0,0,4,85,842,995,89,2,2971,3750,0.871,4.329,9.160,0.651,0.246,0.143,1.034,-2.763,9.811,-0.015,0.043,0.060,sad
2.78,3541,2642,3840,3190,0,0,0,0,8,137,1666,1147,77,3,3095,3749,0.950,4.183,9.031,0.771,0.292,0.185,1.065,-2.765,9.651,0.005,0.024,0.032,sad
2.79,3529,2522,3810,3184,0,0,0,0,44,190,1814,1303,87,6,3187,3761,0.900,3.907,9.471,0.905,0.456,0.175,0.958,-2.708,9.673,0.025,-0.054,-0.026,sad
2.80,3479,2462,3749,3181,0,0,0,0,0,215,2213,1433,75,3,3165,3775,0.994,4.621,9.052,0.950,0.519,0.174,0.984,-2.799,9.756,0.031,-0.082,-0.052,sad
2.81,3410,2501,3666,3152,0,0,0,0,3,253,2433,1389,93,2,3307,3803,0.974,4.879,8.724,0.937,0.570,0.130,1.199,-2.698,9.694,0.090,-0.093,-0.064,sad
2.82,3344,2415,3466,3039,0,0,0,0,0,315,2280,1115,125,3,3466,3832,0.702,5.157,9.036,0.897,0.577,0.015,1.475,-2.713,9.625,0.079,-0.156,-0.103,sad
2.83,3227,1974,2969,2832,0,0,0,0,3,309,2546,786,151,3,3563,3861,0.201,4.673,9.522,1.078,0.405,-0.359,1.030,-2.591,9.886,0.091,-0.143,-0.109,sad
2.84,3042,1159,2342,2467,0,0,0,0,3,793,2718,872,247,5,3690,4093,0.117,5.993,9.723,1.276,-0.269,-0.967,1.365,-2.890,9.742,0.078,-0.165,-0.097,sad
2.85,2592,581,1647,1481,0,0,0,0,2,911,2764,723,465,3,3795,3939,-0.342,4.760,10.994,1.401,-0.828,-1.498,1.199,-2.512,9.639,0.042,-0.149,-0.094,sad
2.86,2095,71,809,487,0,0,0,0,4,1021,2771,659,780,0,3833,3962,0.536,5.753,9.766,1.699,-0.770,-1.666,1.259,-2.418,9.668,0.041,-0.102,-0.052,sad
2.87,1346,0,41,0,0,0,0,0,124,1191,2838,797,1444,4,3911,3977,0.512,6.254,10.252,1.757,-0.337,-1.709,1.429,-2.648,9.759,0.012,-0.054,-0.013,sad
2.88,16,0,0,0,0,0,0,0,4,1229,2869,855,1989,4,3951,3980,1.477,2.428,13.879,0.766,0.158,-1.727,1.341,-2.555,9.665,0.008,-0.041,-0.008,sad
2.89,0,0,0,0,0,0,0,0,5,1235,2894,765,2169,4,3965,3976,1.726,0.421,10.539,0.102,0.322,-1.650,1.386,-2.437,9.491,-0.001,-0.014,0.014,sad
2.90,0,0,0,0,0,0,0,0,3,1391,2894,925,2314,31,3980,4025,0.448,3.634,11.926,-0.022,0.083,-1.119,1.401,-2.521,9.603,-0.019,0.019,0.033,sad
2.91,0,0,0,0,0,0,0,0,3,1429,2976,1006,2411,5,3992,3959,0.958,0.766,10.063,-0.402,-0.129,-1.117,1.286,-2.636,9.742,-0.024,0.032,0.039,sad
2.92,0,0,0,0,0,0,0,0,0,1317,2700,1071,2490,5,4008,3923,1.056,0.491,9.007,-0.653,-0.179,-1.055,1.262,-2.636,9.936,-0.028,0.030,0.034,sad
2.93,0,0,0,0,0,0,0,0,3,1432,2822,1273,2557,5,4004,3897,0.745,1.293,8.392,-0.817,-0.255,-0.946,1.377,-2.612,9.653,-0.031,0.040,0.039,sad
2.94,0,0,0,0,0,0,0,0,4,1417,2945,1399,2615,0,4009,3852,0.589,1.271,7.638,-0.938,-0.357,-0.830,1.413,-2.406,9.548,-0.045,0.062,0.060,sad
2.95,0,0,0,0,0,0,0,0,22,1381,2925,1469,2667,6,3955,3772,0.663,1.314,7.496,-0.968,-0.457,-0.668,1.350,-2.691,9.706,-0.039,0.069,0.067,sad
2.96,0,0,0,0,0,0,0,0,3,1400,2966,1559,2726,5,4011,3703,0.699,1.800,8.210,-1.011,-0.503,-0.503,1.310,-2.658,9.634,-0.039,0.072,0.058,sad
2.97,0,0,0,0,0,0,0,0,3,1484,3037,1639,2772,5,4013,3613,0.886,2.485,8.875,-1.134,-0.521,-0.336,1.355,-2.703,9.718,-0.033,0.074,0.061,sad
2.98,0,0,0,0,0,0,0,0,0,1469,3078,1691,2803,3,4095,3566,0.943,3.053,8.906,-1.263,-0.517,-0.152,1.283,-2.684,9.680,-0.034,0.075,0.067,sad
2.99,0,0,0,0,0,0,0,0,5,1533,3084,1819,2867,0,4013,3563,1.128,3.048,8.265,-1.298,-0.508,0.061,1.286,-2.765,9.768,-0.038,0.070,0.060,sad
3.00,0,0,0,0,0,0,0,0,0,1582,3135,1927,2813,5,4011,3563,1.104,3.338,8.590,-1.272,-0.483,0.274,1.348,-2.794,9.740,-0.008,0.076,0.054,sad
3.01,0,0,0,0,0,0,0,0,30,1567,3142,2078,2965,73,4009,3556,1.027,3.723,9.136,-1.285,-0.432,0.485,1.322,-2.823,9.790,-0.004,0.065,0.046,sad
3.02,0,0,0,0,0,0,0,0,3,1627,3158,2065,2967,0,4013,3754,0.766,4.061,9.694,-1.313,-0.423,0.673,1.298,-2.710,9.632,-0.008,0.056,0.042,sad
3.03,0,0,0,0,0,0,0,0,4,1706,3201,2111,2969,5,4013,3613,0.457,4.290,10.044,-1.332,-0.443,0.794,1.341,-2.658,9.639,-0.011,0.041,0.035,sad
3.04,0,0,0,0,0,0,0,0,3,1725,3227,2201,3060,4,4021,3603,0.330,4.563,10.487,-1.366,-0.462,0.857,1.336,-2.746,9.675,0.001,0.044,0.035,sad
3.05,0,0,0,0,0,0,0,0,5,1727,3229,2173,3107,4,4008,3629,0.244,4.827,10.726,-1.433,-0.483,0.866,1.262,-2.670,9.706,0.007,0.047,0.033,sad
3.06,0,0,0,0,0,0,0,0,5,1755,3242,2324,3163,0,4022,3646,0.292,4.626,10.295,-1.482,-0.451,0.841,1.286,-2.715,9.768,0.009,0.051,0.033,sad
3.07,0,0,0,0,0,0,0,0,5,1764,3242,2329,3157,5,4023,3661,0.328,4.621,10.003,-1.461,-0.404,0.792,1.197,-2.720,9.869,0.017,0.052,0.038,sad
3.08,0,0,0,0,0,0,0,0,3,1835,3242,2363,3179,6,4025,3705,0.637,4.592,9.902,-1.426,-0.362,0.733,1.221,-2.672,9.697,0.000,0.055,0.046,sad
3.09,0,0,0,0,0,0,0,0,4,1827,3145,2415,3171,5,4059,3709,0.982,4.549,9.780,-1.379,-0.331,0.703,1.288,-2.684,9.668,-0.005,0.060,0.052,sad
3.10,0,0,0,0,0,0,0,0,3,1864,3224,2452,3153,4,4025,3733,1.374,4.539,9.845,-1.314,-0.330,0.701,1.317,-2.710,9.713,-0.003,0.079,0.062,sad
3.11,0,0,0,0,0,0,0,0,1,1843,3222,2423,3096,6,3947,3739,1.815,4.827,10.582,-1.257,-0.390,0.764,1.355,-2.792,9.732,0.001,0.066,0.050,sad
3.12,0,0,0,0,0,0,0,0,3,1823,3209,2429,3055,3,3979,3763,2.327,4.985,10.673,-1.304,-0.344,0.863,1.178,-2.775,9.814,0.006,0.062,0.047,sad
3.13,0,0,0,0,0,0,0,0,3,1757,3181,2463,2980,0,4024,3783,2.296,4.585,9.819,-1.282,-0.250,0.960,1.202,-2.662,9.689,0.009,0.074,0.048,sad
3.14,0,0,0,0,0,0,0,0,0,1643,3137,2479,2839,5,4015,3799,1.872,4.326,9.469,-1.177,-0.201,1.009,1.166,-2.626,9.706,-0.008,0.085,0.072,sad
3.15,0,0,0,0,0,0,0,0,0,1565,3273,2517,2730,5,4009,3816,1.549,4.221,9.764,-1.085,-0.234,1.024,1.381,-2.660,9.570,-0.029,0.077,0.080,sad
3.16,0,0,0,0,0,0,0,0,5,1577,3130,2525,2705,4,4009,3830,1.358,3.910,9.752,-1.019,-0.273,1.008,1.144,-2.710,9.723,-0.026,0.054,0.058,sad
3.17,0,0,0,0,0,0,0,0,4,1605,3130,2525,2701,5,4036,3838,1.480,3.919,9.948,-0.977,-0.274,0.974,1.018,-2.753,9.946,-0.015,0.052,0.055,sad
3.18,0,0,0,0,0,0,0,0,1,1629,3145,2536,2734,5,4011,3839,1.578,3.685,10.175,-0.950,-0.200,0.905,1.068,-2.725,9.742,-0.010,0.049,0.043,sad
3.19,0,0,0,0,0,0,0,0,2,1704,3160,2597,2772,0,4008,3834,1.211,3.955,11.298,-0.976,-0.234,0.829,1.183,-2.658,9.730,-0.011,0.043,0.037,sad
3.20,0,0,0,0,0,0,0,0,4,1723,3171,2590,2759,4,4012,3829,0.955,3.847,11.360,-1.064,-0.361,0.750,1.211,-2.658,9.682,-0.009,0.047,0.044,sad
3.21,0,0,0,0,0,0,0,0,9,1765,3199,2616,2790,4,3998,3833,0.953,3.903,10.602,-1.098,-0.502,0.672,1.211,-2.672,9.694,-0.027,0.054,0.050,sad
3.22,0,0,0,0,0,0,0,0,5,1738,3365,2628,2771,5,4095,3817,1.125,3.905,9.998,-1.066,-0.565,0.620,1.128,-2.722,9.656,-0.036,0.055,0.061,sad
3.23,0,0,0,0,0,0,0,0,4,1749,3191,2591,2717,4,3993,3836,1.358,4.013,9.981,-1.027,-0.525,0.597,1.113,-2.701,9.732,-0.041,0.070,0.066,sad
3.24,0,0,0,0,0,0,0,0,55,1659,3188,2573,2636,4,3983,3803,1.441,4.022,9.680,-0.990,-0.430,0.606,1.135,-2.653,9.665,-0.055,0.087,0.090,sad
3.25,0,0,0,0,0,0,0,0,0,1671,3173,2572,2361,5,3957,3803,1.154,4.111,9.852,-0.947,-0.402,0.630,1.211,-2.574,9.632,-0.096,0.107,0.097,sad
3.26,0,0,0,0,0,0,0,0,13,1650,3176,2603,2143,0,3947,3799,0.864,4.142,10.116,-0.922,-0.472,0.682,0.984,-2.763,9.610,-0.067,0.062,0.053,sad
3.27,0,0,0,0,0,0,0,0,7,1605,3176,2643,2121,5,3948,3811,1.180,3.938,9.352,-0.899,-0.479,0.746,1.073,-2.804,9.658,-0.048,0.058,0.052,sad
3.28,0,0,0,0,0,0,0,0,7,1671,3201,2701,2031,0,3947,3795,1.199,4.037,9.354,-0.846,-0.371,0.820,1.092,-2.844,9.670,-0.022,0.070,0.041,sad
3.29,0,0,0,0,0,0,0,0,61,1658,3191,2743,2105,21,3945,3775,1.087,4.053,9.649,-0.816,-0.299,0.895,1.097,-2.832,9.613,-0.008,0.054,0.043,sad
3.30,0,0,0,0,0,0,0,0,93,1693,3186,2759,2133,25,3945,3768,0.931,3.838,9.081,-0.797,-0.224,0.955,1.176,-2.753,9.670,-0.029,0.057,0.037,sad
3.31,0,0,0,0,0,0,0,0,61,1798,3462,2805,2119,21,3944,3765,0.555,3.440,8.049,-0.686,-0.156,0.918,1.135,-2.796,9.735,-0.018,0.052,0.035,sad
3.32,0,0,0,0,0,0,0,0,101,1691,3217,2859,2215,29,3933,3781,-0.565,3.472,7.992,-0.508,-0.220,0.811,1.070,-2.813,9.685,-0.015,0.055,0.045,sad
3.33,0,0,0,0,0,0,0,0,200,1689,3219,2915,2301,43,3943,3749,-1.130,3.721,7.961,-0.245,-0.282,0.456,1.087,-2.794,9.699,-0.023,0.064,0.038,sad
3.34,0,0,0,0,0,0,0,0,367,1747,3380,2973,2389,51,3768,3700,-1.307,3.654,7.989,-0.029,-0.315,0.059,1.137,-2.691,9.620,-0.026,0.053,0.038,sad
3.35,0,0,0,0,0,0,0,0,581,1783,3109,3031,2488,51,3693,3637,-0.577,3.984,8.298,0.098,-0.366,-0.252,1.173,-2.768,9.548,-0.034,0.041,0.043,sad
3.36,0,0,0,0,0,0,0,0,527,1843,3263,3067,2509,5,3837,3589,0.304,4.005,7.412,0.214,-0.213,-0.379,1.056,-2.907,9.795,-0.046,0.049,0.046,sad
3.37,0,0,0,0,0,0,0,0,585,1869,3268,3055,2535,51,3939,3557,2.471,-1.587,7.207,0.961,-0.180,0.017,1.061,-2.892,9.766,-0.025,0.065,0.030,sad
3.38,0,0,0,0,0,0,0,0,717,1877,3268,3129,2613,51,3823,3509,0.182,-3.000,12.514,0.283,1.045,0.408,1.037,-2.820,9.632,-0.054,0.043,0.033,sad
3.39,0,0,0,0,0,0,0,0,747,1941,3334,3183,2654,83,3484,3493,0.204,-1.018,8.566,0.594,0.715,0.363,1.068,-2.911,9.716,-0.058,0.054,0.032,sad
3.40,0,0,0,0,0,0,0,0,755,1958,3365,3229,2723,52,3371,3453,-0.771,-0.364,9.591,0.746,0.603,0.226,1.123,-2.885,9.665,-0.060,0.060,0.019,sad
3.41,0,0,0,0,0,0,0,1286,904,1961,3380,3238,2659,48,3295,3427,-1.949,-1.298,9.479,0.908,0.411,-0.078,1.094,-2.974,9.649,-0.055,0.052,0.024,sad
3.42,0,0,0,0,0,0,0,2216,1015,1951,3427,3387,2659,111,3209,3371,-0.457,0.019,10.963,1.204,0.014,-0.355,1.025,-2.928,9.596,-0.067,0.046,0.021,sad
3.43,0,0,0,0,0,0,42,2704,1109,2077,3457,3419,2569,51,3060,3099,1.599,1.274,10.369,1.108,-0.157,-0.293,1.077,-3.043,9.524,-0.063,0.041,0.018,sad
3.44,0,0,0,0,0,0,575,2978,1171,2069,3478,3444,2491,52,3022,2995,3.151,1.132,8.722,1.183,0.024,-0.307,1.049,-2.892,9.577,-0.083,0.047,0.019,sad
3.45,0,0,0,0,0,0,982,3109,1364,2029,3493,3495,2291,39,2908,2747,2.088,2.485,11.339,1.155,-0.020,-0.312,0.836,-2.816,9.778,-0.119,0.026,0.009,sad
3.46,0,0,0,0,0,0,1402,3213,1615,1993,3503,3579,1725,51,2591,2403,1.686,2.600,10.542,0.830,0.041,-0.310,0.883,-2.921,9.572,-0.120,0.028,0.012,sad
3.47,0,0,0,0,0,0,1659,3285,1758,2039,3508,3613,1544,47,2357,2071,2.160,1.891,9.325,0.833,0.243,-0.321,1.185,-3.012,9.474,-0.128,0.014,0.009,sad
3.48,0,0,0,0,0,0,1934,3361,1891,2009,3506,3602,1035,47,1941,999,0.493,2.263,9.864,0.397,0.600,-0.213,0.991,-3.304,9.579,-0.152,0.041,0.012,sad
3.49,0,0,0,0,165,0,2090,3419,2103,2124,3508,3564,851,45,1415,239,0.371,2.035,11.037,0.307,0.456,-0.292,1.089,-2.916,9.601,-0.088,0.033,0.013,sad
3.50,60,9,0,0,304,0,2198,3470,2205,2078,3508,3687,443,47,1197,164,0.984,2.459,10.257,0.338,0.264,-0.208,1.010,-2.854,9.618,-0.224,0.022,-0.011,sad
3.51,450,199,74,0,560,0,2352,3487,2381,2215,3508,3717,103,0,589,2,0.745,2.267,10.111,0.307,0.200,-0.152,0.864,-3.203,9.572,-0.595,0.047,-0.147,sad
3.52,746,493,542,203,772,0,2433,3504,2455,2188,3514,3695,35,1,391,1,1.037,2.260,9.941,0.229,0.196,-0.151,1.101,-3.340,9.318,-0.462,0.033,-0.140,sad
3.53,1017,848,997,649,912,0,2509,3519,2415,2233,3508,3689,83,3,295,3,0.910,2.416,9.919,0.133,0.165,-0.138,1.039,-3.491,9.515,-0.470,0.011,-0.144,sad
3.54,1190,986,1511,1104,1072,3,2559,3521,2585,2185,3508,3683,19,0,121,2,0.855,2.231,9.807,0.126,0.200,-0.140,1.015,-3.551,9.443,-0.434,-0.037,-0.126,sad
3.55,1347,1051,1968,1534,1095,17,2608,3533,2675,2261,3503,3673,26,0,0,0,0.919,2.399,9.922,0.139,0.167,-0.128,1.075,-3.543,9.371,-0.422,-0.030,-0.092,sad
3.56,1510,1197,2291,1886,1153,10,2630,3530,2716,2207,3506,3671,37,0,0,0,0.735,2.476,9.816,0.082,0.118,-0.082,1.231,-3.687,9.266,-0.408,-0.037,-0.091,sad
3.57,1594,1355,2447,2105,1180,0,2673,3536,2724,2151,3388,3658,3,0,0,0,0.792,2.456,9.780,0.049,0.063,-0.043,1.149,-3.735,9.378,-0.430,-0.034,-0.082,sad
3.58,1659,1488,2544,2193,1200,0,2714,3547,2717,2219,3493,3615,2,0,0,57,0.848,2.310,9.668,0.055,-0.013,-0.018,1.197,-3.948,9.536,-0.435,-0.011,-0.100,sad
3.59,1695,1599,2634,2250,1327,0,2790,3557,2675,2205,3473,3599,3,0,0,0,0.776,2.370,9.744,0.038,-0.067,-0.009,1.276,-3.967,9.213,-0.455,-0.043,-0.084,sad
3.60,1727,1715,2695,2279,1430,0,2877,3583,2659,2168,3432,3555,3,0,8,0,0.819,2.377,9.759,0.008,-0.058,0.005,1.259,-4.027,9.191,-0.456,0.010,-0.113,sad
3.61,1712,1774,2711,2224,1451,0,2960,3617,2789,2069,3380,3445,7,0,0,0,0.843,2.464,9.807,-0.017,-0.058,0.030,1.317,-4.223,9.076,-0.527,0.033,-0.136,sad
3.62,1606,1823,2687,1971,1389,0,3042,3637,2723,1937,3429,3381,0,0,0,0,0.745,2.452,9.833,-0.054,-0.082,0.052,1.235,-4.233,9.096,-0.569,0.031,-0.144,sad
3.63,1406,1827,2611,1680,1444,0,3130,3669,2653,1614,3393,3294,0,0,0,0,0.929,2.126,9.646,-0.027,-0.042,0.031,1.384,-4.357,8.954,-0.645,0.061,-0.147,sad
3.64,1344,1872,2605,1637,1447,0,3189,3702,2611,1175,3380,3209,0,0,0,0,0.943,2.179,9.665,0.018,-0.005,0.005,1.437,-4.554,8.909,-0.829,0.116,-0.213,sad
3.65,1410,1884,2625,1648,1633,0,3244,3728,2529,947,3334,3224,0,0,1,5,1.034,2.289,9.665,0.022,0.024,-0.003,1.530,-4.884,9.041,-0.884,0.224,-0.222,sad
3.66,1348,1904,2651,1663,1728,0,3280,3755,2595,367,3109,3095,0,0,0,0,0.891,2.301,9.632,-0.001,0.030,0.008,2.399,-6.345,7.482,-1.051,0.241,-0.317,sad
3.67,1204,1936,2693,1712,1792,0,3326,3777,2453,89,2812,2932,0,0,0,0,0.917,2.188,9.795,-0.006,0.029,0.034,1.022,-4.724,9.146,-1.084,0.292,-0.013,sad
3.68,1008,1954,2732,1708,1824,288,3351,3806,2411,27,2695,2777,1,0,0,9,1.034,2.023,9.649,0.023,0.031,0.008,0.632,-5.097,8.593,-1.244,0.106,0.258,sad
3.69,1007,1980,2819,1865,1904,458,3398,3820,1993,0,701,2327,0,0,0,6,0.852,2.291,9.890,0.028,0.051,-0.004,1.053,-5.193,8.631,-1.289,-0.007,0.428,sad
3.70,1104,2018,2884,1953,2047,607,3429,3834,1503,0,40,1267,0,0,0,0,0.934,2.191,9.708,0.041,0.060,-0.011,0.797,-5.842,9.069,-1.465,-0.200,0.663,sad
3.71,1162,2035,2929,2085,1990,826,3444,3845,1268,0,30,916,0,105,0,0,0.907,2.188,9.723,0.064,0.050,-0.022,1.104,-6.388,9.191,-1.647,-0.308,0.873,sad
3.72,1210,2069,2959,2175,2033,1059,3470,3847,1043,0,33,507,0,0,0,0,0.819,2.222,9.811,0.054,0.056,-0.029,0.888,-6.620,9.469,-1.768,-0.443,1.001,sad
3.73,1280,2082,2989,2245,2110,1245,3484,3861,359,0,0,135,0,0,0,0,0.836,2.227,9.749,0.049,0.049,-0.025,1.492,-7.226,8.246,-1.897,-0.549,1.223,sad
3.74,1359,2099,2998,2272,2214,1375,3504,3865,277,0,25,0,0,0,0,0,0.812,2.251,9.704,0.055,0.046,-0.027,1.470,-7.549,10.025,-1.385,-0.230,1.353,sad
3.75,1439,2101,3019,2333,2253,1488,3520,3861,0,0,7,0,0,0,0,0,0.903,2.148,9.685,0.072,0.042,-0.037,0.632,-6.416,10.851,-0.859,0.052,1.529,sad
3.76,1490,2113,3029,2373,2178,1643,3529,3874,0,2,25,0,0,75,0,0,0.824,2.231,9.699,0.074,0.046,-0.033,-0.443,-3.936,10.228,0.244,-0.083,1.768,sad
3.77,1535,2127,3059,2421,2253,1714,3537,3865,0,0,23,0,0,52,0,0,0.845,2.239,9.773,0.060,0.051,-0.038,-1.156,-2.591,10.429,0.702,-0.434,1.679,sad
3.78,1600,2129,3091,2468,2303,1791,3551,3866,0,0,23,0,0,0,0,0,0.848,2.255,9.735,0.074,0.042,-0.035,1.252,-2.756,8.598,1.128,-0.213,1.824,sad
3.79,1663,2130,3107,2512,2306,1696,3536,3865,55,0,23,0,0,0,0,0,0.807,2.195,9.754,0.094,0.037,-0.037,1.982,-2.799,7.391,1.389,-0.164,1.440,sad
3.80,1755,2183,3139,2593,2309,1680,3536,3858,0,0,30,0,17,0,0,0,0.766,2.356,9.802,0.071,0.038,-0.033,2.701,-3.376,8.693,1.595,-0.277,0.832,sad
3.81,1806,2205,3162,2613,2307,1801,3535,3857,0,0,20,0,0,19,0,0,0.907,2.301,9.737,0.078,0.042,-0.023,2.964,-3.388,8.653,1.717,-0.290,0.437,sad
3.82,1820,2214,3185,2646,2336,1864,3497,3856,0,0,23,0,0,0,0,0,0.848,2.282,9.732,0.069,0.039,-0.027,1.867,-3.563,9.249,1.812,-0.335,-0.270,sad
3.83,1901,2238,3216,2683,2342,1969,3536,3851,0,0,0,0,0,0,0,0,0.804,2.332,9.773,0.069,0.037,-0.024,1.015,-3.687,9.668,1.876,-0.424,-0.508,sad
3.84,1951,2254,3235,2710,2375,2108,3541,3847,0,0,15,0,0,0,0,0,0.821,2.339,9.730,0.060,0.032,-0.019,-0.742,-3.646,9.464,1.907,-0.444,-0.593,sad
3.85,1983,2288,3261,2737,2382,2162,3536,3845,0,0,17,4,0,9,0,0,0.819,2.313,9.720,0.062,0.031,-0.018,-0.804,-4.226,10.779,2.008,-0.471,-0.302,sad
3.86,2013,2319,3289,2768,2377,2173,3539,3840,0,78,20,0,0,0,0,0,0.783,2.358,9.792,0.055,0.040,-0.018,-0.316,-4.183,10.451,2.014,-0.465,-0.209,sad
3.87,2053,2353,3307,2803,2431,2209,3547,3839,0,0,0,9,0,0,0,0,0.802,2.260,9.682,0.052,0.032,-0.021,0.620,-4.360,10.369,1.971,-0.496,-0.219,sad
3.88,2083,2367,3319,2818,2446,2128,3537,3841,0,0,17,0,0,10,0,0,0.809,2.289,9.682,0.068,0.028,-0.015,0.946,-3.996,9.740,1.793,-0.535,-0.405,sad
3.89,2119,2393,3339,2841,2447,2166,3534,3831,0,0,15,0,0,0,0,0,0.812,2.344,9.735,0.068,0.027,-0.017,1.135,-4.800,11.420,1.638,-0.672,-0.631,sad
3.90,2160,2416,3358,2861,2476,2183,3520,3824,0,0,17,0,0,0,0,104,0.749,2.351,9.685,0.058,0.022,-0.017,0.852,-4.678,11.147,1.676,-0.560,-0.703,sad
3.91,2189,2443,3377,2873,2534,2219,3525,3819,0,0,17,0,0,0,0,0,0.804,2.332,9.701,0.064,0.015,-0.011,-0.110,-3.907,9.409,1.477,-0.388,-0.615,sad
3.92,2223,2483,3391,2896,2490,2231,3523,3819,0,54,17,0,0,1,53,0,0.790,2.365,9.706,0.067,0.017,-0.018,0.395,-3.833,9.567,1.088,-0.222,-0.463,sad
3.93,2244,2486,3406,2912,2529,2268,3509,3804,0,58,20,0,0,43,0,0,0.800,2.346,9.685,0.054,0.021,-0.017,0.220,-4.463,11.368,1.058,-0.211,-0.402,sad
3.94,2271,2523,3416,2925,2590,2281,3506,3799,0,0,17,0,0,0,0,0,0.874,2.332,9.720,0.058,0.022,-0.018,0.127,-5.145,11.820,1.050,-0.762,-0.430,sad
3.95,2289,2512,3440,2942,2608,2257,3500,3797,0,0,23,0,0,0,0,0,0.840,2.334,9.670,0.061,0.016,-0.015,0.412,-4.836,10.376,0.988,-0.909,-0.458,sad
3.96,2334,2553,3460,2965,2656,2275,3491,3788,0,0,17,0,0,13,0,0,0.771,2.325,9.673,0.069,0.011,-0.015,1.477,-5.035,9.548,0.828,-0.768,-0.472,sad
3.97,2351,2557,3478,3003,2660,2267,3510,3782,0,0,15,0,0,0,0,0,0.833,2.346,9.689,0.070,0.017,-0.015,1.803,-5.217,8.669,0.667,-0.378,-0.626,sad
3.98,2416,2592,3504,3021,2695,2252,3472,3742,0,0,17,0,0,0,0,0,0.883,2.303,9.706,0.081,0.021,-0.011,1.350,-5.471,9.024,0.470,-0.165,-0.816,sad
3.99,2464,2589,3535,3046,2704,2190,3449,3717,0,0,17,0,0,0,0,5,0.838,2.373,9.646,0.088,0.021,-0.007,1.458,-5.533,8.892,0.380,-0.215,-0.888,sad
4.00,2519,2608,3571,3087,2749,2158,3425,3689,0,0,17,0,0,0,0,0,0.833,2.401,9.747,0.088,0.017,-0.006,1.946,-5.610,6.941,0.034,-0.292,-0.995,sad
4.01,2559,2631,3599,3120,2739,2158,3394,3664,18,0,20,0,0,0,0,53,0.860,2.346,9.697,0.080,0.022,-0.014,1.180,-5.770,7.513,-0.361,-0.618,-1.228,sad
4.02,2643,2685,3627,3143,2749,2119,3362,3629,0,0,17,37,0,0,0,0,0.804,2.382,9.720,0.085,0.016,-0.015,1.264,-5.871,8.023,-0.379,-0.377,-1.224,sad
4.03,2698,2704,3648,3170,2777,2128,3317,3583,0,0,17,0,0,0,3,0,0.838,2.452,9.732,0.074,0.016,-0.013,-0.464,-4.719,7.544,-0.509,0.083,-0.910,sad
4.04,2755,2704,3664,3202,2818,2073,3274,3565,0,0,17,0,0,0,0,0,0.862,2.433,9.711,0.072,0.025,-0.016,5.576,-2.485,7.154,-0.776,0.871,-0.920,sad
4.05,2805,2726,3686,3218,2834,1920,3192,3520,0,0,0,5,0,0,0,0,0.860,2.392,9.632,0.080,0.030,-0.019,1.211,-1.496,12.026,-0.260,1.302,-0.755,sad
4.06,2826,2713,3696,3244,2855,1796,3143,3475,0,0,35,0,0,0,0,0,0.869,2.409,9.658,0.083,0.029,-0.018,0.723,-0.699,9.062,-0.612,0.825,-0.845,sad
4.07,2871,2720,3713,3267,2860,1500,3062,3414,0,0,17,0,0,10,0,0,0.895,2.416,9.670,0.085,0.028,-0.010,-4.554,0.067,10.791,-0.405,0.540,-0.310,sad
4.08,2893,2760,3729,3292,2846,1110,2960,3347,0,0,17,0,0,0,0,0,0.893,2.406,9.694,0.086,0.028,-0.012,-6.215,0.208,11.128,-0.683,0.361,0.207,sad
4.09,2930,2796,3746,3297,2800,582,2762,3234,0,53,20,0,0,0,0,1036,0.922,2.423,9.675,0.096,0.040,-0.009,2.136,-2.033,10.448,-1.044,-0.215,0.249,sad
4.10,2967,2819,3751,3328,2704,0,2480,3037,0,0,0,0,0,0,0,1653,0.883,2.466,9.632,0.106,0.036,-0.003,1.736,-2.772,10.690,-0.772,-0.288,0.135,sad
4.11,3007,2834,3761,3358,2618,0,2224,2743,0,0,15,0,0,0,61,2285,0.886,2.509,9.658,0.114,0.038,0.001,0.893,-1.604,9.345,-0.814,-0.312,0.107,sad
4.12,3048,2864,3775,3380,2454,0,1950,2213,0,0,0,0,0,0,889,2660,0.828,2.495,9.651,0.126,0.045,-0.002,2.495,-3.263,10.779,-0.846,-0.416,0.149,sad
4.13,3091,2881,3790,3411,2110,0,1506,1426,0,0,15,0,0,0,1403,2911,0.816,2.516,9.653,0.141,0.048,0.003,2.267,-2.425,9.450,-0.559,-0.072,0.171,sad
4.14,3129,2916,3811,3425,1727,0,1182,81,0,0,15,0,0,0,1627,3020,0.876,2.433,9.737,0.116,0.058,0.008,2.662,-3.713,11.243,-0.566,0.671,0.213,sad
4.15,3145,2932,3826,3456,1590,0,718,0,0,0,0,0,0,0,1787,3195,0.857,2.634,9.668,0.154,0.059,0.008,1.183,-2.593,9.675,-0.218,0.430,0.357,sad
4.16,3184,2909,3827,3485,1348,0,368,0,0,0,17,0,8,0,1939,3373,0.888,2.607,9.670,0.196,0.055,0.026,-0.802,-1.879,11.040,-0.100,0.461,0.370,sad
4.17,3212,2857,3838,3489,1298,0,0,0,0,9,17,0,0,0,2104,3415,0.812,2.586,9.558,0.288,0.079,0.063,0.764,-2.988,10.113,0.068,0.366,0.229,sad
4.18,3222,2863,3841,3505,921,0,0,0,88,0,17,0,0,0,2119,3317,0.852,2.418,9.620,0.275,0.077,0.056,0.390,-2.069,10.769,-0.080,0.223,0.277,sad
4.19,3248,2803,3853,3497,1072,0,0,0,0,0,15,0,59,38,2311,3533,0.781,2.373,9.634,0.381,0.090,0.078,1.516,-3.366,10.060,-0.014,0.113,0.150,sad
4.20,3280,2772,3851,3472,818,0,0,0,0,0,17,37,0,0,2298,3561,0.682,3.773,9.744,0.495,0.127,0.148,1.331,-3.002,9.850,0.040,0.112,0.092,sad
4.21,3293,2742,3850,3462,576,0,0,0,0,0,20,0,73,0,2592,3594,0.934,2.626,9.596,0.421,0.104,0.112,1.130,-2.782,9.797,0.021,0.075,0.099,sad
4.22,3322,2729,3851,3427,490,0,0,0,0,0,17,0,67,31,2579,3613,0.728,3.043,9.541,0.427,0.089,0.127,1.130,-2.782,9.797,0.021,0.075,0.099,sad
4.23,3347,2733,3854,3402,358,0,0,0,0,0,20,0,78,0,2605,3635,0.682,2.959,9.479,0.475,0.106,0.144,1.188,-2.655,9.754,-0.021,0.075,0.114,sad
4.24,3372,2763,3850,3381,162,0,0,0,0,0,23,0,81,0,2713,3667,0.761,2.890,9.534,0.480,0.096,0.141,1.267,-2.650,9.610,-0.003,0.080,0.132,sad
4.25,3376,2760,3847,3344,187,0,0,0,0,0,23,0,81,0,2713,3683,0.733,3.100,9.507,0.488,0.103,0.150,1.132,-2.679,9.606,-0.033,0.078,0.150,sad
4.26,3394,2752,3840,3315,176,0,0,0,22,2,20,0,73,0,2746,3683,0.749,3.182,9.378,0.494,0.102,0.149,1.180,-2.780,9.725,-0.016,0.126,0.132,sad
4.27,3414,2736,3835,3267,162,0,0,0,46,0,43,263,93,0,2776,3701,0.740,3.316,9.388,0.488,0.096,0.133,1.223,-2.725,9.567,-0.028,0.106,0.140,sad
4.28,3443,2718,3835,3247,0,0,0,0,0,0,23,723,59,3,2770,3577,0.869,3.354,9.438,0.483,0.089,0.122,1.140,-2.847,9.653,-0.041,0.103,0.135,sad
4.29,3440,2770,3833,3231,0,0,0,0,0,1,391,711,58,0,2799,3659,0.795,3.433,9.421,0.496,0.082,0.114,1.056,-2.854,9.785,-0.044,0.089,0.105,sad
4.30,3450,2747,3823,3216,0,0,0,0,0,26,468,978,55,0,2872,3695,0.871,3.524,9.352,0.517,0.086,0.098,1.068,-2.964,9.790,-0.007,0.036,0.038,sad
4.31,3447,2672,3803,3198,0,0,0,0,19,85,1335,999,61,4,2999,3820,0.766,3.551,9.290,0.527,0.121,0.080,1.020,-2.880,9.787,0.018,0.015,0.018,sad
4.32,3444,2559,3798,3191,0,0,0,0,8,137,1440,1143,84,4,3129,3772,0.745,3.642,9.325,0.527,0.138,0.091,1.120,-2.866,9.651,0.033,-0.012,-0.007,sad
4.33,3436,2519,3776,3184,0,0,0,0,5,207,1635,1087,111,3,3217,3798,0.721,3.905,9.249,0.537,0.144,0.099,1.068,-2.801,9.761,0.044,-0.011,-0.020,sad
4.34,3426,2459,3741,3158,0,0,0,0,2,173,1712,981,81,3,3253,3812,0.711,3.881,9.222,0.509,0.131,0.100,1.070,-2.804,9.704,0.048,-0.020,-0.030,sad
4.35,3413,2447,3712,3117,0,0,0,0,3,147,1778,857,105,3,3321,3835,0.721,4.135,9.258,0.492,0.131,0.079,1.087,-2.787,9.752,0.047,-0.033,-0.029,sad
4.36,3393,2405,3661,3022,0,0,0,0,0,111,2055,745,102,4,3484,3864,0.833,4.221,9.177,0.473,0.151,0.054,1.049,-2.595,9.720,0.042,-0.042,-0.022,sad
4.37,3319,2318,3543,2854,0,0,0,0,0,116,2154,781,120,3,3427,4007,0.922,4.168,9.129,0.501,0.120,0.011,1.202,-2.739,9.632,0.044,-0.040,-0.018,sad
4.38,3184,2131,3331,2677,0,0,0,0,56,149,2234,874,69,2,3491,3917,0.941,4.343,9.072,0.652,0.126,-0.047,1.214,-2.713,9.697,0.063,-0.038,-0.011,sad
4.39,2943,1706,3039,2314,0,0,0,0,2,175,2280,974,153,0,3529,3940,0.711,3.979,9.548,0.814,-0.071,-0.192,1.305,-2.665,9.663,0.033,-0.068,-0.021,sad
4.40,2627,1113,2559,1652,0,0,0,0,3,188,2311,927,183,4,3613,3986,0.031,5.231,11.193,1.070,-0.587,-0.581,1.247,-2.947,9.742,0.060,-0.063,-0.040,sad
4.41,2158,441,1674,606,0,0,0,0,2,264,2556,820,246,4,3701,4021,1.094,4.472,10.843,1.256,-0.771,-1.056,1.226,-2.528,9.491,0.044,-0.088,-0.042,sad
4.42,1579,119,455,0,0,0,0,0,18,488,2584,855,361,3,3769,4051,0.038,4.377,10.822,1.235,-0.786,-1.097,1.223,-2.758,9.732,0.031,-0.087,-0.034,sad
4.43,285,0,0,0,0,0,0,0,3,474,2684,803,429,5,3795,4054,2.471,3.163,12.670,0.611,-0.248,-1.292,1.386,-2.734,9.656,0.044,-0.092,-0.040,sad
4.44,0,0,0,0,0,0,0,0,0,507,2684,630,547,3,3823,4060,2.047,0.903,11.866,0.131,0.135,-1.247,1.343,-2.768,9.692,0.040,-0.082,-0.049,sad
4.45,0,0,0,0,0,0,0,0,3,583,2641,543,687,0,3729,4070,-0.103,-0.373,10.836,-0.230,0.277,-1.395,1.391,-2.863,9.859,0.051,-0.117,-0.069,sad
4.46,0,0,0,0,0,0,0,0,0,659,2735,483,845,4,3939,4055,0.103,1.513,13.012,-0.644,-0.051,-1.217,1.396,-2.602,9.574,0.055,-0.119,-0.071,sad
4.47,0,0,0,0,0,0,0,0,3,665,2674,469,909,4,3895,4095,1.609,0.587,9.517,-0.859,-0.064,-1.259,1.374,-2.581,9.706,0.030,-0.094,-0.053,sad
4.48,0,0,0,0,0,0,0,0,2,702,2741,381,1199,0,3805,4062,1.547,0.165,8.890,-0.981,0.011,-1.262,1.391,-2.617,9.572,0.031,-0.071,-0.029,sad
4.49,0,0,0,0,0,0,0,0,3,960,2897,345,1403,10,3928,4063,1.683,0.905,9.294,-1.078,-0.135,-1.196,1.477,-2.564,9.732,0.017,-0.047,-0.010,sad
4.50,0,0,0,0,0,0,0,0,3,1047,2751,509,1559,3,3943,4057,2.286,0.860,8.916,-1.177,-0.198,-1.059,1.583,-2.705,9.713,0.014,0.031,0.022,sad
4.51,0,0,0,0,0,0,0,0,2,1043,2771,507,1637,0,3949,4059,2.540,1.144,8.279,-1.195,-0.196,-0.884,1.377,-2.660,9.766,0.013,0.056,0.040,sad
4.52,0,0,0,0,0,0,0,0,2,1081,2679,492,1719,0,3956,4053,2.485,1.305,8.222,-1.125,-0.217,-0.672,1.250,-2.634,9.876,-0.009,0.054,0.046,sad
4.53,0,0,0,0,0,0,0,0,10,1121,2792,552,1711,4,4028,4027,2.464,1.750,9.002,-1.042,-0.317,-0.420,1.314,-2.583,9.771,-0.015,0.060,0.042,sad
4.54,0,0,0,0,0,0,0,0,4,937,2828,589,1613,4,3876,4046,2.404,2.349,9.792,-1.023,-0.428,-0.121,1.439,-2.500,9.531,-0.015,0.076,0.063,sad
4.55,0,0,0,0,0,0,0,0,4,861,2771,711,1465,2,4095,4091,2.342,2.490,10.015,-1.031,-0.495,0.131,1.475,-2.612,9.507,-0.026,0.104,0.084,sad
4.56,0,0,0,0,0,0,0,0,3,805,2764,843,1271,5,3967,4031,1.776,2.737,10.221,-1.041,-0.509,0.326,1.355,-2.579,9.644,-0.027,0.119,0.098,sad
4.57,0,0,0,0,0,0,0,0,3,743,2766,921,1003,3,3957,4043,1.338,2.799,10.348,-1.060,-0.471,0.469,1.374,-2.557,9.474,-0.047,0.125,0.116,sad
4.58,0,0,0,0,0,0,0,0,4,747,2764,1086,789,3,3915,4091,1.099,2.866,10.724,-1.070,-0.434,0.553,1.360,-2.617,9.572,-0.036,0.140,0.116,sad
4.59,0,0,0,0,0,0,0,0,3,715,2761,1263,728,3,3967,4051,0.939,3.105,11.138,-1.123,-0.358,0.600,1.168,-2.684,9.699,-0.034,0.173,0.145,sad
4.60,0,0,0,0,0,0,0,0,3,589,2751,1435,597,3,3932,4009,0.809,3.007,10.609,-1.180,-0.282,0.598,1.451,-2.670,9.629,-0.047,0.200,0.165,sad
4.61,0,0,0,0,0,0,0,0,3,607,2756,1653,569,3,3932,4059,0.668,2.873,10.063,-1.160,-0.233,0.545,0.766,-3.069,10.285,-0.008,0.143,0.132,sad
4.62,0,0,0,0,0,0,0,0,2,626,2769,1824,533,0,3931,4061,0.860,2.909,10.336,-1.112,-0.232,0.472,1.094,-2.837,9.797,-0.018,0.115,0.101,sad
4.63,0,0,0,0,0,0,0,0,4,646,2735,1828,495,4,3931,4015,1.195,2.976,10.264,-1.094,-0.211,0.420,1.207,-2.777,9.706,-0.012,0.112,0.088,sad
4.64,0,0,0,0,0,0,0,0,2,652,2797,1951,453,10,3930,4067,1.501,2.911,9.953,-1.027,-0.143,0.373,1.199,-2.705,9.766,-0.020,0.105,0.084,sad
4.65,0,0,0,0,0,0,0,0,4,695,2812,2059,445,5,3925,4060,1.513,2.983,10.333,-0.965,-0.127,0.338,1.458,-2.739,9.467,-0.027,0.087,0.076,sad
4.66,0,0,0,0,0,0,0,0,7,731,2817,2073,440,0,3926,4057,1.528,3.172,10.654,-0.962,-0.172,0.301,1.250,-2.784,9.658,-0.009,0.072,0.063,sad
4.67,0,0,0,0,0,0,0,0,14,743,2735,2123,471,7,3910,4059,1.650,3.199,10.922,-0.971,-0.219,0.247,1.089,-2.729,9.744,-0.007,0.067,0.056,sad
4.68,0,0,0,0,0,0,0,0,18,773,2851,2175,519,2,3929,4051,1.836,3.280,10.398,-1.011,-0.269,0.237,1.049,-2.725,9.692,-0.008,0.062,0.061,sad
4.69,0,0,0,0,0,0,0,0,17,981,2871,2205,529,7,3924,4047,1.906,3.163,10.125,-0.956,-0.317,0.248,1.128,-2.782,9.754,-0.019,0.062,0.058,sad
4.70,0,0,0,0,0,0,0,0,25,1048,2881,2171,574,10,3919,4037,1.856,3.409,10.637,-0.937,-0.423,0.316,1.238,-2.722,9.610,-0.022,0.041,0.053,sad
4.71,0,0,0,0,0,0,0,0,26,1102,2904,2293,599,9,3933,4095,2.037,3.335,10.345,-0.940,-0.491,0.388,1.140,-2.784,9.639,0.000,0.040,0.046,sad
4.72,0,0,0,0,0,0,0,0,25,1151,2925,2284,652,13,3931,4019,2.011,3.211,9.510,-0.897,-0.463,0.452,1.063,-2.686,9.634,-0.011,0.039,0.049,sad
4.73,0,0,0,0,0,0,0,0,24,1208,2966,2343,824,9,3947,4008,2.025,3.251,9.807,-0.779,-0.441,0.527,1.135,-2.789,9.735,-0.012,0.041,0.046,sad
4.74,0,0,0,0,0,0,0,0,27,1331,2940,2389,932,19,3944,3993,2.241,3.589,10.467,-0.790,-0.352,0.625,1.156,-2.770,9.634,-0.014,0.037,0.043,sad
4.75,0,0,0,0,0,0,0,0,31,1333,2966,2377,1095,9,3946,3978,1.944,3.424,10.175,-0.799,-0.247,0.706,1.137,-2.725,9.716,-0.028,0.025,0.048,sad
4.76,0,0,0,0,0,0,0,0,23,1372,3007,2479,1323,11,3951,3955,1.697,3.385,10.036,-0.782,-0.187,0.752,1.176,-2.650,9.673,-0.038,0.021,0.050,sad
4.77,0,0,0,0,0,0,0,0,40,1469,3012,2650,1753,21,3959,3885,1.446,3.385,10.082,-0.805,-0.294,0.787,1.034,-2.749,9.713,-0.037,0.014,0.043,sad
4.78,0,0,0,0,0,0,0,0,84,1549,3053,2720,2043,24,3946,3709,1.662,3.124,8.724,-0.664,-0.243,0.866,1.149,-2.851,9.629,-0.031,0.023,0.045,sad
4.79,0,0,0,0,0,0,0,0,115,1531,3130,2815,2229,29,3943,3575,1.319,3.117,9.220,-0.531,-0.162,0.835,1.159,-2.751,9.586,-0.046,0.031,0.043,sad
4.80,0,0,0,0,0,0,0,0,168,1501,3176,2847,2303,28,3930,3420,1.372,3.510,8.844,-0.428,-0.074,0.775,1.149,-2.808,9.663,-0.058,0.021,0.043,sad
4.81,0,0,0,0,0,0,0,0,287,1489,3222,2891,2446,45,3891,3364,1.147,4.080,10.494,-0.432,-0.036,0.792,1.085,-2.907,9.742,-0.044,0.044,0.041,sad
4.82,0,0,0,0,0,0,0,0,344,1612,3232,3029,2579,51,3864,3357,0.800,3.965,8.820,-0.506,-0.160,0.813,1.104,-2.828,9.773,-0.053,0.044,0.045,sad
4.83,0,0,0,0,0,0,0,0,411,1651,3252,3059,2609,51,3847,3369,-0.536,3.043,7.384,-0.237,-0.260,0.797,1.161,-2.859,9.548,-0.031,0.040,0.044,sad
4.84,0,0,0,0,0,0,0,0,519,1763,3314,3126,2723,51,3827,3369,-0.986,2.689,8.097,0.071,-0.176,0.590,1.030,-2.892,9.687,-0.025,0.051,0.036,sad
4.85,0,0,0,0,0,0,0,0,601,1920,3347,3195,2815,52,3812,3387,-1.590,3.168,10.163,0.020,-0.244,0.156,1.068,-2.885,9.653,-0.025,0.042,0.024,sad
4.86,0,0,0,0,0,0,0,0,623,1961,3345,3231,2855,84,3812,3405,-1.341,2.579,8.061,-0.037,-0.304,-0.368,1.056,-2.787,9.639,-0.035,0.036,0.026,sad
4.87,0,0,0,0,0,0,0,0,675,1951,3355,3257,2911,53,3785,3413,-0.426,2.911,7.760,0.203,-0.356,-0.750,1.085,-2.895,9.706,-0.034,0.041,0.030,sad
4.88,0,0,0,0,0,0,0,0,719,2017,3416,3293,2989,58,3721,3399,2.440,0.548,9.318,-0.010,-0.381,-0.860,1.094,-2.835,9.704,-0.043,0.052,0.013,sad
4.89,0,0,0,0,0,0,0,0,731,2063,3314,3208,3023,51,3634,3357,-0.323,-1.887,13.276,0.023,1.734,-0.077,1.109,-2.911,9.572,-0.037,0.038,0.026,sad
4.90,0,0,0,0,0,0,0,0,813,2105,3457,3399,3065,59,3462,3316,1.609,-0.457,8.571,0.262,1.223,0.001,0.989,-2.935,9.649,-0.062,0.027,0.031,sad
4.91,0,0,0,0,0,0,0,0,911,2093,3339,3479,3087,51,3339,3241,-1.073,0.002,10.839,0.621,0.630,0.103,1.097,-2.931,9.606,-0.067,0.046,0.021,sad
4.92,0,0,0,0,0,0,0,783,1099,2123,3462,3476,3032,51,3285,3119,-1.590,-0.589,9.711,0.731,0.359,0.063,1.097,-2.957,9.687,-0.056,0.039,0.017,sad
4.93,0,0,0,0,0,0,0,1904,1021,2155,3621,3496,3039,41,3237,2983,-1.439,-0.936,9.972,1.047,0.047,-0.217,1.039,-2.942,9.704,-0.075,0.058,0.017,sad
4.94,0,0,0,0,0,0,0,2514,1193,2083,3493,3555,2959,59,3117,2872,0.718,2.476,12.871,0.904,-0.698,-0.168,0.979,-2.940,9.819,-0.086,0.053,0.012,sad
4.95,0,0,0,0,0,0,590,2960,1331,2087,3437,3589,2686,48,3018,2749,2.808,1.173,9.290,0.756,-0.671,-0.140,1.082,-2.995,9.668,-0.069,0.067,0.007,sad
4.96,0,0,0,0,0,0,1008,3155,1334,2135,3314,3577,2511,51,2879,2643,3.503,1.966,10.580,0.705,-0.414,-0.170,1.087,-2.935,9.615,-0.074,0.044,0.017,sad
4.97,0,0,0,0,0,0,1243,3280,1545,2119,3501,3635,2139,50,2652,2324,2.461,1.803,9.993,0.477,-0.138,-0.122,0.958,-2.981,9.677,-0.107,0.047,0.005,sad
4.98,0,0,0,0,0,0,1457,3361,1646,2151,3506,3645,1587,48,2300,1684,1.844,1.089,9.234,0.481,0.066,-0.164,1.142,-3.251,9.522,-0.123,0.032,0.008,sad
4.99,0,0,0,0,0,0,1710,3435,1705,2139,3529,3656,1291,47,2060,1235,1.446,1.391,9.759,0.529,0.084,-0.197,0.972,-3.136,9.579,-0.102,0.039,0.013,sad
5.00,0,0,0,0,0,0,1856,3507,1889,2135,3386,3558,1051,47,1617,477,1.499,1.204,8.995,0.573,0.177,-0.233,0.871,-3.103,9.618,-0.086,0.022,0.022,sad
5.01,0,0,0,0,0,0,2131,3567,2004,2123,3508,3685,585,40,1163,111,1.781,2.023,10.101,0.646,0.151,-0.248,0.991,-3.096,9.515,-0.162,0.031,0.007,sad
5.02,0,0,0,0,67,0,2384,3618,2133,2195,3519,3688,280,6,869,2,2.816,4.757,11.195,0.106,0.220,-0.078,0.994,-4.451,9.318,-0.208,0.051,0.063,sad
5.03,0,0,0,0,155,0,2514,3664,2251,2262,3526,3688,73,3,671,1,1.245,2.397,10.659,0.222,0.458,-0.172,0.871,-3.397,9.304,-0.350,0.038,-0.085,sad
5.04,0,0,0,0,461,0,2609,3702,2280,2301,3508,3676,30,1,359,1,1.415,2.045,10.077,0.212,0.433,-0.149,0.852,-3.601,9.495,-0.406,0.032,-0.106,sad
5.05,61,0,0,0,609,0,2704,3734,2415,2281,3580,3670,37,2,319,26,1.353,2.179,9.902,0.166,0.332,-0.125,1.094,-3.493,9.661,-0.408,0.023,-0.140,sad
5.06,154,32,0,0,882,0,2771,3747,2494,2245,3498,3688,24,1,103,1,1.063,1.963,9.883,0.149,0.370,-0.140,1.073,-3.515,9.414,-0.459,-0.035,-0.151,sad
5.07,273,225,0,0,897,0,2832,3769,2588,2191,3488,3691,31,0,0,0,0.742,2.301,10.585,0.183,0.193,-0.109,1.025,-3.637,9.383,-0.503,-0.048,-0.135,sad
5.08,453,277,0,0,1087,0,2902,3786,2568,2117,3478,3688,3,0,0,0,1.152,2.176,9.886,0.084,0.149,-0.076,1.109,-3.682,9.349,-0.500,-0.050,-0.133,sad
5.09,549,509,0,0,1107,0,2983,3792,2615,1961,3467,3683,0,0,0,0,0.869,1.930,9.780,0.029,0.096,-0.062,1.211,-3.943,9.517,-0.469,0.002,-0.169,sad
5.10,577,597,76,0,1210,0,3047,3811,2601,1788,3429,3580,1,0,0,0,1.006,1.956,9.776,0.021,0.088,-0.038,1.195,-3.881,9.074,-0.536,-0.042,-0.132,sad
5.11,630,725,191,0,1218,0,3094,3824,2513,1733,3483,3563,0,0,0,0,1.058,2.116,9.847,0.025,0.088,-0.049,1.393,-3.955,9.122,-0.515,0.013,-0.139,sad
5.12,687,704,273,0,1254,0,3158,3831,2488,1647,3393,3513,0,0,0,0,1.063,1.930,9.713,0.046,0.125,-0.056,1.156,-4.123,9.115,-0.544,0.041,-0.137,sad
5.13,784,846,503,0,1331,0,3210,3851,2537,1406,3375,3445,0,0,0,0,1.063,2.047,9.766,0.072,0.116,-0.049,1.152,-4.266,9.120,-0.572,0.071,-0.152,sad
5.14,816,953,750,0,1458,0,3243,3863,2526,1197,3391,3404,0,0,0,0,1.077,2.181,9.811,0.031,0.077,-0.031,1.468,-4.396,9.287,-0.614,0.090,-0.158,sad
5.15,878,979,950,0,1456,0,3293,3866,2445,927,3299,3271,0,0,0,0,1.027,2.064,9.776,0.058,0.084,-0.042,1.250,-4.259,8.973,-0.673,0.156,-0.173,sad
5.16,944,1159,1141,162,1449,0,3331,3878,2363,651,3176,3147,0,0,0,0,1.065,2.052,9.783,0.083,0.106,-0.063,1.312,-4.664,8.882,-0.715,0.127,-0.123,sad
5.17,944,1238,1535,199,1535,0,3354,3893,2335,441,3037,2997,0,0,0,0,0.991,2.145,9.821,0.088,0.115,-0.060,1.262,-4.803,8.643,-0.714,0.171,-0.129,sad
5.18,959,1285,1840,544,1664,0,3389,3886,2269,277,2904,2971,0,0,0,0,1.015,2.169,9.785,0.081,0.118,-0.061,1.283,-4.896,8.803,-0.828,0.157,-0.112,sad
5.19,1044,1360,2103,838,1651,0,3408,3888,2279,172,2856,2888,0,0,0,0,1.008,2.057,9.723,0.105,0.131,-0.067,1.307,-5.016,8.897,-0.860,0.249,-0.138,sad
5.20,1089,1490,2327,1121,1724,0,3425,3883,2137,60,2372,2839,0,0,2,0,0.941,2.184,9.740,0.125,0.141,-0.077,1.070,-4.956,9.048,-1.028,0.254,-0.077,sad
5.21,1217,1618,2529,1392,1830,14,3434,3888,1963,51,1835,2613,0,0,0,0,0.860,2.076,9.637,0.124,0.148,-0.080,0.917,-5.468,8.751,-1.106,0.147,0.093,sad
5.22,1338,1729,2704,1731,1969,258,3447,3891,1753,0,115,1909,0,0,2,0,0.922,2.109,9.716,0.184,0.137,-0.135,1.037,-5.578,9.191,-1.272,0.001,0.293,sad
5.23,1511,1853,2839,1996,1984,507,3461,3888,1544,0,30,1511,0,0,0,0,0.740,2.282,9.699,0.160,0.114,-0.105,0.534,-5.377,10.410,-1.429,-0.246,0.438,sad
5.24,1655,1933,2913,2189,2011,657,3471,3887,1327,2,28,500,0,0,0,0,0.776,2.425,9.857,0.093,0.088,-0.063,0.589,-5.789,10.487,-1.682,-0.856,1.014,sad
5.25,1785,2001,2983,2322,2019,1046,3498,3888,601,0,28,0,0,0,0,0,0.800,2.433,9.735,0.073,0.077,-0.047,2.547,-8.179,8.124,-1.822,-0.860,1.239,sad
5.26,1848,2064,3040,2416,2192,1405,3517,3891,233,0,15,0,0,0,0,0,0.737,2.188,9.730,0.073,0.040,-0.031,1.867,-7.379,12.924,-1.414,-0.541,1.239,sad
5.27,1923,2134,3107,2495,2278,1465,3532,3887,0,0,25,0,0,0,0,0,0.792,2.370,9.780,0.078,0.018,-0.004,0.165,-3.455,11.399,0.041,-0.106,1.694,sad
5.28,1968,2236,3179,2559,2372,1438,3536,3888,0,0,20,47,0,0,0,0,0.721,2.351,9.756,0.068,0.002,-0.005,-4.199,-4.324,12.136,1.107,-0.001,2.721,sad
5.29,2005,2317,3227,2599,2413,1533,3539,3885,0,0,20,0,0,0,0,0,0.737,2.377,9.871,0.041,0.009,-0.010,1.700,-1.197,10.101,1.275,0.048,2.771,sad
5.30,2023,2371,3259,2624,2419,1535,3550,3882,0,0,17,0,0,0,0,0,0.790,2.318,9.697,0.045,0.014,-0.003,3.124,-2.219,7.717,1.601,-0.122,2.367,sad
5.31,2046,2405,3281,2650,2465,1520,3554,3870,0,0,0,0,0,0,0,31,0.752,2.322,9.735,0.057,0.009,-0.007,4.417,-2.389,8.200,1.606,-0.318,1.397,sad
5.32,2084,2445,3309,2663,2527,1598,3567,3871,0,0,20,0,0,19,0,0,0.797,2.255,9.680,0.054,0.019,-0.011,4.077,-2.660,8.708,1.655,-0.322,0.881,sad
5.33,2118,2480,3325,2683,2559,1610,3565,3872,0,29,17,0,0,0,0,0,0.785,2.286,9.685,0.056,0.018,-0.014,2.085,-2.938,8.827,1.748,-0.400,0.050,sad
5.34,2135,2508,3339,2695,2553,1648,3573,3796,0,0,2,0,0,0,0,0,0.819,2.303,9.677,0.057,0.027,-0.016,0.670,-3.117,9.419,1.745,-0.449,-0.328,sad
5.35,2145,2544,3354,2715,2593,1735,3568,3863,0,0,17,0,0,0,0,0,0.819,2.354,9.735,0.066,0.022,-0.016,-0.053,-3.407,10.257,1.757,-0.533,-0.364,sad
5.36,2165,2586,3376,2745,2625,1751,3574,3862,0,0,23,0,2,0,0,0,0.776,2.272,9.668,0.063,0.026,-0.016,-0.690,-3.881,10.654,1.804,-0.659,-0.323,sad
5.37,2189,2623,3395,2767,2672,1680,3575,3855,0,0,15,0,0,0,0,0,0.788,2.315,9.718,0.063,0.028,-0.014,-0.043,-4.348,10.843,1.769,-0.718,-0.228,sad
5.38,2227,2653,3409,2784,2688,1706,3571,3851,0,0,30,9,0,0,0,0,0.850,2.291,9.756,0.063,0.026,-0.013,0.357,-4.489,10.755,1.760,-0.748,-0.270,sad
5.39,2265,2672,3433,2815,2720,1652,3563,3837,0,0,181,0,0,0,0,0,0.809,2.306,9.744,0.078,0.015,-0.014,1.326,-4.527,10.276,1.673,-0.732,-0.436,sad
5.40,2294,2692,3455,2834,2731,1616,3562,3825,0,0,10,0,0,0,0,0,0.831,2.377,9.699,0.070,0.025,-0.011,1.997,-4.590,10.242,1.569,-0.703,-0.756,sad
5.41,2337,2727,3479,2871,2751,1639,3548,3823,0,0,17,0,0,0,0,0,0.804,2.377,9.694,0.074,0.019,-0.015,2.140,-4.460,9.946,1.501,-0.659,-0.951,sad
5.42,2379,2733,3504,2900,2774,1675,3536,3799,0,0,17,0,0,0,0,0,0.821,2.298,9.682,0.082,0.011,-0.008,1.669,-4.393,9.876,1.300,-0.483,-1.301,sad
5.43,2411,2767,3528,2913,2799,1636,3528,3781,0,0,17,0,0,0,0,0,0.816,2.382,9.694,0.092,0.014,-0.012,0.723,-4.460,10.183,1.042,-0.399,-1.380,sad
5.44,2447,2807,3553,2929,2822,1622,3506,3761,0,12,17,0,0,0,0,0,0.797,2.399,9.718,0.078,0.027,-0.009,0.488,-4.934,10.930,1.049,-0.425,-1.367,sad
5.45,2496,2821,3579,2966,2864,1504,3486,3743,0,0,17,0,0,0,0,0,0.776,2.409,9.713,0.075,0.017,-0.005,0.026,-4.415,9.122,0.857,-0.514,-1.225,sad
5.46,2534,2837,3606,2992,2869,1520,3445,3716,0,0,17,0,0,0,0,0,0.833,2.322,9.716,0.081,0.023,-0.006,0.208,-5.717,12.009,0.898,-0.816,-0.974,sad
5.47,2559,2864,3625,3012,2885,1261,3440,3696,0,0,17,0,0,0,30,0,0.781,2.421,9.663,0.078,0.015,-0.007,0.481,-5.128,10.381,0.860,-0.978,-1.013,sad
5.48,2626,2886,3646,3042,2913,1307,3425,3667,0,0,17,0,0,0,0,0,0.788,2.433,9.670,0.076,0.014,-0.003,1.056,-4.932,7.573,0.575,-0.778,-0.932,sad
5.49,2670,2907,3660,3081,2945,1405,3418,3663,0,0,17,0,0,70,0,0,0.833,2.413,9.646,0.073,0.011,-0.007,1.784,-5.923,8.509,0.386,-0.292,-0.810,sad
5.50,2701,2937,3680,3094,2977,1499,3409,3647,0,0,17,0,0,0,53,0,0.857,2.397,9.632,0.073,0.004,-0.005,0.891,-5.365,7.458,0.284,-0.242,-0.755,sad
5.51,2741,2957,3699,3127,3019,1567,3382,3623,0,0,17,0,0,0,0,0,0.831,2.440,9.685,0.080,0.002,-0.012,-0.177,-6.254,8.815,0.016,-0.654,-0.595,sad
5.52,2779,2963,3717,3152,3041,1522,3344,3577,0,0,17,0,0,0,0,0,0.888,2.425,9.661,0.077,0.006,-0.007,1.836,-7.408,4.302,-0.030,-0.307,-0.372,sad
5.53,2832,2983,3738,3181,3057,1187,3286,3517,69,0,17,0,91,0,0,0,0.862,2.428,9.697,0.081,0.016,-0.006,0.802,-7.389,5.744,-0.592,0.444,-0.178,sad
5.54,2873,3000,3745,3216,3066,884,3206,3447,0,0,84,0,0,0,0,0,0.833,2.497,9.649,0.084,0.029,-0.010,4.173,-2.523,12.629,-0.178,1.281,-0.290,sad
5.55,2906,3003,3760,3242,3047,613,3103,3382,31,0,20,0,55,0,0,0,0.857,2.468,9.649,0.087,0.035,-0.007,1.262,0.939,8.116,-0.621,0.703,-0.464,sad
5.56,2942,3014,3763,3265,3015,0,2977,3301,0,0,17,0,0,0,0,0,0.831,2.514,9.682,0.088,0.037,-0.013,-0.321,-0.175,10.465,-0.721,0.569,-0.348,sad
5.57,2987,3030,3779,3286,2997,0,2816,3173,5,0,15,0,0,0,0,0,0.862,2.464,9.610,0.085,0.039,-0.006,-3.172,0.359,10.094,-0.633,0.465,0.226,sad
5.58,3027,3071,3789,3312,2947,0,2582,2960,0,0,17,0,0,0,0,988,0.881,2.497,9.675,0.107,0.039,-0.001,1.396,-0.994,9.392,-1.285,-0.145,0.269,sad
5.59,3059,3125,3809,3331,2885,0,2329,2535,0,0,17,0,0,0,0,1608,0.879,2.540,9.675,0.122,0.042,0.001,2.717,-2.447,10.029,-1.362,-0.622,0.068,sad
5.60,3120,3175,3827,3360,2738,0,2016,1808,0,0,15,0,19,0,235,2366,0.845,2.437,9.663,0.135,0.038,0.010,2.083,-2.052,9.538,-1.392,-0.515,0.211,sad
5.61,3183,3215,3840,3392,2559,0,1650,385,1,0,12,0,0,0,646,2549,0.855,2.485,9.697,0.185,0.049,0.022,2.624,-2.986,10.525,-1.313,-0.466,0.288,sad
5.62,3219,3230,3856,3417,2086,0,1071,0,0,0,15,0,0,0,1369,2840,0.745,2.535,9.653,0.201,0.057,0.024,2.416,-3.735,10.453,-0.835,-0.204,0.222,sad
5.63,3255,3261,3870,3440,1651,0,487,0,0,0,0,0,0,0,1893,3077,1.041,2.619,9.759,0.274,0.076,0.027,2.215,-2.085,9.455,0.099,0.824,0.357,sad
5.64,3283,3277,3879,3455,1533,0,304,0,17,52,181,0,0,0,1915,3149,1.089,2.533,9.756,0.306,0.076,0.046,1.032,-2.030,11.013,-0.115,0.811,0.429,sad
5.65,3317,3267,3856,3504,1221,0,0,0,0,0,25,0,0,0,1855,3215,0.781,2.626,9.553,0.321,0.092,0.057,1.798,-2.789,9.122,-0.017,0.914,0.492,sad
5.66,3327,3260,3895,3477,982,0,0,0,0,0,12,0,5,0,1890,3357,0.723,2.085,9.500,0.207,0.051,-0.015,1.022,-4.755,12.663,-0.090,0.469,0.350,sad
5.67,3357,3220,3898,3472,917,0,0,0,0,63,15,0,0,0,1883,3413,0.721,2.598,9.546,0.437,0.087,0.126,1.556,-2.571,8.995,0.044,0.469,0.321,sad
5.68,3393,3185,3901,3473,787,0,0,0,50,0,15,0,0,0,1879,3453,0.692,2.713,9.562,0.451,0.088,0.136,1.219,-2.835,10.111,0.034,0.323,0.238,sad
5.69,3408,3152,3906,3458,700,0,0,0,0,0,12,21,0,0,2067,3497,0.721,2.859,9.622,0.492,0.130,0.163,1.437,-2.938,9.708,-0.005,0.241,0.266,sad
5.70,3429,3088,3903,3456,538,0,0,0,0,0,12,0,47,0,2117,3519,0.759,2.940,9.515,0.508,0.127,0.167,1.374,-2.842,9.740,-0.028,0.182,0.183,sad
5.71,3455,2993,3905,3440,583,0,0,0,0,0,17,0,9,0,2163,3545,0.759,2.966,9.550,0.538,0.144,0.172,1.202,-2.902,9.922,-0.004,0.171,0.131,sad
5.72,3485,2917,3901,3415,448,0,0,0,0,0,38,0,33,0,2235,3659,0.852,3.232,9.436,0.549,0.145,0.182,1.362,-2.804,9.754,-0.010,0.155,0.133,sad
5.73,3504,2854,3903,3389,319,0,0,0,0,0,17,0,41,0,2287,3581,0.742,3.199,9.172,0.572,0.062,0.185,1.235,-2.717,9.699,-0.033,0.142,0.144,sad
5.74,3518,2849,3903,3359,236,0,0,0,0,0,20,0,59,26,2323,3668,0.699,3.316,9.507,0.589,0.103,0.160,1.137,-2.732,9.701,-0.023,0.103,0.159,sad
5.75,3549,2877,3903,3299,0,0,0,0,0,0,23,355,59,0,2387,3592,0.766,3.120,9.378,0.609,0.131,0.148,1.056,-2.854,9.749,-0.010,0.090,0.147,sad
5.76,3558,2849,3889,3269,0,0,0,0,63,0,23,429,54,0,2488,3636,0.723,3.649,9.359,0.569,0.106,0.136,1.073,-2.847,9.845,0.007,0.100,0.107,sad
5.77,3556,2855,3890,3266,0,0,0,0,0,0,232,533,93,0,2491,3651,0.709,3.366,9.244,0.582,0.108,0.126,1.061,-2.794,9.725,0.004,0.056,0.097,sad
5.78,3558,2863,3893,3254,0,0,0,0,0,11,28,691,77,11,2507,3659,0.804,3.757,9.328,0.592,0.128,0.117,1.106,-2.820,9.598,0.003,0.063,0.075,sad
5.79,3568,2846,3878,3241,0,0,0,0,0,0,25,814,50,27,2556,3689,0.737,3.764,9.230,0.597,0.124,0.106,1.068,-2.758,9.663,0.014,0.042,0.057,sad
5.80,3574,2829,3882,3227,0,0,0,0,0,57,28,861,71,4,2581,3699,0.792,3.804,9.158,0.568,0.142,0.117,1.104,-2.705,9.723,0.012,0.047,0.059,sad
5.81,3575,2835,3861,3216,0,0,0,0,2,91,304,884,55,0,2651,3711,0.713,3.881,9.194,0.581,0.147,0.115,1.044,-2.804,9.787,-0.008,0.038,0.064,sad
5.82,3573,2774,3846,3200,0,0,0,0,1,151,417,1000,53,11,2735,3723,0.704,3.991,9.091,0.590,0.157,0.123,1.065,-2.820,9.768,0.001,0.032,0.049,sad
5.83,3570,2730,3834,3214,0,0,0,0,13,111,959,1289,63,5,2874,3739,0.848,4.130,9.041,0.598,0.187,0.140,1.094,-2.784,9.740,0.003,0.012,0.038,sad
5.84,3571,2590,3812,3221,0,0,0,0,9,187,1159,1316,69,0,2983,3668,0.874,4.307,8.923,0.666,0.191,0.137,1.044,-2.758,9.706,0.006,0.010,0.022,sad
5.85,3566,2587,3791,3213,0,0,0,0,5,187,1259,1454,60,1,3049,3783,0.871,4.513,9.041,0.695,0.221,0.100,1.080,-2.837,9.677,0.013,0.016,0.017,sad
5.86,3532,2513,3760,3221,0,0,0,0,4,209,1730,1515,137,1,3143,3791,0.589,4.566,8.890,0.698,0.217,0.097,1.022,-2.722,9.562,0.012,-0.015,0.001,sad
5.87,3472,2586,3699,3193,0,0,0,0,3,231,2121,1547,165,3,3219,3821,0.699,4.693,8.562,0.728,0.288,0.097,1.094,-2.780,9.661,0.032,-0.002,0.001,sad
5.88,3442,2512,3642,3154,0,0,0,0,2,201,2175,1621,141,4,3293,3837,0.785,4.745,8.650,0.778,0.345,0.092,1.132,-2.725,9.644,0.028,0.002,0.007,sad
5.89,3394,2466,3504,3067,0,0,0,0,10,325,2275,1553,159,6,3311,3851,0.613,4.812,8.772,0.825,0.342,0.033,1.178,-2.849,9.732,0.014,-0.013,0.010,sad
5.90,3329,2395,3280,2903,0,0,0,0,3,711,2541,1517,253,3,3367,3883,0.359,4.839,8.241,1.049,0.286,0.020,1.075,-2.768,9.689,0.009,-0.023,0.005,sad
5.91,3259,2285,3065,2827,0,0,0,0,7,695,2659,1565,229,9,3421,3896,0.541,5.057,8.830,1.318,0.475,0.036,1.089,-2.717,9.689,0.019,-0.015,0.015,sad
5.92,3171,2130,2775,2757,0,0,0,0,12,775,2741,1784,313,6,3491,3919,0.055,5.195,8.940,1.494,0.314,-0.072,1.082,-2.737,9.720,0.014,-0.002,0.043,sad
5.93,2957,1862,2595,2559,0,0,0,0,18,943,2797,1963,312,8,3535,3932,0.045,5.452,8.976,1.779,-0.034,-0.361,1.032,-2.806,9.677,0.007,0.029,0.063,sad
5.94,2733,1331,2336,2175,0,0,0,0,37,928,2805,2069,339,7,3599,3939,0.000,6.144,9.428,1.966,-0.386,-0.699,1.166,-2.761,9.720,0.006,0.030,0.060,sad
5.95,2451,818,1671,1328,0,0,0,0,0,1031,2863,2215,471,7,3723,3931,0.591,7.049,9.474,1.897,-0.368,-1.123,1.106,-2.655,9.615,0.017,0.051,0.072,sad
5.96,1842,208,909,480,0,0,0,0,36,1063,2894,2424,615,10,3702,3960,0.069,7.398,8.789,2.136,-0.364,-1.176,1.077,-2.734,9.864,-0.023,0.061,0.080,sad
5.97,905,0,43,0,0,0,0,0,29,1127,2756,2540,635,17,3711,3961,0.192,7.345,8.538,1.978,-0.209,-1.174,1.123,-2.775,9.776,-0.025,0.058,0.075,sad
5.98,0,0,94,0,0,0,0,0,87,1143,2920,2661,597,25,3739,3965,0.721,3.165,11.080,0.613,0.402,-1.260,0.991,-2.804,9.704,-0.016,0.052,0.054,sad
5.99,0,0,0,0,0,0,0,0,134,1141,2940,2728,636,28,3747,3965,1.377,3.517,10.829,-0.023,0.790,-1.254,1.070,-2.792,9.752,-0.020,0.067,0.053,sad
6.00,0,0,0,0,0,0,0,0,209,1165,2971,2804,539,0,3756,3955,0.802,4.571,11.325,-0.898,1.045,-1.162,1.089,-2.808,9.713,-0.021,0.064,0.053,sad
6.01,0,0,0,0,0,0,0,0,261,1189,2966,2773,636,46,3759,3959,0.697,1.336,9.155,-1.382,0.969,-1.116,1.087,-2.741,9.610,-0.024,0.063,0.062,sad
6.02,0,0,0,0,0,0,0,0,371,1227,2961,2899,541,51,3759,3945,0.362,1.353,6.519,-1.425,0.717,-1.164,1.077,-2.820,9.661,-0.028,0.052,0.046,sad
6.03,0,0,0,0,0,0,0,0,435,1243,2976,2926,615,48,3759,3927,0.340,2.246,9.397,-1.530,0.314,-1.112,1.018,-2.844,9.649,-0.027,0.041,0.037,sad
6.04,0,0,0,0,0,0,0,0,519,1241,2981,2973,573,58,3755,3929,1.501,2.782,9.680,-1.814,0.028,-0.925,1.068,-2.782,9.675,-0.024,0.035,0.035,sad
6.05,0,0,0,0,0,0,0,0,581,1245,2994,2975,620,47,3753,3916,1.156,2.713,9.012,-2.063,-0.087,-0.719,0.998,-2.816,9.606,-0.028,0.029,0.035,sad
6.06,0,0,0,0,0,0,0,0,685,1287,3022,3017,783,51,3747,3899,0.350,3.333,8.906,-2.245,-0.473,-0.485,1.018,-2.851,9.752,-0.032,0.020,0.030,sad
6.07,0,0,0,0,0,0,0,0,759,1284,3247,3064,869,53,3689,3811,0.479,3.687,8.059,-2.327,-0.632,-0.234,1.046,-2.782,9.622,-0.038,0.041,0.029,sad
6.08,0,0,0,0,0,0,0,0,713,1324,3078,3123,1007,51,3736,3811,0.213,4.132,9.225,-2.114,-0.821,0.009,1.032,-2.849,9.632,-0.027,0.053,0.029,sad
6.09,0,0,0,0,0,0,0,0,681,1363,3086,3117,983,52,3735,3817,0.527,4.515,10.159,-2.069,-0.924,0.296,0.998,-2.866,9.778,-0.032,0.051,0.025,sad
6.10,0,0,0,0,0,0,0,0,777,1317,2856,3145,1224,51,3726,3752,-0.254,4.836,10.645,-2.041,-0.977,0.555,1.015,-2.842,9.663,-0.024,0.048,0.025,sad
6.11,0,0,0,0,0,0,0,0,943,1419,3137,3229,1287,51,3731,3693,-0.074,4.556,9.641,-1.858,-0.978,0.760,1.001,-2.883,9.656,-0.021,0.037,0.023,sad
6.12,0,0,0,0,0,0,0,0,933,1432,3176,3259,1396,51,3731,3660,0.484,4.199,9.474,-1.559,-0.876,0.972,0.982,-2.866,9.651,-0.014,0.030,0.018,sad
6.13,0,0,0,0,0,0,0,0,953,1431,3181,3271,1428,47,3719,3557,0.388,4.348,11.214,-1.404,-0.908,1.215,1.037,-2.871,9.637,-0.027,0.034,0.016,sad
6.14,0,0,0,0,0,0,0,0,911,1563,3222,3351,1467,51,3685,3463,-0.132,4.068,10.867,-1.392,-0.937,1.348,1.008,-2.919,9.744,-0.031,0.038,0.016,sad
6.15,0,0,0,0,0,0,0,0,955,1559,3219,3289,1503,51,3672,3502,-0.520,3.783,11.011,-1.362,-0.853,1.303,0.953,-2.875,9.641,-0.030,0.036,0.012,sad
6.16,0,0,0,0,0,0,0,0,973,1543,3224,3363,1563,45,3635,3475,-1.089,3.632,10.781,-1.415,-0.680,1.112,0.950,-2.885,9.622,-0.022,0.033,0.012,sad
6.17,0,0,0,0,0,0,0,0,1111,1525,3206,3397,1631,45,3595,3347,-2.061,3.091,9.797,-1.353,-0.569,0.715,1.037,-2.945,9.732,-0.039,0.033,0.013,sad
6.18,0,0,0,0,0,0,0,0,1164,1573,3255,3404,1621,51,3558,3317,-1.384,2.792,9.450,-0.971,-0.560,0.318,0.929,-2.919,9.598,-0.019,0.032,0.007,sad
6.19,0,0,0,0,0,0,0,0,1223,1614,3268,3464,1671,52,3527,3304,0.105,5.140,13.664,-1.267,-0.521,0.161,0.974,-2.945,9.637,-0.018,0.039,0.019,sad
6.20,0,0,0,0,0,0,0,0,1290,1679,3288,3503,1624,52,3481,3353,-0.220,4.190,9.656,-1.508,-0.479,0.076,0.939,-2.933,9.613,-0.012,0.035,0.015,sad
6.21,0,0,0,0,0,0,0,0,1339,1720,3288,3541,1629,52,3451,3359,0.414,4.125,8.612,-1.204,-0.631,0.095,0.953,-2.892,9.665,-0.016,0.034,0.016,sad
6.22,0,0,0,0,0,0,0,0,1490,1754,3296,3557,1629,51,3336,3347,1.240,3.244,7.570,-0.698,-0.526,0.296,0.994,-2.964,9.649,0.000,0.038,0.019,sad
6.23,0,0,0,0,0,0,0,0,1547,1577,3301,3620,1644,51,3263,3375,0.491,6.280,10.465,-0.385,-0.019,0.492,0.931,-2.974,9.673,0.003,0.038,0.017,sad
6.24,0,0,0,0,0,0,0,0,1517,1705,3311,3608,1678,50,3244,3379,0.151,6.773,8.454,-0.330,-0.298,0.711,0.922,-2.871,9.541,0.016,0.031,0.016,sad
6.25,0,0,0,0,0,0,0,0,1465,1709,3324,3629,1768,51,3178,3359,-1.391,6.881,5.428,0.096,0.039,0.564,0.910,-2.974,9.716,0.006,0.030,0.015,sad
6.26,0,0,0,0,0,0,0,0,1516,1709,3549,3640,1815,50,3032,3355,-1.925,7.906,4.860,0.471,0.155,0.402,0.941,-2.969,9.618,-0.006,0.027,0.018,sad
6.27,0,0,0,0,0,0,0,0,1592,1695,3345,3659,1879,48,3173,3327,1.341,2.868,8.665,0.568,0.581,0.071,0.931,-2.875,9.639,-0.023,0.027,0.007,sad
6.28,0,0,0,0,0,0,0,0,1725,1723,3355,3677,1897,50,3219,3263,0.666,-0.529,16.343,0.050,0.650,0.083,0.970,-2.947,9.663,-0.027,0.026,0.011,sad
6.29,0,0,0,0,0,0,0,1370,1741,1735,3380,3783,1941,52,3080,3207,1.109,-1.463,6.474,0.650,0.241,-0.093,0.970,-2.919,9.704,-0.048,0.024,0.010,sad
6.30,0,0,0,0,0,0,0,2133,1897,1757,3421,3729,1837,51,2921,3030,0.254,1.317,11.140,0.743,0.037,-0.199,0.876,-3.148,9.572,-0.054,-0.002,0.021,sad
6.31,0,0,0,0,0,0,0,2629,1925,1829,3268,3751,1511,51,2685,2735,1.578,0.251,9.402,0.733,0.220,-0.163,0.958,-2.954,9.505,-0.090,0.017,0.000,sad
6.32,0,0,0,0,0,0,56,2882,2044,1839,3455,3751,1318,47,2539,2547,0.599,1.178,10.910,0.825,-0.128,-0.079,0.917,-2.966,9.613,-0.079,0.015,0.008,sad
6.33,0,0,0,0,0,0,494,3071,2173,1951,3473,3811,1065,48,2190,2213,1.422,2.128,11.933,0.634,-0.320,-0.148,0.943,-3.014,9.637,-0.109,0.018,-0.000,sad
6.34,0,0,0,0,0,0,907,3231,2325,1967,3478,3813,637,51,1902,1487,2.298,1.092,9.330,0.501,-0.217,-0.106,1.109,-3.007,9.486,-0.094,0.023,-0.002,sad
6.35,0,0,0,0,0,0,1211,3331,2383,1955,3565,3833,402,46,1623,1083,1.425,1.470,10.585,0.455,-0.122,-0.134,0.881,-3.077,9.759,-0.088,0.016,0.007,sad
6.36,0,0,0,0,0,0,1462,3417,2421,1989,3493,3839,173,42,1064,445,1.518,1.216,9.816,0.388,-0.110,-0.143,1.053,-2.959,9.507,-0.192,0.018,-0.026,sad
6.37,0,0,0,0,0,0,1706,3503,2543,1898,3498,3833,39,7,249,204,1.595,1.530,10.087,0.375,-0.118,-0.120,1.080,-3.311,9.462,-0.252,0.016,-0.051,sad
6.38,0,0,0,0,0,0,1882,3568,2581,1883,3501,3982,77,1,2,12,1.654,1.432,9.694,0.339,-0.132,-0.095,0.910,-2.832,9.701,-0.345,0.013,-0.069,sad
6.39,0,0,0,0,0,0,2166,3630,2635,1705,3498,3832,19,0,0,0,1.736,1.417,9.524,0.377,-0.066,-0.092,0.955,-3.503,9.462,-0.431,-0.014,-0.089,sad
6.40,0,0,0,0,0,0,2330,3664,2778,1662,3493,3787,36,0,0,0,1.700,1.731,9.756,0.363,-0.033,-0.093,0.927,-3.347,9.455,-0.475,-0.018,-0.125,sad
6.41,0,0,0,0,0,0,2446,3691,2823,1670,3488,3822,47,0,1,0,1.944,1.429,9.093,0.393,0.096,-0.110,1.061,-3.601,9.421,-0.497,-0.007,-0.160,sad
6.42,0,0,0,0,0,0,2540,3705,2853,1767,3490,3815,23,0,0,0,1.822,1.544,9.270,0.439,0.144,-0.128,1.003,-3.740,9.400,-0.484,-0.011,-0.163,sad
6.43,0,0,0,0,0,0,2608,3711,2916,1788,3232,3829,43,0,0,9,1.712,3.117,11.425,0.362,0.409,-0.108,1.130,-3.740,9.402,-0.464,-0.026,-0.168,sad
6.44,0,0,0,0,188,0,2717,3722,2943,1883,3427,3839,18,0,0,0,1.427,1.717,9.989,0.233,0.443,-0.141,1.123,-3.754,9.237,-0.416,0.014,-0.186,sad
6.45,0,0,0,0,368,0,2791,3738,2985,1851,3432,3839,20,0,5,0,1.549,1.930,9.644,0.256,0.521,-0.159,1.140,-3.814,9.297,-0.499,-0.010,-0.174,sad
6.46,0,0,0,0,641,0,2841,3762,2984,1767,3396,3834,59,0,0,0,1.120,1.903,10.075,0.261,0.583,-0.188,1.178,-4.022,9.340,-0.498,-0.009,-0.164,sad
6.47,27,83,0,0,736,0,2886,3766,3059,1625,3406,3978,1,0,0,0,0.766,2.145,10.508,0.263,0.296,-0.169,1.109,-4.118,9.179,-0.522,0.019,-0.168,sad
6.48,245,158,0,0,853,0,2953,3775,3077,1544,3411,3811,0,0,0,0,1.053,2.243,10.060,0.208,0.223,-0.143,1.271,-4.228,9.117,-0.544,0.030,-0.158,sad
6.49,466,385,113,0,1050,0,3023,3782,3069,1495,3411,3937,0,0,0,0,0.862,2.097,9.991,0.181,0.163,-0.110,1.245,-4.231,9.122,-0.566,0.046,-0.173,sad
6.50,628,548,372,0,1142,0,3056,3785,3099,1335,3406,3781,0,0,0,0,1.089,2.270,9.950,0.117,0.151,-0.101,1.250,-4.381,9.036,-0.560,0.089,-0.162,sad
6.51,765,683,717,31,1104,0,3090,3789,3081,1006,3355,3723,0,0,0,0,0.996,2.186,9.754,0.082,0.133,-0.089,1.094,-4.626,8.959,-0.609,0.077,-0.137,sad
6.52,912,821,944,300,1255,0,3117,3795,3095,982,3370,3735,0,0,0,0,0.929,2.124,9.895,0.099,0.112,-0.079,1.226,-4.841,9.088,-0.596,0.123,-0.139,sad
6.53,1058,935,1194,382,1315,0,3143,3798,3112,813,3375,3706,0,0,0,0,0.965,2.162,9.713,0.094,0.107,-0.074,1.197,-4.884,8.928,-0.635,0.166,-0.170,sad
6.54,1139,1053,1453,758,1331,2,3174,3811,3101,661,3329,3635,0,0,0,0,0.948,2.073,9.716,0.081,0.108,-0.067,1.219,-5.004,8.657,-0.662,0.155,-0.155,sad
6.55,1225,1138,1715,996,1354,16,3200,3813,3107,571,3432,3595,0,0,0,0,0.891,2.121,9.730,0.105,0.110,-0.077,1.137,-4.997,8.708,-0.683,0.185,-0.161,sad
6.56,1215,1168,1981,1225,1515,0,3216,3809,3079,407,3299,3669,0,0,0,0,0.876,2.124,9.752,0.109,0.097,-0.082,1.235,-5.313,8.581,-0.710,0.198,-0.160,sad
6.57,1282,1335,2192,1362,1425,0,3243,3806,3016,279,3212,3479,0,0,0,0,0.871,2.212,9.692,0.121,0.067,-0.088,0.982,-5.483,8.487,-0.717,0.237,-0.141,sad
6.58,1354,1456,2360,1574,1424,0,3253,3799,3022,339,3227,3567,0,0,0,0,0.833,2.234,9.673,0.148,0.058,-0.087,0.939,-5.442,8.320,-0.743,0.251,-0.151,sad
6.59,1430,1584,2559,1830,1476,0,3269,3798,2951,338,3186,3549,0,1,0,0,0.826,2.229,9.708,0.162,0.064,-0.091,1.020,-5.887,8.181,-0.767,0.286,-0.149,sad
6.60,1557,1733,2743,2027,1621,0,3294,3782,2906,331,3212,3483,0,0,0,3,0.812,2.224,9.699,0.141,0.069,-0.091,0.934,-5.993,8.025,-0.740,0.323,-0.144,sad
6.61,1643,1881,2862,2207,1674,0,3312,3775,2867,367,3181,3447,0,70,0,0,0.778,2.291,9.701,0.130,0.043,-0.079,0.955,-6.036,8.035,-0.721,0.304,-0.133,sad
6.62,1778,2026,2962,2342,1743,0,3329,3775,2746,438,3109,3410,0,0,0,0,0.776,2.368,9.821,0.132,0.030,-0.051,0.936,-6.146,8.018,-0.701,0.288,-0.090,sad
6.63,1921,2175,3071,2497,1883,0,3347,3757,2616,493,3058,3336,0,0,3,9,0.742,2.368,9.553,0.130,-0.008,-0.033,0.881,-6.261,7.836,-0.717,0.238,-0.063,sad
6.64,2098,2262,3175,2604,2030,0,3362,3751,2551,501,2930,3291,0,0,0,0,0.776,2.411,9.639,0.115,0.016,-0.028,0.843,-6.328,7.887,-0.680,0.189,-0.006,sad
6.65,2180,2364,3257,2686,2182,32,3374,3735,2478,405,2608,3225,0,0,0,0,0.709,2.406,9.766,0.088,0.007,-0.010,0.977,-6.440,7.774,-0.684,0.151,0.072,sad
6.66,2257,2441,3318,2752,2230,110,3392,3728,2264,312,2592,3089,0,0,0,0,0.800,2.380,9.668,0.086,0.001,-0.003,1.020,-6.486,7.975,-0.828,0.105,0.215,sad
6.67,2339,2544,3376,2815,2226,147,3408,3732,2100,187,2167,3028,0,0,0,0,0.776,2.394,9.754,0.070,0.003,0.001,1.183,-6.646,8.222,-0.916,0.032,0.357,sad
6.68,2377,2623,3440,2864,2350,356,3429,3733,1685,27,278,2355,0,0,0,0,0.792,2.365,9.665,0.058,0.002,0.009,1.259,-7.420,9.005,-1.131,-0.213,0.934,sad
6.69,2414,2687,3478,2898,2409,733,3450,3728,1341,0,28,1224,0,0,0,0,0.644,2.416,9.687,0.045,-0.009,0.021,1.159,-8.356,10.120,-1.335,-0.566,1.677,sad
6.70,2414,2770,3520,2945,2491,969,3472,3731,985,0,30,839,0,0,0,0,0.883,2.382,9.675,0.044,-0.014,0.026,0.620,-8.286,9.534,-1.480,-0.625,1.571,sad
6.71,2398,2816,3568,2960,2628,1143,3504,3730,231,0,20,311,0,0,0,0,0.723,2.282,9.871,0.071,-0.023,0.020,0.579,-8.188,8.763,-1.622,-0.334,1.614,sad
6.72,2352,2876,3583,2974,2698,1093,3510,3707,0,35,23,0,0,0,0,0,0.915,2.380,9.759,0.044,-0.003,0.012,1.106,-7.372,11.255,-0.901,-0.060,1.888,sad
6.73,2317,2913,3623,3002,2738,1050,3527,3701,0,0,25,0,0,0,0,0,0.850,2.404,9.761,0.039,0.009,0.002,1.690,-5.286,10.285,-0.225,0.069,1.953,sad
6.74,2314,2953,3633,3020,2823,755,3536,3686,0,0,25,0,0,0,0,7,0.819,2.375,9.735,0.048,0.005,0.004,0.065,-3.637,11.775,0.404,-0.138,0.899,sad
6.75,2304,2989,3664,3029,2848,709,3539,3670,0,0,25,0,0,0,0,0,0.850,2.428,9.725,0.043,0.004,-0.002,1.185,-2.140,8.878,1.168,-0.130,0.843,sad
6.76,2288,3037,3678,3056,2903,511,3542,3651,0,0,12,0,0,0,0,0,0.915,2.358,9.704,0.054,-0.003,-0.002,0.864,-1.935,8.198,1.272,-0.144,0.708,sad
6.77,2284,3056,3695,3083,2953,553,3536,3632,0,0,25,0,0,0,0,0,0.840,2.416,9.716,0.052,0.004,-0.008,0.848,-1.872,8.090,1.552,-0.144,0.390,sad
6.78,2322,3088,3711,3085,2982,531,3531,3625,0,0,23,0,0,0,0,0,0.967,2.461,9.622,0.048,0.014,-0.011,0.910,-2.964,8.990,1.896,-0.322,0.016,sad
6.79,2331,3124,3716,3089,3030,619,3536,3621,0,0,23,0,0,55,0,0,0.905,2.349,9.704,0.048,0.021,-0.015,0.778,-3.213,8.686,2.016,-0.343,-0.169,sad
6.80,2373,3146,3722,3126,3063,938,3537,3634,30,0,20,0,0,0,0,9,0.919,2.375,9.747,0.041,0.024,-0.019,-0.163,-3.783,9.098,2.209,-0.449,-0.365,sad
6.81,2403,3159,3730,3120,3101,1033,3542,3639,0,0,20,0,0,0,0,0,0.915,2.392,9.744,0.047,0.030,-0.020,-0.548,-4.396,10.266,2.379,-0.556,-0.282,sad
6.82,2433,3157,3728,3133,3115,1119,3549,3645,0,0,20,0,0,0,0,0,0.848,2.389,9.728,0.042,0.038,-0.020,-0.426,-4.693,10.618,2.480,-0.634,-0.246,sad
6.83,2449,3167,3730,3142,3106,1200,3551,3661,0,0,17,0,0,0,0,43,0.883,2.413,9.716,0.048,0.043,-0.020,0.338,-4.829,9.914,2.469,-0.655,-0.204,sad
6.84,2480,3156,3729,3155,3115,1404,3546,3667,0,0,0,0,0,0,0,0,0.855,2.346,9.673,0.056,0.046,-0.023,1.053,-5.076,10.118,2.374,-0.618,-0.328,sad
6.85,2511,3144,3731,3165,3113,1527,3547,3680,0,0,20,0,0,0,1,0,0.862,2.334,9.584,0.055,0.052,-0.022,1.039,-4.891,9.764,2.249,-0.668,-0.443,sad
6.86,2523,3123,3729,3178,3112,1616,3539,3690,0,0,7,0,0,0,0,0,0.843,2.361,9.639,0.063,0.045,-0.023,0.893,-5.183,11.363,2.051,-0.863,-0.716,sad
6.87,2547,3119,3723,3178,3099,1701,3536,3687,0,0,15,20,0,0,0,0,0.891,2.440,9.620,0.059,0.050,-0.021,-0.555,-5.028,10.592,1.982,-0.740,-0.836,sad
6.88,2589,3102,3725,3187,3071,1740,3523,3686,0,0,25,0,0,0,0,0,0.905,2.380,9.740,0.068,0.046,-0.019,-1.077,-4.731,9.522,1.815,-0.552,-0.719,sad
6.89,2622,3088,3721,3201,3041,1751,3504,3685,0,0,43,0,0,0,0,0,0.828,2.461,9.759,0.060,0.047,-0.013,-0.757,-4.810,10.108,1.418,-0.315,-0.416,sad
6.90,2650,3067,3716,3203,3025,1771,3495,3691,0,0,17,0,0,0,0,0,0.905,2.468,9.651,0.050,0.042,-0.015,-0.055,-5.231,10.812,1.337,-0.117,-0.311,sad
6.91,2672,3056,3723,3210,3024,1840,3493,3690,0,0,20,0,0,16,0,0,0.757,2.380,9.737,0.048,0.039,-0.019,-0.570,-5.746,11.341,1.227,-0.359,-0.355,sad
6.92,2694,3047,3719,3215,3041,1894,3502,3699,0,11,79,0,0,0,0,25,0.790,2.404,9.713,0.043,0.038,-0.018,0.414,-6.031,11.291,1.232,-0.845,-0.478,sad
6.93,2721,3031,3728,3232,3056,1942,3498,3690,0,0,46,0,0,0,0,0,0.824,2.351,9.699,0.046,0.032,-0.019,0.534,-5.382,8.868,1.003,-0.885,-0.751,sad
6.94,2735,3049,3730,3247,3070,1984,3484,3679,0,44,17,0,0,0,0,0,0.797,2.377,9.740,0.051,0.030,-0.011,0.721,-5.598,8.006,0.730,-0.865,-0.856,sad
6.95,2753,3047,3742,3249,3094,1987,3470,3648,38,0,17,0,0,0,0,0,0.797,2.416,9.644,0.059,0.023,-0.011,1.355,-6.594,9.328,0.556,-0.603,-0.965,sad
6.96,2795,3043,3755,3277,3117,1935,3438,3625,0,0,17,0,0,0,0,0,0.816,2.416,9.665,0.069,0.020,-0.012,-0.883,-6.268,8.224,0.444,-0.356,-0.857,sad
6.97,2829,3054,3763,3296,3130,1795,3392,3572,0,0,15,0,0,0,0,0,0.862,2.435,9.754,0.071,0.022,-0.009,-1.267,-6.735,8.011,0.305,-0.591,-0.711,sad
6.98,2849,3056,3772,3307,3134,1579,3332,3513,0,0,17,0,0,0,0,0,0.869,2.466,9.665,0.074,0.025,-0.015,-0.024,-5.930,5.406,-0.006,-0.074,-0.298,sad
6.99,2879,3051,3779,3325,3121,1264,3270,3465,0,0,20,0,0,0,0,0,0.850,2.430,9.639,0.074,0.032,-0.015,2.504,-2.959,7.920,-0.276,0.690,-0.088,sad
7.00,2917,3024,3789,3343,3095,823,3191,3410,0,0,17,0,0,25,0,0,0.819,2.480,9.634,0.075,0.030,-0.014,2.365,-1.695,10.783,-0.276,0.626,-0.318,sad
7.01,2938,3003,3792,3353,3066,528,3105,3324,0,0,17,0,0,0,0,0,0.871,2.466,9.649,0.079,0.040,-0.021,0.175,3.747,10.290,-0.436,0.391,-0.411,sad
7.02,2976,2992,3807,3374,3001,194,2923,3209,0,0,17,0,0,78,0,0,0.838,2.456,9.711,0.087,0.040,-0.015,-2.274,-0.618,11.001,-0.801,0.151,0.077,sad
7.03,3014,3014,3813,3391,2883,0,2673,2957,0,0,23,0,0,0,0,237,0.843,2.471,9.610,0.102,0.036,-0.018,-1.896,-1.144,11.574,-0.787,-0.037,0.173,sad
7.04,3055,3035,3834,3405,2734,0,2367,2493,0,0,17,0,73,0,0,1544,0.876,2.437,9.677,0.125,0.033,-0.007,1.638,-0.362,8.844,-0.961,-0.329,0.121,sad
7.05,3114,3067,3849,3427,2455,0,2030,1705,79,0,0,0,0,0,0,2287,0.852,2.471,9.610,0.149,0.045,-0.004,2.160,-1.607,10.195,-1.081,-0.548,0.135,sad
7.06,3152,3109,3887,3495,2134,0,1711,699,0,0,10,0,0,0,0,2525,0.783,2.497,9.737,0.177,0.048,0.013,2.016,-1.650,9.886,-1.096,-0.514,0.129,sad
7.07,3210,3179,3865,3485,1986,0,1183,0,0,0,12,0,0,0,172,2905,0.843,2.526,9.675,0.182,0.054,0.016,2.442,-2.684,10.910,-0.968,-0.387,0.258,sad
7.08,3243,3200,3881,3508,1662,0,580,0,0,0,0,0,0,0,902,3187,1.178,2.722,9.878,0.293,0.081,0.023,2.610,-2.263,9.677,-0.671,0.004,0.256,sad
7.09,3280,3229,3895,3520,1584,0,359,0,0,0,5,0,3,0,972,3283,1.001,2.607,9.618,0.304,0.075,0.047,2.998,-2.033,8.911,-0.661,0.149,0.315,sad
7.10,3304,3225,3898,3533,1525,0,13,0,0,0,2,0,0,0,1021,3356,0.809,2.480,9.673,0.288,0.076,0.048,2.344,-2.006,9.321,-0.706,0.185,0.349,sad
7.11,3325,3212,3906,3539,1289,0,0,0,0,0,5,0,0,0,1317,3423,0.745,2.914,9.572,0.303,0.072,0.059,1.470,-2.392,9.560,-0.707,0.164,0.332,sad
7.12,3344,3230,3905,3554,1122,0,0,0,0,0,5,69,0,0,1640,3494,0.675,2.890,9.663,0.318,0.085,0.017,8.578,-6.950,11.083,-1.421,0.729,0.349,sad
7.13,3365,3184,3914,3553,1043,0,0,0,17,0,0,0,0,0,1883,3559,0.955,2.828,9.742,0.403,0.080,0.098,-0.134,-4.640,11.856,-0.526,0.273,0.244,sad
7.14,3411,3117,3920,3553,857,0,0,0,0,0,2,0,0,0,2111,3653,0.819,2.701,9.713,0.505,0.095,0.152,1.346,-3.239,11.143,-0.075,0.576,0.334,sad
7.15,3429,3092,3919,3542,715,0,0,0,0,0,10,0,0,0,2190,3687,0.773,2.863,9.596,0.554,0.111,0.193,1.231,-3.026,10.386,-0.029,0.507,0.258,sad
7.16,3447,3056,3919,3539,569,0,0,0,0,0,63,0,0,0,2253,3720,0.747,2.962,9.584,0.555,0.108,0.188,1.561,-3.266,10.513,-0.056,0.296,0.210,sad
7.17,3471,3010,3919,3527,469,0,0,0,0,0,15,0,39,0,2251,3735,0.883,3.019,9.562,0.587,0.146,0.207,1.736,-2.514,9.515,-0.076,0.320,0.175,sad
7.18,3495,2989,3919,3507,223,0,0,0,0,0,15,52,55,0,2347,3751,0.694,3.069,9.493,0.646,0.089,0.224,1.482,-2.923,9.953,-0.016,0.275,0.178,sad
7.19,3529,2927,3915,3454,209,0,0,0,0,0,17,0,47,0,2429,3771,0.694,3.230,9.057,0.719,0.127,0.208,1.623,-2.677,9.799,-0.025,0.204,0.158,sad
7.20,3536,2913,3904,3415,11,0,0,0,0,0,17,0,52,0,2473,3784,0.692,3.294,9.354,0.722,0.143,0.200,1.271,-2.586,9.646,-0.061,0.100,0.179,sad
7.21,3547,2895,3906,3353,0,0,0,0,0,0,15,0,57,0,2505,3797,0.682,3.527,9.280,0.727,0.124,0.177,1.295,-2.485,9.419,-0.012,0.162,0.169,sad
7.22,3559,2926,3897,3312,0,0,0,0,0,0,23,0,89,0,2538,3815,0.807,3.706,9.191,0.695,0.126,0.169,1.415,-2.727,9.802,-0.021,0.153,0.155,sad
7.23,3574,2907,3895,3273,0,0,0,0,0,12,25,0,31,0,2605,3819,0.828,3.658,9.136,0.718,0.116,0.173,1.281,-2.765,9.673,-0.023,0.080,0.144,sad
7.24,3583,2922,3902,3252,0,0,0,0,0,0,69,0,67,0,2591,3830,0.800,3.754,9.184,0.703,0.141,0.145,1.322,-2.765,9.792,0.009,0.092,0.104,sad
7.25,3583,2905,3886,3253,0,0,0,0,0,0,17,0,75,0,2660,3848,0.860,3.974,9.108,0.718,0.145,0.148,1.276,-2.818,9.790,0.015,0.076,0.078,sad
7.26,3583,2839,3887,3248,0,0,0,0,0,0,23,17,79,0,2708,3852,0.745,3.991,8.988,0.748,0.176,0.158,1.286,-2.672,9.677,0.008,0.063,0.072,sad
7.27,3583,2822,3872,3246,0,0,0,0,0,1,17,0,71,0,2765,3863,0.773,4.029,9.103,0.715,0.216,0.161,1.243,-2.672,9.697,-0.006,0.056,0.067,sad
7.28,3568,2843,3858,3251,0,0,0,0,19,0,20,0,70,0,2888,3867,0.802,4.154,9.064,0.732,0.207,0.168,1.233,-2.737,9.692,-0.002,0.048,0.074,sad
7.29,3570,2835,3854,3243,0,0,0,0,0,0,23,39,87,0,2871,3831,0.776,4.250,9.134,0.733,0.204,0.159,1.243,-2.727,9.656,-0.005,0.055,0.073,sad
7.30,3568,2829,3841,3253,0,0,0,0,0,0,61,117,83,0,2983,3887,0.673,4.175,9.452,0.749,0.231,0.128,1.243,-2.662,9.699,0.000,0.068,0.065,sad
7.31,3567,2829,3824,3255,0,0,0,0,0,2,23,249,84,1,2967,3897,0.639,4.271,8.818,0.767,0.224,0.174,1.190,-2.655,9.799,-0.005,0.067,0.074,sad
7.32,3546,2798,3817,3265,0,0,0,0,0,0,23,456,109,0,2973,3901,0.776,4.556,9.036,0.744,0.278,0.141,1.209,-2.667,9.720,-0.014,0.060,0.069,sad
7.33,3520,2790,3745,3265,0,0,0,0,0,0,89,531,83,0,3020,3911,0.836,4.889,8.732,0.804,0.318,0.154,1.211,-2.708,9.747,-0.017,0.058,0.062,sad
7.34,3536,2780,3702,3281,0,0,0,0,31,0,5,539,89,0,3079,3805,0.687,4.812,8.799,0.782,0.376,0.138,1.144,-2.737,9.771,-0.003,0.060,0.055,sad
7.35,3525,2800,3723,3286,0,0,0,0,0,0,0,731,93,0,3101,3925,0.634,4.762,8.787,0.814,0.407,0.133,1.231,-2.732,9.668,0.009,0.058,0.060,sad
7.36,3519,2817,3681,3242,0,0,0,0,3,0,12,884,93,0,3109,3917,0.620,4.865,8.741,0.837,0.471,0.142,1.319,-2.691,9.510,0.016,0.041,0.050,sad
7.37,3501,2815,3635,3279,0,0,0,0,0,0,40,777,87,0,3103,3929,0.663,5.035,8.672,0.816,0.527,0.131,1.240,-2.701,9.603,0.018,0.040,0.050,sad
7.38,3493,2753,3521,3281,0,0,0,0,0,0,396,831,87,0,3083,3947,0.563,5.001,8.710,0.860,0.521,0.117,1.190,-2.789,9.713,0.024,0.036,0.039,sad
7.39,3482,2672,3353,3273,0,0,0,0,0,0,1259,936,109,0,3143,3948,0.424,5.277,8.610,0.891,0.503,0.091,1.178,-2.799,9.780,0.028,0.018,0.027,sad
7.40,3434,2448,3034,3207,0,0,0,0,0,0,1525,855,71,0,3213,3976,0.438,5.210,8.715,0.975,0.581,0.021,1.219,-2.713,9.685,0.022,-0.005,0.013,sad
7.41,3331,1927,2797,3083,0,0,0,0,0,27,1568,885,103,0,3245,4009,0.294,5.246,8.705,1.083,0.582,-0.143,1.166,-2.629,9.675,0.019,0.009,0.017,sad
7.42,3177,1199,2521,2885,0,0,0,0,1,54,1607,1005,89,1,3284,4095,0.062,5.090,8.461,1.305,0.510,-0.353,1.135,-2.605,9.670,0.034,0.019,0.025,sad
7.43,2911,647,2125,2622,0,0,0,0,4,71,1684,1123,115,1,3413,4037,0.055,5.940,10.068,1.374,-0.026,-1.127,1.439,-2.696,9.522,0.064,0.003,0.016,sad
7.44,2590,69,1373,1893,0,0,0,0,2,112,1978,1255,170,3,3526,4063,-1.219,6.096,10.568,1.518,-0.641,-1.625,1.101,-2.605,9.807,0.040,-0.005,0.016,sad
7.45,1938,0,482,686,0,0,0,0,2,115,2149,1323,211,3,3560,4095,-0.290,8.274,9.795,1.926,-0.512,-1.540,1.226,-2.705,9.651,0.041,-0.002,0.019,sad
7.46,698,0,208,110,0,0,0,0,2,109,2203,1367,280,4,3615,4047,-0.498,5.830,12.706,1.536,-0.238,-1.609,1.257,-2.701,9.697,0.028,0.021,0.010,sad
7.47,0,0,0,0,0,0,0,0,1,175,2229,1428,223,2,3684,4091,0.764,1.820,12.033,0.241,0.003,-1.821,1.199,-2.607,9.761,0.028,0.029,0.014,sad
7.48,0,0,0,0,0,0,0,0,1,183,2270,1549,219,17,3702,4095,-1.489,1.288,10.606,-0.065,0.179,-1.846,1.202,-2.619,9.728,0.022,0.029,0.021,sad
7.49,0,0,0,0,0,0,0,0,2,169,2305,1513,227,2,3727,4095,-0.709,1.211,11.284,-0.487,-0.336,-1.510,1.350,-2.650,9.622,0.021,0.035,0.021,sad
7.50,0,0,0,0,13,0,0,0,3,201,2331,1499,245,2,3738,4095,0.563,1.472,8.174,-0.702,-0.471,-1.627,1.209,-2.641,9.776,0.021,0.035,0.022,sad
7.51,0,0,0,0,0,0,0,0,2,186,2387,1543,231,3,3765,4095,1.420,1.159,7.824,-0.878,-0.389,-1.505,1.173,-2.655,9.814,0.015,0.033,0.021,sad
7.52,0,0,0,0,0,0,0,0,1,189,2520,1549,215,5,3768,4095,1.595,1.793,8.004,-0.953,-0.519,-1.261,1.262,-2.619,9.644,0.014,0.033,0.024,sad
7.53,0,0,0,0,0,0,0,0,4,188,2561,1591,298,3,3775,4095,2.212,1.640,7.915,-1.119,-0.628,-0.970,1.221,-2.598,9.687,-0.001,0.041,0.032,sad
7.54,0,0,0,0,0,0,0,0,3,191,2674,1608,281,4,3787,4095,2.777,1.851,7.817,-1.213,-0.711,-0.569,1.173,-2.636,9.768,0.002,0.041,0.031,sad
7.55,0,0,0,0,0,0,0,0,2,187,2572,1672,278,4,3791,4095,2.885,2.294,8.265,-1.303,-0.727,-0.139,1.176,-2.610,9.761,-0.003,0.036,0.036,sad
7.56,0,0,0,0,0,0,0,0,0,167,2659,1787,293,4,3801,3929,2.033,2.935,9.416,-1.439,-0.807,0.257,1.166,-2.595,9.732,-0.013,0.040,0.039,sad
7.57,0,0,0,0,0,0,0,0,3,237,2648,1805,304,2,3811,4093,1.183,2.933,9.182,-1.585,-0.858,0.566,1.156,-2.643,9.711,-0.016,0.040,0.040,sad
7.58,0,0,0,0,0,0,0,0,0,274,2608,1881,315,3,3813,4044,0.148,3.021,8.820,-1.641,-0.896,0.732,1.147,-2.631,9.706,-0.012,0.035,0.038,sad
7.59,0,0,0,0,0,0,0,0,2,277,2641,1864,339,0,3811,4095,-0.814,3.060,9.120,-1.624,-1.004,0.775,1.164,-2.610,9.704,-0.006,0.030,0.043,sad
7.60,0,0,0,0,0,0,0,0,71,302,2687,1899,345,3,3837,4087,-0.982,3.637,9.962,-1.646,-1.056,0.718,1.255,-2.571,9.570,-0.001,0.039,0.045,sad
7.61,0,0,0,0,0,0,0,0,13,413,2725,1915,409,3,3834,4087,-0.879,3.938,10.415,-1.727,-0.948,0.628,1.183,-2.660,9.687,-0.003,0.034,0.046,sad
7.62,0,0,0,0,0,0,0,0,0,461,2756,2020,472,3,3847,4075,-0.809,4.211,10.345,-1.775,-0.838,0.532,1.154,-2.658,9.744,-0.008,0.036,0.037,sad
7.63,0,0,0,0,0,0,0,0,3,565,2799,2019,519,4,3849,4077,-0.443,4.482,10.386,-1.757,-0.843,0.494,1.154,-2.670,9.749,-0.004,0.033,0.038,sad
7.64,0,0,0,0,0,0,0,0,3,543,2769,2108,501,4,3861,4073,0.187,5.035,10.848,-1.737,-0.913,0.545,1.235,-2.579,9.606,-0.003,0.033,0.045,sad
7.65,0,0,0,0,0,0,0,0,2,827,2769,2107,551,0,3864,4071,0.967,5.200,10.695,-1.743,-0.894,0.673,1.094,-2.571,9.661,-0.026,0.011,0.066,sad
7.66,0,0,0,0,0,0,0,0,2,933,2556,2165,614,3,4095,4067,1.468,5.217,10.317,-1.691,-0.762,0.811,1.111,-2.674,9.785,-0.009,0.045,0.046,sad
7.67,0,0,0,0,0,0,0,0,3,1019,2807,2203,794,3,3869,3869,1.441,5.231,10.178,-1.608,-0.641,0.937,1.176,-2.698,9.740,-0.015,0.037,0.044,sad
7.68,0,0,0,0,0,0,0,0,3,1097,2879,2252,920,3,3875,4047,1.489,5.303,10.223,-1.503,-0.572,1.060,1.137,-2.605,9.675,-0.020,0.021,0.053,sad
7.69,0,0,0,0,0,0,0,0,3,1151,2751,2311,1019,4,3881,4028,1.398,5.337,10.223,-1.409,-0.537,1.193,1.123,-2.708,9.706,-0.018,0.028,0.060,sad
7.70,0,0,0,0,0,0,0,0,1,1135,2904,2319,1192,3,3893,4021,1.350,5.148,9.685,-1.311,-0.412,1.286,1.178,-2.646,9.594,-0.021,0.042,0.051,sad
7.71,0,0,0,0,0,0,0,0,0,1135,2902,2347,1335,3,4075,4024,0.759,4.786,9.483,-1.162,-0.312,1.299,1.183,-2.701,9.809,-0.021,0.045,0.048,sad
7.72,0,0,0,0,0,0,0,0,4,1147,2940,2409,1493,1,3898,4013,0.273,4.829,9.816,-0.997,-0.305,1.236,1.142,-2.602,9.701,-0.025,0.043,0.061,sad
7.73,0,0,0,0,0,0,0,0,3,1123,2968,2441,1651,52,3896,3949,-0.134,4.927,10.388,-0.962,-0.320,1.095,1.130,-2.741,9.759,-0.034,0.039,0.064,sad
7.74,39,32,32,36,38,29,34,36,4,1211,3040,2453,1711,5,4011,3911,-0.579,4.879,10.532,-0.982,-0.370,0.835,1.099,-2.698,9.665,-0.031,0.047,0.064,sad
7.75,16,16,18,11,16,16,17,16,5,1262,2984,2577,1846,7,3896,3859,-0.385,4.726,9.629,-0.951,-0.284,0.531,1.109,-2.708,9.749,-0.031,0.044,0.063,sad
7.76,0,0,0,0,0,0,0,0,9,1114,2976,2666,1908,5,3891,3668,0.084,4.113,8.368,-0.787,-0.115,0.258,1.082,-2.806,9.651,-0.035,0.039,0.057,sad
7.77,0,0,0,0,0,0,0,0,25,1161,2986,2707,2043,9,3891,3627,0.230,4.458,9.685,-0.651,-0.187,0.164,1.171,-2.737,9.680,-0.028,0.050,0.045,sad
7.78,0,0,0,0,0,0,0,0,0,1127,3037,2772,2101,9,3886,3615,0.388,5.337,11.262,-0.729,-0.382,0.142,1.106,-2.746,9.754,-0.029,0.044,0.050,sad
7.79,0,0,0,0,0,0,0,0,17,1259,3027,2769,2117,13,3911,3631,0.924,5.057,10.089,-0.856,-0.430,0.149,1.120,-2.722,9.685,-0.034,0.049,0.053,sad
7.80,0,0,0,0,0,0,0,0,27,1270,3048,2765,2133,11,3883,3644,0.754,4.288,7.733,-0.748,-0.212,0.144,1.104,-2.684,9.622,-0.040,0.043,0.059,sad
7.81,0,0,0,0,0,0,0,0,69,1195,3040,2845,2196,112,3882,3652,0.498,4.199,7.602,-0.529,-0.177,0.168,1.058,-2.753,9.665,-0.035,0.049,0.055,sad
7.82,0,0,0,0,0,0,0,0,139,1355,3045,2908,2293,36,3875,3679,0.704,4.317,7.156,-0.156,-0.119,0.248,1.132,-2.763,9.680,-0.028,0.026,0.048,sad
7.83,0,0,0,0,0,0,0,0,181,1387,3263,2983,2397,39,4005,3699,0.172,6.433,12.131,-0.102,-0.220,0.270,1.092,-2.782,9.687,-0.028,0.038,0.038,sad
7.84,0,0,0,0,0,0,0,0,220,1395,3160,2996,2421,45,3868,3688,0.412,5.136,8.847,-0.595,-0.244,0.356,1.053,-2.763,9.586,-0.026,0.041,0.037,sad
7.85,0,0,0,0,0,0,0,0,309,1499,3212,3107,2457,46,3855,3703,-0.812,5.775,5.052,0.193,0.589,0.309,1.089,-2.840,9.673,-0.027,0.035,0.038,sad
7.86,0,0,0,0,0,0,0,0,335,1531,3206,3049,2488,51,3849,3693,-1.693,6.292,6.282,0.582,0.560,0.280,1.077,-2.811,9.663,-0.027,0.043,0.030,sad
7.87,0,0,0,0,0,0,0,0,390,1581,3217,3067,2509,39,3836,3691,1.827,3.673,7.647,0.389,1.066,0.232,1.053,-2.816,9.692,-0.033,0.043,0.026,sad
7.88,0,0,0,0,0,0,0,0,479,1607,3212,3079,2515,51,3831,3695,0.919,0.034,13.621,-0.065,1.257,0.257,1.022,-2.808,9.764,-0.032,0.042,0.031,sad
7.89,0,0,0,0,0,0,0,0,473,1612,3206,3129,2505,0,3796,3695,-1.073,-1.393,7.118,0.552,0.459,0.176,1.056,-2.796,9.685,-0.033,0.043,0.031,sad
7.90,0,0,0,0,0,0,0,808,476,1671,3247,3155,2530,103,3773,3723,-2.892,-0.577,9.278,0.673,0.677,-0.291,1.044,-2.844,9.639,-0.035,0.040,0.026,sad
7.91,0,0,0,0,0,0,0,1418,534,1606,3227,3187,2505,53,3742,3665,0.876,1.338,9.754,0.812,0.370,-0.285,1.030,-2.813,9.692,-0.042,0.043,0.028,sad
7.92,0,0,0,0,0,0,0,1791,596,1703,3232,3207,2467,51,3630,3624,1.125,0.989,9.467,0.923,0.244,-0.148,1.109,-2.875,9.625,-0.052,0.045,0.032,sad
7.93,0,0,0,0,0,0,0,1906,722,1734,3263,3257,2415,51,3388,3545,0.800,1.750,9.898,1.026,0.173,-0.199,1.065,-2.866,9.658,-0.053,0.048,0.030,sad
7.94,0,0,0,0,0,0,9,1947,767,1773,3268,3303,2401,51,3303,3547,1.276,1.772,9.656,1.081,0.173,-0.287,1.018,-2.919,9.651,-0.038,0.050,0.026,sad
7.95,0,0,0,0,0,0,491,2251,793,1805,3201,3323,2238,110,3235,3634,0.414,-0.120,5.976,0.267,-0.416,0.159,1.032,-2.842,9.450,-0.037,0.036,0.042,sad
7.96,0,0,0,0,0,0,865,2619,870,1787,3304,3372,2087,51,3206,3481,1.085,2.088,9.388,0.117,-0.158,-0.011,1.061,-2.878,9.701,-0.061,0.049,0.024,sad
7.97,0,0,0,0,16,0,1237,2892,896,1765,3304,3384,1967,51,3125,3419,0.953,2.772,10.168,0.129,-0.199,-0.020,1.008,-2.902,9.694,-0.058,0.044,0.023,sad
7.98,0,0,0,0,91,0,1556,3023,979,1752,3314,3435,1629,47,2920,3281,0.900,2.184,10.453,0.143,-0.238,-0.048,0.927,-3.005,9.823,-0.091,0.047,0.008,sad
7.99,0,0,0,0,208,0,1824,3105,991,1707,3329,3473,1356,54,2718,3066,1.171,1.999,9.641,0.078,-0.233,-0.031,1.013,-2.902,9.572,-0.069,0.040,0.018,sad
8.00,0,0,0,0,243,0,2041,3237,1115,1708,3350,3487,1212,57,2635,2971,1.159,1.915,9.459,0.095,-0.119,-0.058,1.020,-3.014,9.591,-0.073,0.041,0.019,sad
8.01,3,0,0,0,320,0,2250,3313,1161,1689,3345,3509,823,51,2283,2711,1.142,2.236,9.886,0.137,-0.081,-0.076,0.950,-3.017,9.615,-0.072,0.028,0.019,sad
8.02,116,82,0,0,529,0,2421,3394,1334,1709,3352,3537,463,45,1977,2358,1.180,2.327,10.135,0.062,-0.092,-0.060,0.967,-3.077,9.780,-0.100,0.037,0.007,sad
8.03,272,189,0,0,646,0,2582,3478,1479,1686,3357,3547,403,51,1875,2095,1.192,2.133,9.589,0.052,-0.079,-0.048,1.001,-3.031,9.629,-0.069,0.046,0.014,sad
8.04,432,193,0,0,769,0,2711,3551,1587,1672,3370,3591,202,41,1358,1207,1.279,1.985,9.483,0.066,0.011,-0.062,1.025,-2.986,9.646,-0.082,0.022,0.026,sad
8.05,562,352,0,0,959,0,2829,3622,1805,1709,3375,3578,61,20,739,435,1.176,2.282,9.883,0.049,0.023,-0.064,0.984,-3.122,9.737,-0.214,0.041,-0.019,sad
8.06,656,310,0,0,995,0,2896,3662,1913,1689,3391,3507,73,25,395,251,1.334,2.073,9.443,0.031,0.005,-0.046,0.998,-3.402,9.625,-0.323,0.045,-0.039,sad
8.07,737,417,0,0,1070,0,2977,3699,1896,1727,3365,3501,0,0,0,0,1.156,2.128,9.661,0.055,0.040,-0.051,0.855,-2.619,9.706,-0.773,0.021,-0.177,sad
8.08,806,489,20,0,1177,0,3019,3715,2055,1771,3329,3335,37,0,0,0,1.183,2.267,9.823,0.039,0.027,-0.031,1.073,-3.555,9.505,-0.554,0.039,-0.177,sad
8.09,925,584,191,0,1193,0,3111,3760,2073,1747,3327,3474,27,0,0,0,1.240,2.057,9.682,0.037,0.052,-0.032,0.970,-3.546,9.371,-0.564,-0.016,-0.161,sad
8.10,944,656,240,0,1420,0,3170,3783,2184,1618,3301,3528,25,0,0,0,1.252,2.291,9.867,0.040,0.056,-0.034,1.075,-3.405,9.555,-0.514,0.012,-0.270,sad
8.11,957,679,256,0,1352,0,3186,3789,2269,1460,3263,3421,7,0,51,0,1.025,2.255,9.893,-0.016,-0.030,0.008,1.118,-3.582,9.299,-0.574,-0.026,-0.161,sad
8.12,893,781,368,0,1453,0,3238,3808,2291,1430,3222,3405,0,0,0,0,1.116,2.002,9.749,-0.018,-0.030,0.020,1.147,-3.723,9.285,-0.574,0.006,-0.184,sad
8.13,846,959,497,0,1408,0,3292,3837,2341,1199,3416,3323,0,0,0,0,1.197,2.215,9.840,-0.014,-0.058,0.028,1.221,-3.804,9.311,-0.640,0.011,-0.187,sad
8.14,752,993,487,0,1563,0,3353,3850,2285,1081,3199,3243,0,0,0,0,1.235,1.973,9.517,-0.013,-0.039,0.027,1.274,-3.862,9.275,-0.791,-0.007,-0.173,sad
8.15,614,1017,588,0,1694,0,3383,3856,2292,761,3155,3161,0,0,0,0,1.142,2.006,9.845,-0.006,-0.004,0.019,1.535,-4.125,9.550,-0.870,0.067,-0.209,sad
8.16,582,1127,653,0,1679,0,3424,3883,2187,471,2889,2915,0,0,0,0,1.188,2.004,9.754,-0.016,0.005,0.029,1.331,-4.345,9.213,-1.003,0.170,-0.209,sad
8.17,502,1137,718,0,1760,0,3471,3884,2054,330,2608,2526,0,0,4,0,1.156,1.882,9.577,0.012,0.068,0.002,1.221,-3.960,9.062,-1.244,0.070,-0.086,sad
8.18,471,1147,811,0,1722,0,3489,3911,1816,13,2206,2259,0,0,0,0,1.334,2.059,9.713,0.018,0.099,-0.015,1.355,-4.106,9.246,-1.442,0.134,-0.045,sad
8.19,587,1231,919,0,1743,0,3520,3924,1515,0,58,1542,0,0,30,0,1.156,1.932,9.752,0.045,0.157,-0.035,1.113,-4.733,9.651,-1.727,0.048,0.132,sad
8.20,623,1265,1053,0,1808,0,3539,3906,1181,0,12,595,0,0,0,0,1.058,2.047,9.907,0.050,0.140,-0.040,0.563,-5.176,10.623,-1.813,-0.393,0.629,sad
8.21,665,1347,1231,0,1930,80,3568,3942,933,0,33,392,0,0,0,0,1.188,2.073,9.797,0.036,0.112,-0.044,0.170,-6.905,9.682,-2.142,-0.716,0.752,sad
8.22,661,1427,1465,0,2032,183,3583,3954,181,0,25,0,0,0,0,0,1.087,2.093,9.876,0.031,0.069,-0.026,2.385,-6.891,10.927,-1.394,-0.373,1.151,sad
8.23,627,1509,1611,12,2097,359,3602,3949,0,0,0,0,0,0,0,0,1.149,2.002,9.687,0.046,0.085,-0.017,-0.089,-3.311,10.190,-0.165,0.053,1.425,sad
8.24,679,1584,1769,157,2157,378,3623,3946,0,0,25,0,0,0,0,0,1.152,1.985,9.651,0.068,0.122,-0.042,0.886,-2.727,8.787,0.179,-0.123,1.618,sad
8.25,758,1611,1957,119,2111,394,3623,3954,0,0,25,0,45,0,0,0,1.089,1.963,9.680,0.076,0.160,-0.048,-0.292,-1.863,9.323,1.042,0.245,2.134,sad
8.26,790,1676,2153,445,2169,408,3629,3946,0,0,23,0,0,0,0,0,1.013,2.002,9.711,0.109,0.228,-0.086,2.734,-1.578,8.277,1.488,0.145,1.704,sad
8.27,851,1713,2261,659,2172,507,3627,3964,0,3,0,0,0,0,0,6,0.962,2.097,9.878,0.113,0.185,-0.078,3.366,-2.093,8.566,1.601,0.022,1.381,sad
8.28,882,1758,2361,798,2176,539,3625,3932,0,0,23,0,0,0,0,0,0.965,2.071,9.790,0.103,0.171,-0.079,4.281,-2.727,8.193,1.644,-0.084,0.938,sad
8.29,925,1851,2481,1005,2201,493,3617,3921,0,0,23,0,0,0,0,1,0.982,1.975,9.787,0.133,0.176,-0.102,4.616,-2.732,7.791,1.618,-0.084,0.447,sad
8.30,982,1918,2587,1255,2177,697,3613,3919,0,0,0,0,0,0,0,0,0.960,2.097,9.792,0.146,0.163,-0.125,3.747,-3.666,9.450,1.603,-0.167,-0.448,sad
8.31,1101,1954,2666,1471,2084,794,3605,3931,0,31,28,0,0,0,0,25,0.845,2.140,9.790,0.130,0.136,-0.103,1.946,-4.082,9.737,1.624,-0.317,-1.060,sad
8.32,1255,1975,2753,1634,2115,925,3605,3923,0,0,20,0,0,0,0,0,0.871,2.270,9.797,0.121,0.110,-0.096,0.924,-3.946,9.486,1.557,-0.292,-1.131,sad
8.33,1377,2018,2809,1820,2192,1133,3605,3913,0,0,17,0,0,0,0,0,0.812,2.246,9.694,0.110,0.078,-0.082,-0.266,-4.080,10.652,1.491,-0.267,-0.949,sad
8.34,1456,2037,2838,1894,2192,1216,3600,3905,0,0,23,0,0,0,0,0,0.836,2.330,9.747,0.096,0.063,-0.064,-0.376,-3.728,10.240,1.473,-0.337,-0.651,sad
8.35,1553,2069,2875,1955,2235,1338,3599,3911,0,0,53,0,0,0,0,0,0.809,2.239,9.787,0.083,0.050,-0.050,-0.010,-3.783,10.549,1.435,-0.378,-0.512,sad
8.36,1610,2096,2899,2000,2225,1350,3599,3911,0,11,20,0,0,0,0,0,0.766,2.236,9.732,0.073,0.046,-0.041,0.761,-3.675,10.300,1.440,-0.313,-0.359,sad
8.37,1645,2137,2927,2032,2226,1403,3583,3905,0,0,15,0,51,0,0,0,0.848,2.205,9.658,0.061,0.040,-0.035,0.747,-3.587,10.044,1.301,-0.298,-0.331,sad
8.38,1709,2139,2949,2126,2251,1471,3583,3901,0,0,25,0,0,0,0,0,0.745,2.253,9.740,0.059,0.035,-0.034,1.010,-3.570,10.118,1.234,-0.254,-0.318,sad
8.39,1737,2138,2964,2162,2288,1519,3583,3901,52,0,17,0,0,0,0,0,0.781,2.243,9.773,0.056,0.026,-0.022,0.936,-3.491,10.283,1.118,-0.027,-0.312,sad
8.40,1752,2157,2994,2182,2293,1562,3583,3898,0,0,17,0,0,0,0,0,0.845,2.191,9.716,0.063,0.032,-0.026,0.000,-4.475,12.036,1.167,-0.507,-0.411,sad
8.41,1777,2194,3023,2240,2274,1535,3583,3893,0,7,23,9,1,0,0,0,0.749,2.325,9.756,0.079,0.027,-0.029,0.479,-3.979,10.161,1.181,-0.530,-0.416,sad
8.42,1807,2256,3040,2297,2301,1607,3583,3894,0,0,23,0,0,75,0,0,0.804,2.263,9.697,0.058,0.029,-0.031,0.711,-3.826,9.208,0.911,-0.299,-0.441,sad
8.43,1856,2251,3083,2371,2342,1696,3583,3877,0,0,191,0,0,0,0,0,0.828,2.215,9.620,0.070,0.026,-0.024,0.761,-4.456,10.795,0.762,-0.159,-0.533,sad
8.44,1909,2337,3110,2403,2383,1786,3582,3866,0,0,20,0,0,0,0,0,0.757,2.286,9.749,0.082,0.025,-0.032,1.092,-4.281,10.151,0.782,-0.230,-0.641,sad
8.45,1964,2399,3157,2438,2437,1809,3603,3859,0,0,12,0,0,0,0,0,0.797,2.298,9.725,0.093,0.016,-0.028,1.618,-3.601,8.739,0.575,-0.120,-0.726,sad
8.46,1997,2416,3209,2505,2509,1852,3568,3845,0,0,23,42,0,0,0,0,0.771,2.272,9.723,0.087,0.023,-0.017,0.419,-3.608,8.159,0.185,-0.408,-0.748,sad
8.47,2060,2478,3257,2559,2533,1835,3554,3827,0,0,20,0,0,0,0,0,0.783,2.265,9.668,0.081,0.024,-0.028,0.589,-4.020,9.057,0.121,-0.646,-0.715,sad
8.48,2109,2538,3294,2613,2539,1836,3547,3814,0,0,17,73,0,0,0,0,0.745,2.320,9.752,0.076,0.029,-0.024,0.843,-4.080,9.795,0.382,-0.617,-0.447,sad
8.49,2160,2608,3338,2663,2559,1856,3525,3787,0,0,17,0,0,0,0,0,0.802,2.286,9.680,0.089,0.020,-0.023,-0.012,-3.373,7.379,0.288,-0.294,-0.097,sad
8.50,2222,2640,3378,2721,2594,1868,3504,3770,0,0,15,0,0,0,0,0,0.733,2.327,9.747,0.098,0.020,-0.019,0.043,-3.491,7.221,0.095,-0.360,0.046,sad
