timestamp,L1,L2,L3,L4,L5,L6,L7,L8,R1,R2,R3,R4,R5,R6,R7,R8,acc_x_left,acc_y_left,acc_z_left,gyro_x_left,gyro_y_left,gyro_z_left,acc_x_right,acc_y_right,acc_z_right,gyro_x_right,gyro_y_right,gyro_z_right,mood
0.00,2915,1578,3422,3296,1341,0,1527,2757,2501,2027,2413,3167,183,43,2725,3845,0.761,2.543,9.651,0.044,0.061,-0.013,0.898,-2.686,9.732,0.009,0.013,0.015,sad
0.01,2971,1616,3430,3300,1312,0,1458,2698,2452,2024,2323,3187,204,85,2726,3869,0.864,2.497,9.732,0.040,0.034,-0.020,0.874,-2.655,9.665,0.014,0.019,0.010,sad
0.02,3012,1645,3451,3297,1328,0,1378,2612,2427,2015,2352,3161,184,43,2732,3847,0.850,2.552,9.644,0.056,0.010,-0.011,0.871,-2.641,9.778,0.015,0.019,0.014,sad
0.03,3050,1801,3473,3312,1399,0,1326,2535,2319,1999,2290,3144,181,41,2731,3864,0.764,2.540,9.639,0.039,-0.027,-0.014,0.898,-2.696,9.778,0.020,0.018,0.013,sad
0.04,3086,1889,3498,3328,1456,0,1278,2460,2325,1947,2592,3095,139,63,2717,3859,0.915,2.502,9.718,0.059,0.002,-0.009,0.907,-2.691,9.701,0.015,0.016,0.012,sad
0.05,3110,1978,3514,3343,1511,0,1114,2293,2197,1823,2267,3035,125,39,2621,3866,0.874,2.492,9.692,0.072,0.025,-0.006,0.943,-2.622,9.699,0.026,0.013,0.006,sad
0.06,3114,1937,3521,3363,1533,0,1011,2204,2125,1839,2387,2855,157,23,2697,3869,0.773,2.559,9.639,0.057,0.033,-0.008,0.912,-2.660,9.742,0.027,0.015,0.008,sad
0.07,3127,1984,3537,3372,1554,0,914,2130,1864,1768,2270,2957,132,35,2707,3877,0.783,2.533,9.543,0.050,0.007,-0.009,0.881,-2.600,9.720,0.021,0.010,0.012,sad
0.08,3140,2075,3549,3366,1573,0,948,2075,1503,1687,2249,2885,136,37,2701,3887,0.778,2.579,9.543,0.023,-0.039,-0.018,0.871,-2.636,9.785,0.025,0.015,0.007,sad
0.09,3166,2143,3558,3346,1557,0,985,2034,1341,1679,2226,2852,134,37,2679,3895,0.792,2.516,9.634,0.032,-0.092,-0.005,0.895,-2.624,9.735,0.015,0.013,0.007,sad
0.10,3153,2240,3571,3333,1646,0,1108,1966,1081,1509,2259,2776,123,35,2671,3897,0.931,2.504,9.713,0.043,-0.093,-0.011,0.905,-2.600,9.761,0.007,0.011,0.005,sad
0.11,3141,2340,3573,3312,1584,0,1153,1949,975,1549,2244,2735,121,37,2679,3807,0.960,2.509,9.713,0.049,-0.067,-0.006,0.929,-2.607,9.740,0.013,0.015,0.013,sad
0.12,3118,2374,3618,3296,1663,0,1200,1958,883,1556,2270,2711,127,35,2659,3903,0.984,2.523,9.682,0.052,-0.046,-0.007,0.955,-2.605,9.704,0.013,0.010,0.011,sad
0.13,3120,2427,3583,3283,1704,0,1277,1907,813,1560,2236,2638,117,25,2815,3917,1.013,2.540,9.711,0.052,-0.031,-0.004,0.929,-2.662,9.764,0.011,0.015,0.010,sad
0.14,3117,2448,3583,3264,1738,0,1286,1764,807,1514,2234,2598,119,35,2676,3919,1.006,2.543,9.668,0.057,-0.008,0.001,0.888,-2.543,9.759,0.020,0.017,0.011,sad
0.15,3090,2474,3583,3251,1767,0,1303,1647,867,1503,2218,2572,121,31,2766,3921,0.982,2.545,9.646,0.060,0.006,-0.001,0.946,-2.674,9.723,0.026,0.012,0.015,sad
0.16,3070,2513,3583,3230,1814,0,1250,1554,687,1555,2208,2569,159,41,2727,4088,1.003,2.535,9.708,0.071,0.018,-0.006,0.917,-2.523,9.622,0.021,0.013,0.012,sad
0.17,3070,2533,3583,3242,1802,0,1189,1404,661,1576,2367,2615,151,39,2777,3931,1.044,2.519,9.613,0.070,0.026,-0.002,0.958,-2.557,9.771,0.006,0.010,0.011,sad
0.18,3071,2539,3581,3234,1744,0,1088,1015,617,1529,2239,2543,147,39,2787,3933,1.020,2.562,9.673,0.079,0.034,0.006,0.891,-2.516,9.704,0.013,0.017,0.010,sad
0.19,3083,2534,3583,3234,1648,0,976,635,627,1676,2239,2619,167,44,2829,3933,1.015,2.540,9.589,0.074,0.033,0.001,0.871,-2.574,9.725,0.007,-0.014,0.017,sad
0.20,3097,2543,3568,3226,1478,0,773,254,757,1753,2265,2675,169,41,2901,3943,0.946,2.521,9.629,0.087,0.035,0.004,0.974,-2.634,9.835,0.013,0.011,0.011,sad
0.21,3107,2525,3567,3233,1403,0,633,0,758,1784,2275,2730,131,39,2953,3944,0.984,2.547,9.584,0.097,0.036,-0.005,0.982,-2.631,9.680,0.020,0.013,0.014,sad
0.22,3117,2513,3563,3217,1162,0,398,0,886,1837,2313,2804,121,31,3043,3938,0.991,2.504,9.632,0.113,0.035,0.006,0.946,-2.579,9.795,0.028,0.011,0.016,sad
0.23,3123,2473,3536,3207,989,0,103,0,1035,1837,2326,2859,157,41,3127,3945,0.924,2.600,9.675,0.113,0.034,0.004,0.996,-2.617,9.730,0.008,0.005,0.016,sad
0.24,3130,2409,3519,3194,833,0,0,0,1048,1891,2341,2886,136,37,3173,3947,1.070,2.533,9.629,0.165,0.028,0.023,0.965,-2.655,9.756,0.006,0.006,0.014,sad
0.25,3123,2270,3482,3155,772,0,0,0,1175,1867,2597,2971,244,47,3231,3931,1.125,2.619,9.673,0.176,0.029,0.043,0.934,-2.588,9.771,0.018,0.005,0.016,sad
0.26,3089,2032,3421,3105,411,0,0,0,1335,1958,2769,3051,167,43,3321,3948,1.077,2.689,9.596,0.190,0.029,0.047,1.013,-2.667,9.785,0.019,0.002,0.016,sad
0.27,3011,1789,3326,2994,272,0,0,0,1413,1997,2802,3093,181,0,3353,3948,-0.412,4.022,9.402,0.267,0.063,-0.110,0.986,-2.643,9.776,0.016,0.004,0.009,sad
0.28,2856,1434,3184,2864,9,0,0,0,1579,2056,2879,3107,175,61,3428,3949,0.309,2.464,9.299,0.334,-0.015,0.047,0.991,-2.612,9.780,0.034,0.001,0.011,sad
0.29,2704,879,3011,2688,0,0,0,0,1629,2137,3104,3149,281,51,3479,3949,0.754,2.581,9.567,0.418,0.092,0.054,1.051,-2.612,9.840,0.038,0.011,0.017,sad
0.30,2398,548,2766,2382,0,0,0,0,1625,2186,3048,3133,294,45,3511,3950,0.457,2.648,9.632,0.496,0.010,-0.037,1.065,-2.588,9.766,0.034,0.015,0.015,sad
0.31,1863,299,2375,1681,0,0,0,0,1677,2232,3212,3208,453,53,3567,3951,1.286,2.753,9.538,0.592,0.057,-0.199,0.989,-2.588,9.874,0.041,0.023,0.017,sad
0.32,1399,124,1511,839,0,0,0,0,1693,2267,3130,3178,476,47,3599,3939,1.987,3.285,9.946,0.601,0.225,-0.474,1.022,-2.533,9.771,0.026,0.024,0.018,sad
0.33,1040,0,49,246,0,0,0,0,1727,2339,3096,3160,666,51,3635,3960,1.168,3.443,9.747,0.683,0.031,-0.850,0.931,-2.483,9.838,0.031,0.027,0.020,sad
0.34,446,0,0,0,0,0,0,0,1715,2363,3109,3180,793,53,3645,3814,3.036,3.421,9.869,0.402,0.166,-1.364,1.001,-2.598,9.723,0.006,0.024,0.014,sad
0.35,0,0,0,0,0,0,0,0,1817,2377,3101,3211,936,53,3644,3944,3.105,2.782,11.327,0.059,0.568,-1.655,1.015,-2.569,9.759,0.004,0.020,0.015,sad
0.36,0,0,0,0,0,0,0,0,1831,2351,3130,3213,979,53,3675,3942,3.967,1.243,9.845,-0.070,0.648,-1.567,0.974,-2.593,9.752,0.010,0.025,0.020,sad
0.37,0,0,0,0,0,0,0,0,1848,2376,3099,3219,1051,23,3684,3938,3.685,1.401,10.661,0.095,0.102,-0.820,1.006,-2.512,9.771,0.001,0.023,0.016,sad
0.38,0,0,0,0,0,0,0,0,1895,2431,3181,3230,1069,7,3691,3930,4.618,0.424,9.268,-0.145,0.034,-0.327,0.989,-2.490,9.744,-0.010,0.021,0.024,sad
0.39,0,0,0,0,0,0,0,0,1945,2425,3155,3205,1236,53,3693,4043,3.376,-0.019,8.964,-0.190,0.015,0.021,0.994,-2.595,9.778,-0.009,0.025,0.023,sad
0.40,0,0,0,0,0,0,0,0,1999,2491,3186,3208,1374,53,3703,3893,3.098,0.194,9.641,-0.217,-0.215,0.309,0.994,-2.545,9.704,-0.017,0.029,0.018,sad
0.41,0,0,0,0,0,0,0,0,2014,2509,3183,3223,1403,52,3703,3878,2.722,0.414,10.001,-0.359,-0.303,0.607,1.020,-2.500,9.675,-0.022,0.021,0.019,sad
0.42,0,0,0,0,0,0,0,0,2063,2535,3201,3192,1483,52,3706,3849,1.906,0.816,10.578,-0.524,-0.327,0.820,1.027,-2.588,9.756,-0.017,0.025,0.020,sad
0.43,0,0,0,0,0,0,0,0,2086,2537,3212,3155,1545,53,3705,3807,1.202,1.061,10.649,-0.658,-0.384,0.894,1.008,-2.586,9.771,-0.024,0.030,0.016,sad
0.44,0,0,0,0,0,0,0,0,2093,2573,3478,3159,1559,51,3705,3732,0.934,1.271,10.482,-0.740,-0.366,0.910,0.967,-2.643,9.847,-0.023,0.032,0.016,sad
0.45,0,0,0,0,0,0,0,0,2141,2621,2853,3164,1653,52,3695,3721,0.910,1.518,10.053,-0.756,-0.246,0.891,1.010,-2.555,9.735,-0.017,0.035,0.022,sad
0.46,0,0,0,0,0,0,0,0,2213,2659,3268,3193,1818,53,3695,3629,1.022,1.630,9.390,-0.654,0.033,0.851,1.003,-2.567,9.785,-0.034,0.034,0.021,sad
0.47,0,0,0,0,0,0,0,0,2266,2629,3227,3205,1866,51,3691,3572,0.948,2.516,10.958,-0.599,0.042,0.815,0.996,-2.571,9.790,-0.041,0.035,0.017,sad
0.48,0,0,0,0,0,0,0,0,2349,2717,3347,3247,1932,52,3640,3358,1.111,2.878,10.822,-0.723,0.143,0.853,0.929,-2.634,9.756,-0.046,0.040,0.018,sad
0.49,0,0,0,0,0,0,0,0,2360,2719,3365,3277,1961,55,3579,3189,0.769,2.837,9.730,-0.711,0.282,0.887,0.905,-2.593,9.764,-0.048,0.041,0.017,sad
0.50,0,0,0,0,0,0,0,0,2548,2744,3416,3293,2030,52,3537,3133,0.565,3.172,9.634,-0.598,0.360,0.891,0.941,-2.634,9.783,-0.058,0.045,0.019,sad
0.51,0,0,0,0,0,0,0,0,2604,2746,3432,3404,2043,52,3353,2952,0.053,3.721,10.489,-0.499,0.155,0.875,1.008,-2.674,9.668,-0.065,0.051,0.018,sad
0.52,0,0,0,0,0,0,0,0,2728,2803,3544,3433,2042,52,3115,2955,-0.211,4.482,10.776,-0.618,-0.172,0.867,0.946,-2.713,9.747,-0.058,0.061,0.021,sad
0.53,0,0,0,0,0,0,0,0,2729,2812,3462,3387,2053,52,3036,2899,0.065,4.501,8.523,-0.601,-0.204,0.870,0.955,-2.713,9.732,-0.066,0.062,0.016,sad
0.54,0,0,0,0,0,0,0,0,2805,2815,3465,3516,2053,47,2915,2829,0.350,4.594,8.171,-0.473,-0.198,0.911,0.919,-2.713,9.663,-0.055,0.067,0.018,sad
0.55,0,0,0,0,0,0,0,0,2851,2860,3718,3692,2007,79,2900,2760,-1.393,6.132,6.096,0.075,0.299,0.963,0.948,-2.763,9.780,-0.046,0.076,0.021,sad
0.56,0,0,0,0,0,0,0,0,2926,2905,3485,3594,1995,51,2869,2661,-3.563,7.638,6.086,0.531,0.233,0.838,0.953,-2.737,9.821,-0.063,0.074,0.020,sad
0.57,0,0,0,0,0,0,0,0,3029,2899,3488,3691,1763,51,2677,2389,-0.318,2.251,6.701,0.707,0.516,0.360,0.881,-2.763,9.797,-0.054,0.084,0.018,sad
0.58,0,0,0,0,0,0,0,1767,3189,2931,3503,3568,1491,48,2489,2075,-4.427,-2.375,9.764,0.962,-0.189,-0.043,0.857,-2.777,9.653,-0.072,0.078,0.020,sad
0.59,0,0,0,0,0,0,0,2602,3171,2937,3519,3803,1363,49,2419,1837,2.488,1.688,10.142,1.395,-0.086,-0.339,0.929,-2.717,9.687,-0.106,0.072,0.019,sad
0.60,0,0,0,0,0,0,654,2992,3212,3000,3524,3743,953,59,1941,781,1.879,2.267,9.249,1.101,0.327,-0.257,0.833,-2.768,9.744,-0.130,0.057,0.001,sad
0.61,0,0,0,0,147,0,1307,3175,3323,2961,3529,3771,143,33,1498,824,-1.235,6.910,8.748,0.547,-0.828,0.342,0.673,-3.965,9.665,-0.183,0.079,0.026,sad
0.62,0,0,0,0,274,0,1711,3318,3355,2951,3557,3772,107,0,1095,595,1.326,0.498,8.744,0.150,-0.158,-0.147,0.462,-2.765,9.826,-0.377,0.054,-0.046,sad
0.63,79,0,177,0,688,0,2031,3378,3355,2895,3682,3794,35,0,0,190,0.879,2.828,9.747,0.249,-0.085,-0.114,1.001,-2.430,9.902,-0.706,0.065,-0.202,sad
0.64,467,276,583,51,1033,0,2333,3455,3398,2667,3465,3730,28,13,0,0,0.958,2.646,10.056,0.128,0.022,-0.135,0.974,-3.275,9.445,-0.746,0.001,-0.281,sad
0.65,720,362,976,669,1072,0,2419,3525,3410,2532,3636,3669,2,0,0,0,1.056,2.229,9.584,0.052,-0.001,-0.063,1.034,-2.854,9.428,-0.712,0.001,-0.281,sad
0.66,911,526,1375,1054,1186,0,2609,3581,3444,2142,3414,3596,0,0,1,25,0.950,2.437,9.732,0.043,0.013,-0.041,0.821,-3.270,9.419,-0.899,0.006,-0.309,sad
0.67,1008,654,1712,1335,1342,0,2778,3645,3451,1689,3391,3517,0,0,0,0,0.946,2.435,9.795,0.035,0.005,-0.006,0.991,-3.587,9.294,-0.814,0.063,-0.277,sad
0.68,1016,833,2000,1426,1440,0,2940,3691,3409,1627,3355,3475,0,0,3,0,0.888,2.344,9.720,-0.009,-0.030,0.023,1.101,-3.543,9.452,-0.878,0.098,-0.288,sad
0.69,1014,1059,2196,1497,1505,0,3063,3715,3433,1255,3191,3336,0,0,0,0,0.994,2.138,9.661,0.010,-0.008,0.014,0.996,-3.879,8.945,-1.005,0.147,-0.167,sad
0.70,1039,1199,2403,1631,1481,0,3173,3744,3399,547,2920,3144,0,0,0,0,1.068,2.298,9.670,0.041,0.031,-0.001,0.730,-4.563,8.923,-1.025,0.234,-0.127,sad
0.71,1063,1264,2559,1709,1615,0,3242,3765,3359,395,2329,3112,0,0,0,0,1.154,2.330,9.665,0.029,0.048,-0.005,1.183,-4.058,8.894,-1.013,0.277,-0.130,sad
0.72,1114,1344,2675,1810,1795,0,3291,3778,3270,1,2183,3043,0,0,0,0,0.991,2.227,9.639,0.044,0.050,-0.006,0.848,-4.300,9.050,-1.107,0.304,-0.022,sad
0.73,1131,1447,2818,2007,1907,0,3324,3788,3253,0,706,2923,0,0,0,1,0.958,2.337,9.768,0.039,0.079,-0.006,0.759,-4.547,8.686,-1.294,0.270,0.064,sad
0.74,1239,1588,2902,2192,1963,228,3349,3794,3247,0,66,2887,0,0,0,0,0.917,2.298,9.747,0.032,0.113,-0.022,0.713,-5.090,8.741,-1.415,0.219,0.193,sad
0.75,1345,1619,2998,2321,2039,208,3393,3801,3251,0,61,2566,0,6,0,0,0.824,2.330,9.831,0.007,0.050,-0.016,1.010,-5.310,9.244,-1.548,0.183,0.508,sad
0.76,1195,1765,3102,2325,2000,366,3450,3798,3179,0,58,1451,0,0,0,0,1.140,2.179,9.663,-0.014,-0.051,0.017,0.804,-5.928,10.022,-1.698,-0.218,1.301,sad
0.77,971,1984,3181,2285,2266,445,3493,3809,2987,0,61,943,0,0,0,12,1.130,2.191,9.634,0.010,-0.063,0.013,1.271,-6.467,10.065,-1.628,-0.130,1.636,sad
0.78,981,2175,3248,2290,2411,491,3535,3815,2089,0,0,354,0,0,0,0,1.099,2.217,9.699,0.033,-0.007,-0.014,0.589,-6.790,9.021,-1.840,-0.028,1.574,sad
0.79,970,2295,3312,2362,2550,368,3557,3803,691,0,53,85,0,0,0,0,0.608,2.380,9.902,0.042,-0.043,-0.006,0.342,-7.633,9.091,-1.645,0.093,1.538,sad
0.80,883,2448,3362,2353,2687,305,3600,3779,77,0,48,2,0,0,0,0,1.065,2.207,9.735,0.053,-0.109,-0.009,0.644,-6.445,10.599,-0.984,0.245,1.730,sad
0.81,892,2517,3415,2423,2798,171,3611,3741,0,0,48,0,0,0,0,51,1.171,2.354,9.675,0.079,-0.085,-0.005,0.646,-2.368,10.317,-0.146,0.434,1.830,sad
0.82,935,2622,3451,2416,2933,0,3627,3725,0,0,48,0,0,0,0,0,1.207,2.270,9.708,0.082,-0.014,-0.014,2.485,-3.060,8.981,0.269,0.039,0.880,sad
0.83,1040,2624,3479,2445,2958,0,3616,3709,0,0,243,0,0,0,0,0,1.152,2.301,9.787,0.088,0.010,-0.017,2.411,-2.612,8.109,0.371,0.010,0.543,sad
0.84,1170,2679,3510,2490,3003,0,3615,3681,0,0,51,0,0,0,0,11,1.137,2.260,9.687,0.089,-0.000,-0.020,2.389,-2.919,7.858,0.490,0.057,0.237,sad
0.85,1249,2702,3545,2512,3071,0,3609,3648,0,0,0,0,0,0,0,0,1.262,2.255,9.704,0.075,0.049,-0.029,1.417,-3.287,7.779,0.649,0.108,-0.381,sad
0.86,1328,2753,3567,2559,3107,0,3605,3639,0,0,48,0,0,0,0,0,1.053,2.279,9.732,0.085,0.062,-0.031,0.850,-3.565,8.203,0.764,0.163,-0.578,sad
0.87,1515,2730,3597,2601,3165,0,3577,3626,0,0,0,0,0,0,7,0,1.101,2.346,9.790,0.106,0.067,-0.053,-0.496,-4.185,9.165,1.167,0.119,-0.743,sad
0.88,1712,2710,3627,2653,3182,28,3564,3623,0,0,43,0,0,0,0,0,1.049,2.387,9.720,0.086,0.066,-0.050,-0.948,-4.140,8.428,1.298,0.081,-0.713,sad
0.89,1905,2750,3645,2771,3201,148,3563,3612,0,0,46,0,0,20,0,0,1.039,2.337,9.670,0.084,0.040,-0.035,-0.879,-4.999,9.050,1.475,0.027,-0.496,sad
0.90,2084,2752,3666,2846,3239,91,3542,3600,0,0,43,0,0,0,0,0,1.063,2.291,9.637,0.091,0.021,-0.024,-0.453,-5.114,8.660,1.624,0.015,-0.407,sad
0.91,2198,2803,3681,2882,3256,243,3531,3566,0,0,43,0,0,0,0,0,1.073,2.363,9.756,0.074,0.026,-0.017,-0.199,-4.978,8.107,1.599,-0.015,-0.390,sad
0.92,2296,2796,3648,2929,3277,400,3523,3551,0,0,40,0,0,0,0,0,1.082,2.397,9.685,0.071,0.028,-0.018,0.512,-5.399,10.149,1.600,0.018,-0.448,sad
0.93,2371,2839,3705,2967,3320,295,3509,3535,0,0,43,0,0,0,0,0,1.140,2.337,9.764,0.064,0.035,-0.018,0.819,-4.891,9.582,1.789,-0.031,-0.616,sad
0.94,2422,2843,3718,3006,3334,414,3490,3504,0,0,43,0,0,0,0,0,1.125,2.363,9.787,0.064,0.029,-0.020,0.852,-4.539,8.871,1.747,-0.050,-0.666,sad
0.95,2503,2881,3733,3047,3350,386,3464,3464,0,0,43,0,0,35,0,71,1.154,2.385,9.646,0.066,0.037,-0.013,1.386,-4.539,9.163,1.585,-0.236,-0.883,sad
0.96,2555,2913,3743,3067,3365,378,3435,3424,0,0,43,0,13,0,0,0,1.020,2.361,9.694,0.058,0.028,-0.010,1.369,-4.640,9.481,1.396,-0.314,-1.170,sad
0.97,2608,2978,3754,3126,3376,279,3411,3398,0,8,43,0,0,0,0,0,1.109,2.401,9.689,0.060,0.022,-0.007,0.982,-4.805,10.051,1.331,-0.320,-1.241,sad
0.98,2649,3014,3763,3149,3390,330,3389,3376,0,0,40,16,0,0,0,53,1.051,2.375,9.668,0.060,0.032,-0.014,0.156,-5.047,10.379,1.329,-0.396,-1.184,sad
0.99,2672,3026,3777,3159,3408,470,3363,3344,46,0,43,0,0,0,0,0,1.106,2.380,9.670,0.059,0.034,-0.009,-0.074,-5.023,10.388,1.306,-0.371,-0.922,sad
1.00,2699,3044,3782,3191,3418,353,3334,3296,0,0,43,0,0,0,0,0,1.085,2.389,9.646,0.061,0.025,-0.009,-0.168,-4.922,9.673,1.231,-0.410,-0.771,sad
1.01,2715,3067,3787,3202,3423,163,3281,3243,19,0,33,0,0,0,0,0,1.142,2.433,9.682,0.064,0.031,-0.007,0.065,-5.756,11.047,1.026,-0.571,-0.451,sad
1.02,2753,3088,3806,3223,3419,155,3255,3205,0,0,28,0,0,0,1,0,1.065,2.421,9.670,0.058,0.036,-0.007,0.261,-5.782,11.035,1.409,-0.715,-0.276,sad
1.03,2770,3105,3815,3248,3420,100,3197,3150,0,0,33,0,0,0,0,0,1.044,2.409,9.670,0.055,0.038,-0.018,-0.057,-5.035,8.770,1.341,-0.677,-0.174,sad
1.04,2802,3097,3813,3275,3398,3,3117,3119,0,0,43,0,0,0,0,0,1.101,2.425,9.656,0.074,0.051,-0.017,-0.034,-5.272,9.050,0.990,-0.723,-0.076,sad
1.05,2789,3071,3824,3283,3365,119,3070,3088,4,0,33,0,0,0,0,0,1.113,2.435,9.673,0.063,0.059,-0.013,0.615,-5.100,8.526,0.812,-0.533,-0.221,sad
1.06,2810,3021,3815,3284,3316,275,3033,3102,0,0,33,0,0,0,37,0,1.020,2.464,9.675,0.055,0.071,-0.015,0.682,-5.399,9.031,0.737,-0.390,-0.291,sad
1.07,2803,2960,3818,3315,3277,452,3031,3136,0,0,33,0,0,0,0,0,1.070,2.447,9.661,0.048,0.067,-0.007,1.037,-5.064,7.705,0.572,-0.270,-0.533,sad
1.08,2829,2906,3827,3340,3259,626,3013,3163,0,13,5,0,0,0,0,0,0.950,2.382,9.730,0.046,0.065,-0.016,1.030,-5.104,7.870,0.241,-0.079,-0.766,sad
1.09,2853,2871,3824,3354,3248,657,2975,3171,0,0,33,0,0,0,0,0,0.970,2.413,9.706,0.032,0.066,-0.017,1.044,-5.040,8.286,0.144,-0.023,-0.855,sad
1.10,2880,2823,3825,3373,3235,717,2949,3152,0,0,40,0,0,0,0,0,1.053,2.406,9.641,0.033,0.050,-0.016,0.713,-4.211,7.709,-0.081,0.050,-0.908,sad
1.11,2939,2850,3833,3407,3254,752,2850,3039,0,0,33,0,0,0,0,6,0.972,2.363,9.682,0.047,0.039,-0.020,0.697,-3.620,8.396,-0.346,0.062,-0.844,sad
1.12,2989,2911,3845,3414,3248,559,2735,2771,0,0,40,0,0,0,0,0,1.001,2.380,9.761,0.070,0.033,-0.020,1.348,-2.914,9.627,-1.903,-0.118,-1.321,sad
1.13,3040,2991,3856,3442,3249,84,2584,2189,0,0,35,0,0,0,0,0,0.989,2.382,9.675,0.090,0.025,-0.017,1.812,-2.021,12.488,-0.592,0.677,-0.864,sad
1.14,3109,3056,3866,3469,3199,0,2345,1533,0,9,115,0,0,0,0,0,1.058,2.416,9.658,0.106,0.045,-0.010,0.912,-0.362,8.507,-0.597,0.734,-0.728,sad
1.15,3153,3113,3875,3475,3042,0,2097,461,0,0,40,0,0,0,6,0,1.020,2.397,9.706,0.122,0.045,-0.007,-1.413,-0.113,11.121,-0.718,0.549,-0.473,sad
1.16,3167,3154,3888,3503,2743,0,1744,0,0,0,33,0,23,0,0,86,1.037,2.389,9.704,0.153,0.057,-0.001,-5.004,-0.986,11.281,-0.873,-0.082,0.113,sad
1.17,3190,3165,3911,3519,2333,0,1287,0,0,0,0,0,0,16,0,1655,0.943,2.550,9.708,0.147,0.059,0.002,3.419,-2.519,9.213,-0.913,-0.258,0.170,sad
1.18,3244,3185,3919,3545,2247,0,786,0,0,0,53,0,0,0,0,2175,0.831,3.019,9.718,0.087,0.042,-0.005,2.722,-2.143,9.297,-0.825,-0.256,0.139,sad
1.19,3283,3227,3931,3611,1993,0,531,0,0,0,0,0,0,0,1023,2763,0.946,2.591,9.665,0.232,0.052,0.012,1.168,-2.401,10.106,-0.859,-0.326,0.148,sad
1.20,3315,3248,3935,3558,1833,0,1,0,0,0,43,0,0,12,1427,3029,0.941,2.071,9.555,0.202,0.026,-0.006,1.329,-0.826,7.530,-0.196,0.609,0.369,sad
1.21,3337,3253,3949,3565,1585,0,0,0,0,0,53,0,23,0,1721,3093,0.970,2.552,9.697,0.410,0.032,0.082,0.582,-3.503,11.621,-0.195,0.405,0.264,sad
1.22,3359,3249,3945,3535,1515,0,0,0,0,0,30,0,0,0,1773,3209,0.948,2.756,9.610,0.426,0.021,0.087,1.516,-2.670,9.661,-0.173,0.271,0.250,sad
1.23,3373,3247,3950,3513,1328,0,0,0,0,0,2,0,0,0,1813,3241,0.941,2.720,9.567,0.443,0.014,0.089,0.467,-2.409,10.707,-0.187,0.197,0.289,sad
1.24,3387,3253,3952,3481,1271,0,0,0,7,0,28,0,0,0,1831,3269,0.986,2.780,9.538,0.466,0.005,0.084,1.243,-2.502,9.804,-0.095,0.196,0.269,sad
1.25,3397,3239,3953,3439,1189,0,0,0,0,11,43,0,0,0,1853,3301,1.020,2.971,9.541,0.470,-0.000,0.080,1.235,-2.641,9.922,-0.086,0.135,0.249,sad
1.26,3418,3211,3953,3373,906,0,0,0,0,0,43,301,0,27,2020,3351,0.948,2.820,9.464,0.484,-0.006,0.096,1.046,-2.808,10.087,-0.030,0.092,0.163,sad
1.27,3440,3151,3952,3309,1137,0,0,0,0,21,40,379,6,6,2005,3355,0.891,2.942,9.701,0.451,-0.021,0.091,1.166,-2.667,9.819,-0.003,0.073,0.128,sad
1.28,3475,3088,3951,3313,899,0,0,0,3,87,48,658,22,0,2248,3432,1.089,3.364,9.354,0.545,-0.003,0.115,1.219,-2.428,9.759,-0.028,0.086,0.127,sad
1.29,3489,2943,3941,3313,960,0,0,0,57,87,0,931,27,5,2351,3468,1.195,3.426,9.464,0.547,0.029,0.122,1.092,-2.658,9.826,-0.047,0.068,0.125,sad
1.30,3514,2859,3940,3295,804,0,0,0,147,156,0,1049,0,5,2427,3480,1.030,3.381,9.445,0.554,0.042,0.133,1.070,-2.528,9.850,-0.067,0.051,0.131,sad
1.31,3533,2778,3935,3273,474,0,0,0,319,568,401,1523,39,7,2551,3496,1.120,3.591,9.337,0.615,0.098,0.147,1.063,-2.605,9.821,-0.055,0.031,0.095,sad
1.32,3543,2669,3929,3263,426,0,0,0,586,805,1164,1753,39,17,2589,3519,1.180,3.697,9.220,0.649,0.097,0.157,1.018,-2.610,9.852,-0.022,0.021,0.058,sad
1.33,3546,2667,3903,3249,155,0,0,0,671,1015,1829,1816,93,21,2616,3527,1.243,3.800,9.131,0.678,0.144,0.151,0.946,-2.543,9.795,-0.011,0.029,0.055,sad
1.34,3554,2558,3889,3243,0,0,0,0,759,1245,2044,1937,119,37,2742,3541,1.168,4.001,9.148,0.744,0.156,0.164,0.986,-2.574,9.735,-0.009,0.026,0.051,sad
1.35,3537,2473,3870,3247,0,0,0,0,744,1275,2126,2158,87,85,2874,3557,1.087,3.802,8.997,0.778,0.194,0.136,1.022,-2.619,9.816,-0.014,0.025,0.043,sad
1.36,3518,2331,3839,3257,0,0,0,0,873,1307,2208,2270,120,59,2931,3558,1.063,4.484,9.074,0.850,0.251,0.168,0.948,-2.602,9.752,-0.021,0.005,0.044,sad
1.37,3475,2147,3801,3274,0,0,0,0,891,1403,2190,2440,102,73,3032,3575,1.391,4.630,9.079,0.841,0.296,0.158,1.053,-2.535,9.668,0.003,0.017,0.025,sad
1.38,3450,1973,3770,3280,0,0,0,0,928,1437,2282,2599,79,27,3125,3563,1.015,4.494,8.715,0.900,0.336,0.173,1.044,-2.583,9.665,-0.033,0.001,0.032,sad
1.39,3450,1919,3712,3280,0,0,0,0,1093,1451,2362,2644,83,28,3165,3555,1.010,4.966,8.894,0.887,0.357,0.153,1.010,-2.631,9.802,-0.011,0.006,0.036,sad
1.40,3455,1815,3636,3280,0,0,0,0,1173,1525,2797,2732,87,28,3237,3559,1.135,5.078,8.636,0.868,0.423,0.143,1.049,-2.607,9.718,-0.004,0.011,0.024,sad
1.41,3440,1744,3536,3254,0,0,0,0,1342,1581,2812,2835,88,28,3305,3559,0.915,5.028,8.375,0.942,0.463,0.107,1.013,-2.634,9.780,-0.004,0.008,0.020,sad
1.42,3408,1517,3350,3184,0,0,0,0,1421,1739,2894,2848,115,0,3327,3532,0.723,5.174,8.849,1.076,0.451,0.054,1.037,-2.612,9.711,-0.010,0.011,0.024,sad
1.43,3350,1180,3009,3135,0,0,0,0,1593,1851,2930,2868,137,37,3375,3549,0.453,5.464,8.945,1.147,0.447,-0.199,1.037,-2.674,9.706,-0.012,0.012,0.022,sad
1.44,3278,916,2547,2989,0,0,0,0,1691,1941,3022,3004,217,70,3440,3520,0.589,5.234,8.384,1.435,0.224,-0.376,0.991,-2.667,9.723,0.003,0.028,0.027,sad
1.45,3004,565,2269,2737,0,0,0,0,1727,2013,3037,3064,229,47,3465,3531,0.594,5.514,9.266,1.644,0.178,-0.692,1.092,-2.655,9.692,0.005,0.041,0.030,sad
1.46,2763,275,1904,2320,0,0,0,0,1955,1977,3078,3133,349,52,3407,3517,-0.352,6.285,10.637,1.963,-0.439,-1.127,1.032,-2.610,9.725,-0.007,0.047,0.029,sad
1.47,2401,68,1152,1023,0,0,0,0,2039,1997,2874,3237,429,53,3547,3531,-0.285,7.025,9.481,2.033,-1.174,-1.760,1.049,-2.593,9.713,-0.001,0.047,0.021,sad
1.48,1648,0,107,85,0,0,0,0,2091,2007,3130,3259,507,53,3565,3471,0.524,7.520,10.350,2.164,-1.452,-2.029,0.948,-2.569,9.783,-0.019,0.054,0.027,sad
1.49,534,0,0,0,0,0,0,0,2107,2018,3137,3319,627,52,3576,3525,0.206,6.893,11.717,1.928,-1.314,-1.702,0.986,-2.653,9.756,-0.041,0.070,0.027,sad
1.50,0,0,0,0,0,0,0,0,2238,2069,3173,3369,729,51,3579,3494,2.042,3.433,10.288,0.212,-0.294,-1.946,0.982,-2.641,9.754,-0.038,0.068,0.023,sad
1.51,0,0,0,0,0,0,0,0,2245,2065,3196,3403,672,52,3563,3443,0.311,2.270,11.981,-0.533,-0.220,-1.309,1.018,-2.653,9.744,-0.051,0.066,0.018,sad
1.52,0,0,0,0,0,0,0,0,2284,2117,3227,3463,585,54,3577,3325,1.252,2.037,8.083,-1.040,-0.415,-1.243,0.962,-2.710,9.744,-0.056,0.065,0.016,sad
1.53,0,0,0,0,0,0,0,0,2415,2200,3252,3677,582,51,3175,3226,1.927,2.009,8.092,-1.312,-0.272,-1.016,0.912,-2.737,9.747,-0.030,0.068,0.025,sad
1.54,0,0,0,0,0,0,0,0,2459,2199,3255,3541,596,53,3061,3205,1.731,1.626,7.966,-1.638,-0.327,-0.686,0.915,-2.705,9.668,-0.025,0.069,0.021,sad
1.55,0,0,0,0,0,0,0,0,2533,2257,3268,3579,504,53,2963,3167,1.247,1.616,7.999,-1.792,-0.452,-0.339,0.917,-2.751,9.732,-0.032,0.081,0.025,sad
1.56,0,0,0,0,0,0,0,0,2569,2251,3299,3611,445,51,2949,3161,0.876,2.195,8.859,-1.915,-0.602,-0.092,0.927,-2.782,9.823,-0.023,0.085,0.025,sad
1.57,0,0,0,0,0,0,0,0,2587,2249,3306,3642,404,52,3038,3119,1.118,2.976,9.867,-2.075,-0.705,0.152,0.893,-2.770,9.740,-0.023,0.085,0.020,sad
1.58,0,0,0,0,0,0,0,0,2597,2261,3324,3673,414,50,2897,3140,0.836,3.278,9.759,-2.251,-0.683,0.375,0.924,-2.775,9.787,-0.040,0.077,0.023,sad
1.59,0,0,0,0,0,0,0,0,2709,2259,3155,3709,394,51,2843,3102,0.306,3.790,10.034,-2.262,-0.740,0.443,0.948,-2.741,9.821,-0.041,0.073,0.015,sad
1.60,0,0,0,0,0,0,0,0,2765,2222,3380,3735,374,51,2795,3113,1.039,4.515,10.676,-2.213,-0.762,0.548,0.824,-2.825,9.759,-0.006,0.068,0.020,sad
1.61,0,0,0,0,0,0,0,0,2811,2239,3396,3821,351,50,2762,3162,1.882,4.640,10.657,-2.161,-0.743,0.827,0.831,-2.708,9.778,-0.044,0.046,0.016,sad
1.62,0,0,0,0,0,0,0,0,2791,2214,3383,3911,280,93,2611,2969,2.105,4.424,10.116,-2.012,-0.723,1.194,0.828,-2.784,9.699,-0.041,0.043,0.013,sad
1.63,0,0,0,0,0,0,0,0,2821,2251,3406,3823,237,45,2491,2964,2.030,4.918,11.068,-1.868,-0.662,1.458,0.852,-2.899,9.531,-0.013,0.052,0.014,sad
1.64,0,0,0,0,0,0,0,0,2841,2332,3421,3865,217,44,2365,2888,1.760,4.745,10.048,-1.776,-0.436,1.584,0.848,-2.746,9.649,-0.039,0.047,0.016,sad
1.65,0,0,0,0,0,0,0,0,2899,2299,3427,3887,179,41,2273,2763,1.087,4.681,9.907,-1.505,-0.117,1.548,0.769,-2.761,9.694,-0.063,0.035,0.017,sad
1.66,0,0,0,0,0,0,0,0,2943,2310,3304,3898,179,57,2185,2764,0.266,5.341,12.060,-1.316,-0.011,1.339,0.790,-2.796,9.867,-0.054,0.026,0.013,sad
1.67,0,0,0,0,0,0,0,0,3001,2323,3434,3923,156,40,2135,2654,0.180,6.086,12.761,-1.538,-0.306,1.131,0.668,-2.689,9.802,-0.037,0.029,0.013,sad
1.68,0,0,0,0,0,0,0,0,3029,2347,3462,4095,220,37,2095,2580,0.850,6.187,9.704,-1.492,-0.422,0.970,0.840,-2.899,9.804,-0.039,0.045,-0.004,sad
1.69,0,0,0,0,0,0,0,0,3025,2379,3462,3956,217,120,2131,2518,1.001,6.697,8.813,-1.099,-0.468,0.892,0.876,-2.808,9.606,-0.041,0.028,0.011,sad
1.70,0,0,0,0,0,0,0,0,3112,2312,3467,4095,123,31,1961,2429,0.563,8.696,8.543,-0.540,-0.288,0.972,0.752,-2.887,9.732,-0.013,0.028,0.012,sad
1.71,0,0,0,0,0,0,0,0,3135,2424,3539,4007,187,41,1956,2079,0.453,8.396,5.729,-0.278,-0.288,0.881,0.816,-2.923,9.670,-0.018,0.021,0.010,sad
1.72,0,0,0,0,0,0,0,0,3172,2491,3478,4003,179,40,1829,1874,-0.041,9.754,6.201,0.299,-0.307,0.771,0.828,-2.887,9.665,-0.016,0.022,0.013,sad
1.73,0,0,0,0,0,0,0,0,3257,2529,3493,4031,95,53,1629,1325,-0.675,10.549,4.353,0.687,0.300,0.743,0.828,-2.868,9.697,-0.015,0.021,0.016,sad
1.74,0,0,0,0,0,0,0,0,3307,2578,3503,4019,157,40,1575,1069,0.110,8.516,3.728,0.956,0.737,0.757,0.845,-2.861,9.752,-0.027,0.018,0.014,sad
1.75,0,0,0,0,0,0,0,19,3310,2601,3503,4045,148,40,1443,875,0.876,1.073,13.917,0.180,1.385,0.480,0.828,-2.830,9.716,-0.052,0.009,0.009,sad
1.76,0,0,0,0,0,0,0,1223,3310,2603,3526,4057,87,28,1263,541,-5.416,-4.427,11.744,0.949,0.139,0.606,0.840,-2.950,9.661,-0.084,0.022,-0.005,sad
1.77,0,0,0,0,0,0,0,2441,3320,2633,3544,4059,93,25,547,252,-5.080,-0.280,11.926,1.376,-0.114,-0.471,0.967,-2.679,9.776,-0.237,0.015,-0.055,sad
1.78,0,0,0,0,0,0,463,3011,3339,2629,3549,4069,53,21,263,147,4.295,2.210,8.736,1.403,-0.416,-0.139,0.977,-2.775,9.699,-0.339,0.017,-0.086,sad
1.79,0,0,0,0,0,0,1018,3250,3285,2495,3547,4068,28,0,7,30,1.678,2.363,11.600,1.272,-0.153,-0.303,1.092,-2.875,9.515,-0.168,-0.019,-0.084,sad
1.80,0,0,0,0,0,0,1703,3376,3348,2423,3539,4040,72,1,1,3,2.461,3.328,11.504,0.958,-0.215,-0.259,0.922,-2.758,9.278,-0.766,0.003,-0.216,sad
1.81,0,0,0,0,19,0,2219,3472,3375,2360,3529,4012,19,0,0,0,4.317,4.764,9.656,0.443,0.277,-0.015,1.393,-3.100,9.392,-0.811,-0.036,-0.249,sad
1.82,0,0,0,0,267,0,2349,3547,3445,2277,3723,3947,3,0,1,0,1.609,2.576,10.956,0.292,0.263,-0.131,1.101,-3.661,9.457,-0.977,-0.069,-0.352,sad
1.83,0,0,0,0,473,0,2592,3621,3491,1870,3490,3836,0,1,83,4,0.728,2.557,10.786,-0.026,-0.250,0.015,1.180,-3.663,9.436,-0.994,0.045,-0.365,sad
1.84,0,0,0,0,923,0,2812,3686,3467,1695,3460,3735,0,0,0,0,1.386,2.179,9.780,-0.036,-0.268,0.057,1.259,-4.140,9.524,-0.913,0.118,-0.349,sad
1.85,0,0,0,0,977,0,2989,3734,3449,1381,3490,3631,0,0,0,0,1.587,2.093,10.499,-0.030,-0.338,0.084,1.087,-3.836,9.311,-0.907,0.250,-0.304,sad
1.86,0,0,0,0,1040,0,3134,3776,3465,1291,3457,3565,0,0,1,0,2.229,1.903,9.476,-0.058,-0.321,0.112,0.953,-4.281,8.859,-0.966,0.240,-0.287,sad
1.87,0,0,0,0,1178,0,3224,3807,3465,919,3370,3454,3,0,0,0,2.152,1.901,9.469,-0.065,-0.191,0.091,0.862,-4.434,9.105,-0.941,0.290,-0.229,sad
1.88,0,0,0,0,1298,0,3307,3829,3406,262,3104,3323,4,0,0,0,2.030,1.705,9.474,-0.088,-0.159,0.070,0.910,-4.772,8.799,-0.902,0.366,-0.148,sad
1.89,0,0,0,0,1333,0,3378,3875,3345,18,2613,3263,0,0,59,0,2.239,1.721,9.158,-0.041,-0.013,0.035,0.970,-4.932,9.000,-0.963,0.377,-0.066,sad
1.90,0,0,0,0,1482,0,3427,3882,3320,0,2515,3055,0,0,0,0,1.753,1.846,10.053,-0.038,0.015,0.033,0.833,-5.215,8.847,-0.965,0.376,-0.006,sad
1.91,0,0,0,0,1463,0,3459,3896,3239,0,2265,3026,0,0,0,0,1.918,1.827,9.670,-0.031,0.007,0.037,0.766,-5.282,8.882,-1.066,0.231,0.122,sad
1.92,0,0,0,0,1466,0,3471,3905,3169,0,1916,2967,0,0,0,0,2.023,1.487,9.242,-0.012,0.071,0.017,0.754,-5.511,8.389,-1.076,0.189,0.245,sad
1.93,0,0,0,0,1473,0,3491,3914,3118,0,1287,2935,9,101,0,1,2.174,1.607,9.160,0.020,0.189,-0.011,0.761,-5.552,8.219,-1.134,0.155,0.280,sad
1.94,0,0,0,0,1535,0,3504,3920,3065,0,1054,2887,0,0,0,0,2.504,1.709,9.029,0.022,0.329,-0.032,0.881,-5.669,8.270,-1.178,0.250,0.245,sad
1.95,0,3,0,0,1584,0,3517,3925,3007,0,772,2825,0,0,0,0,1.891,1.635,9.373,0.022,0.410,-0.045,1.348,-5.813,8.839,-1.330,0.417,0.192,sad
1.96,0,57,0,0,1642,0,3521,3934,2957,0,801,2777,0,0,0,0,1.879,1.487,9.313,0.064,0.498,-0.086,1.008,-5.892,8.442,-1.423,0.552,0.221,sad
1.97,0,241,0,0,1493,0,3523,3934,2773,0,752,2789,0,0,1,0,1.563,1.556,9.263,0.112,0.546,-0.106,0.994,-6.012,8.437,-1.527,0.500,0.412,sad
1.98,0,326,0,0,1482,0,3511,3937,2693,0,66,2729,63,0,0,0,1.556,1.630,9.744,0.190,0.614,-0.169,0.441,-6.258,8.262,-1.577,0.394,0.665,sad
1.99,0,366,53,0,1524,0,3520,3940,2663,0,71,2813,0,0,57,0,1.784,1.776,9.831,0.232,0.702,-0.243,0.400,-6.402,8.291,-1.637,0.336,0.878,sad
2.00,0,463,207,0,1530,0,3506,3936,2647,0,56,2764,0,0,0,0,1.013,2.097,10.367,0.220,0.599,-0.236,0.436,-6.534,8.011,-1.722,0.222,1.075,sad
2.01,0,506,464,0,1674,0,3505,3934,2555,0,53,2636,0,0,0,0,0.781,1.343,10.051,0.218,0.587,-0.267,-0.124,-7.104,8.241,-1.767,0.000,1.297,sad
2.02,0,659,816,0,1627,0,3507,3938,2579,0,53,2104,0,0,0,0,1.453,1.990,9.572,0.235,0.495,-0.327,-0.445,-7.147,7.142,-1.826,-0.204,1.619,sad
2.03,192,775,1168,0,1607,131,3504,3937,2572,0,53,1395,0,0,0,0,1.286,1.688,9.589,0.317,0.444,-0.412,-0.285,-7.645,7.460,-1.919,-0.291,1.717,sad
2.04,638,903,1695,734,1666,194,3505,3913,2483,0,53,1213,0,3,0,0,1.065,2.298,9.931,0.370,0.356,-0.390,-0.814,-8.557,7.326,-2.019,-0.367,1.771,sad
2.05,1040,1072,2018,1245,1664,263,3491,3915,1653,0,53,765,0,0,0,0,0.915,2.799,10.446,0.284,0.253,-0.308,-0.515,-8.337,5.758,-1.924,-0.482,2.033,sad
2.06,1409,1142,2192,1710,1703,704,3464,3909,1177,0,48,409,0,0,0,0,0.991,2.239,9.708,0.208,0.147,-0.187,-1.475,-8.456,5.258,-1.952,-0.840,2.078,sad
2.07,1688,1185,2321,2000,1687,981,3466,3903,827,0,238,299,0,0,0,9,0.888,2.502,9.663,0.128,0.122,-0.143,-1.791,-8.954,5.725,-1.927,-1.034,2.090,sad
2.08,1904,1210,2427,2233,1712,1136,3477,3901,227,0,120,0,0,0,0,0,1.006,2.473,9.766,0.104,0.075,-0.078,-2.097,-9.110,5.657,-1.591,-1.403,2.354,sad
2.09,2061,1296,2583,2368,1778,1275,3492,3893,0,1,43,7,0,37,0,55,0.826,2.423,9.740,0.118,0.019,-0.042,-1.128,-8.224,5.904,-1.086,-0.989,2.571,sad
2.10,2171,1424,2687,2464,1899,1275,3501,3888,0,0,48,0,0,0,0,0,0.912,2.394,9.692,0.090,0.056,-0.025,-0.642,-7.709,6.041,-0.706,-0.362,2.661,sad
2.11,2307,1535,2766,2541,2006,1342,3498,3867,0,0,46,0,0,0,0,3,0.831,2.361,9.728,0.081,0.046,-0.023,5.794,-10.436,13.609,0.479,-0.802,-0.358,sad
2.12,2432,1598,2846,2615,2107,1347,3482,3858,0,0,48,0,0,0,0,0,0.773,2.334,9.689,0.100,0.008,-0.018,0.809,-5.626,6.474,2.067,-0.009,-1.515,sad
2.13,2523,1708,2935,2688,2167,1259,3473,3839,0,37,43,0,0,0,25,0,0.919,2.418,9.661,0.093,0.001,0.000,-1.006,-4.281,4.410,1.843,-0.019,-1.697,sad
2.14,2616,1810,3026,2752,2147,1337,3467,3824,0,9,40,0,0,0,0,0,0.888,2.406,9.677,0.071,0.041,-0.007,-3.127,-4.669,6.723,1.757,-0.479,-1.765,sad
2.15,2671,1898,3095,2811,2224,1444,3454,3803,0,0,33,0,0,0,0,0,0.898,2.392,9.649,0.081,0.037,0.007,-4.278,-3.745,7.029,1.899,-0.124,-1.036,sad
2.16,2747,1977,3197,2881,2255,1440,3423,3781,0,0,30,3,0,0,0,0,0.874,2.456,9.644,0.081,0.010,0.015,-4.652,-3.946,7.863,2.005,-0.228,-0.650,sad
2.17,2794,2123,3259,2935,2375,1490,3399,3747,36,0,30,0,0,0,0,0,0.838,2.452,9.687,0.085,0.012,0.018,-2.825,-4.104,7.858,1.999,-0.730,-0.230,sad
2.18,2835,2193,3333,2993,2419,1574,3382,3726,0,0,30,0,0,11,0,0,0.900,2.423,9.708,0.053,0.027,0.017,-1.501,-4.958,9.234,2.203,-0.644,-0.071,sad
2.19,2895,2290,3393,3024,2480,1616,3349,3696,0,0,30,0,0,0,0,0,0.939,2.397,9.615,0.057,0.022,0.024,-0.895,-4.796,8.866,2.332,-0.654,-0.110,sad
2.20,2912,2359,3444,3045,2544,1483,3323,3658,0,0,33,0,0,0,0,0,0.876,2.409,9.682,0.058,0.012,0.034,0.460,-4.180,8.076,2.333,-0.533,-0.343,sad
2.21,2907,2423,3504,3043,2559,1425,3285,3604,0,0,20,0,0,0,0,0,0.783,2.385,9.701,0.064,0.014,0.037,0.943,-5.138,10.051,2.387,-0.572,-0.737,sad
2.22,2929,2469,3558,3070,2625,1293,3247,3553,0,0,33,0,0,0,0,0,0.855,2.351,9.689,0.055,0.005,0.018,1.255,-4.774,9.294,2.373,-0.522,-0.964,sad
2.23,2971,2529,3582,3137,2688,1115,3210,3491,1,0,28,0,0,0,0,0,0.879,2.444,9.689,0.061,0.005,0.009,0.685,-4.779,9.373,2.143,-0.401,-1.292,sad
2.24,2959,2551,3637,3135,2715,911,3161,3440,0,0,46,0,0,0,0,0,0.950,2.516,9.661,0.072,-0.002,0.010,-0.089,-5.025,10.257,1.944,-0.528,-1.420,sad
2.25,2978,2610,3669,3191,2783,811,3120,3376,0,9,30,0,0,0,0,0,0.936,2.433,9.689,0.064,-0.005,0.003,-0.455,-5.320,10.920,1.914,-0.505,-1.365,sad
2.26,3015,2671,3701,3221,2825,635,3056,3310,0,0,30,0,0,0,0,2,0.910,2.435,9.716,0.072,0.009,0.015,-0.915,-5.571,11.248,1.905,-0.398,-1.077,sad
2.27,3018,2737,3721,3251,2864,561,2990,3216,0,0,23,0,0,0,0,0,0.883,2.421,9.792,0.073,0.019,0.004,-1.032,-5.909,11.241,1.790,-0.413,-0.575,sad
2.28,3015,2777,3747,3279,2899,434,2884,3109,0,0,30,11,0,0,0,0,0.895,2.476,9.742,0.064,0.031,0.009,-0.666,-6.136,11.418,1.688,-0.554,-0.391,sad
2.29,3010,2817,3766,3325,2927,450,2763,2977,0,0,40,0,11,0,0,0,0.927,2.509,9.728,0.056,0.033,0.001,0.385,-6.275,10.482,1.592,-0.819,-0.088,sad
2.30,3027,2838,3779,3305,2932,405,2583,2830,0,0,25,0,0,0,0,0,0.943,2.399,9.713,0.069,0.046,-0.006,1.216,-6.227,9.345,1.266,-0.752,-0.176,sad
2.31,3041,2870,3790,3394,2912,272,2406,2589,0,0,30,0,0,0,0,25,0.852,2.480,9.697,0.082,0.054,0.002,1.252,-6.404,9.649,1.154,-0.651,-0.320,sad
2.32,3056,2890,3810,3421,2917,209,2289,2320,0,0,28,0,0,0,0,0,0.867,2.514,9.711,0.055,0.056,-0.007,1.355,-6.567,9.479,1.021,-0.405,-0.645,sad
2.33,3083,2902,3824,3440,2918,186,2229,2180,0,0,30,0,0,0,0,0,0.876,2.454,9.680,0.050,0.050,-0.006,1.506,-6.251,8.260,0.888,-0.055,-0.965,sad
2.34,3105,2879,3840,3471,2914,192,2150,1971,0,0,0,0,0,0,0,0,0.936,2.514,9.732,0.065,0.054,-0.001,1.334,-5.940,7.367,0.725,0.048,-1.112,sad
2.35,3130,2878,3843,3487,2864,137,2043,1803,0,0,33,0,0,0,0,0,0.852,2.540,9.711,0.047,0.060,-0.003,-0.273,-5.832,6.900,0.325,0.072,-1.191,sad
2.36,3134,2834,3853,3507,2877,158,2064,1728,33,0,53,0,0,0,0,0,0.864,2.476,9.606,0.027,0.054,-0.012,-0.608,-5.837,6.864,0.169,0.092,-1.118,sad
2.37,3111,2811,3854,3517,2822,42,1970,1680,0,0,33,0,0,0,0,0,0.915,2.404,9.651,0.039,0.051,-0.014,-3.795,-6.728,4.458,-0.601,0.485,-0.548,sad
2.38,3123,2800,3856,3536,2742,0,1918,1584,0,0,30,0,0,11,0,0,0.862,2.471,9.723,0.048,0.059,-0.011,2.325,-2.617,13.884,-0.272,1.091,0.123,sad
2.39,3127,2717,3856,3537,2614,0,1712,1155,0,0,140,0,0,0,0,0,0.893,2.473,9.697,0.070,0.056,-0.010,-0.055,-0.326,7.259,-0.760,-0.048,-0.073,sad
2.40,3118,2674,3857,3546,2320,0,1458,560,0,43,33,0,0,0,37,3,0.986,2.406,9.732,0.119,0.062,0.008,-2.428,-0.060,10.211,-0.980,0.100,0.287,sad
2.41,3146,2639,3859,3556,1928,0,896,0,0,0,145,0,0,0,0,1931,0.903,2.437,9.656,0.154,0.066,0.016,1.331,-2.737,11.167,-1.020,-0.154,0.322,sad
2.42,3165,2705,3872,3568,1675,0,527,0,0,0,40,0,0,44,181,2841,0.915,1.975,9.740,0.294,0.077,0.067,0.989,-2.064,10.202,-0.847,-0.149,0.244,sad
2.43,3200,2705,3886,3583,1278,0,1,0,0,0,33,0,0,0,813,3031,0.886,2.471,9.639,0.388,0.056,0.087,0.673,-2.025,10.125,-0.876,-0.298,0.219,sad
2.44,3229,2613,3920,3663,1200,0,0,0,0,0,33,0,0,0,1589,3323,0.931,2.610,9.352,0.456,0.025,0.095,0.208,-3.563,10.549,-0.350,-0.503,-0.167,sad
2.45,3307,2551,3879,3602,951,0,0,0,0,49,43,0,0,0,1968,3483,0.950,3.249,9.699,0.127,-0.056,0.055,1.051,-2.361,9.673,-0.075,0.109,0.111,sad
2.46,3362,2479,3887,3569,798,0,0,0,0,0,40,0,0,0,2201,3544,1.037,2.686,9.407,0.713,-0.008,0.209,1.563,-2.717,10.338,-0.225,0.098,0.145,sad
2.47,3422,2522,3893,3525,327,0,0,0,0,0,40,0,0,0,2269,3625,0.848,3.179,9.316,0.756,-0.030,0.246,1.310,-2.282,9.821,-0.081,0.103,0.186,sad
2.48,3463,2531,3887,3486,340,0,0,0,0,0,33,0,0,0,2328,3661,0.974,3.127,9.443,0.803,-0.005,0.260,1.274,-2.595,10.075,-0.100,0.127,0.169,sad
2.49,3522,2522,3883,3420,290,0,0,0,0,0,35,0,41,0,2483,3707,1.034,3.326,9.237,0.813,-0.002,0.247,1.228,-2.521,9.752,-0.048,0.065,0.192,sad
2.50,3567,2538,3888,3389,112,0,0,0,0,0,48,0,42,0,2515,3726,0.886,3.558,9.352,0.768,0.029,0.201,1.161,-2.346,9.646,-0.051,0.111,0.177,sad
2.51,3583,2611,3885,3378,122,0,0,0,0,0,43,0,71,0,2507,3743,0.843,3.725,9.129,0.755,0.021,0.176,1.056,-2.298,9.627,-0.018,0.100,0.183,sad
2.52,3621,2646,3878,3376,45,0,0,0,0,0,0,0,25,0,2630,3751,0.874,3.718,9.100,0.750,0.050,0.162,1.214,-2.085,9.555,-0.039,0.190,0.220,sad
2.53,3657,2635,3882,3370,0,0,0,0,26,0,48,393,97,1,2649,3757,0.982,3.780,9.086,0.730,0.076,0.167,1.195,-2.279,9.625,-0.082,0.237,0.281,sad
2.54,3682,2638,3873,3344,0,0,0,0,294,78,63,1113,19,5,2629,3763,0.991,4.231,9.026,0.706,0.100,0.156,1.032,-2.543,10.046,-0.203,0.195,0.288,sad
2.55,3712,2646,3869,3339,0,0,0,0,580,103,1694,1839,39,5,2661,3734,1.113,4.226,9.098,0.685,0.104,0.125,0.970,-2.729,9.811,-0.138,0.165,0.193,sad
2.56,3728,2639,3865,3310,0,0,0,0,635,453,2096,2075,16,9,2686,3731,1.013,4.281,9.079,0.704,0.115,0.119,0.721,-2.761,9.776,-0.103,0.173,0.127,sad
2.57,3741,2608,3856,3309,0,0,0,0,760,854,2316,2506,92,13,2629,3689,0.912,4.362,9.017,0.695,0.123,0.127,0.965,-2.686,9.728,-0.083,0.118,0.053,sad
2.58,3737,2559,3828,3285,0,0,0,0,1085,958,2357,2871,155,22,2652,3659,1.073,4.594,8.859,0.725,0.160,0.131,0.790,-2.763,9.833,-0.066,0.063,0.031,sad
2.59,3739,2548,3823,3281,0,0,0,0,1289,1059,2405,2795,35,13,2663,3594,1.116,4.741,8.799,0.764,0.207,0.148,0.931,-2.763,9.708,-0.023,0.058,0.021,sad
2.60,3740,2474,3796,3280,0,0,0,0,1335,1176,2559,2870,39,16,2727,3637,1.188,4.951,8.765,0.750,0.260,0.143,0.845,-2.753,9.756,0.006,0.017,0.014,sad
2.61,3727,2402,3762,3299,0,0,0,0,1495,1215,2764,2923,111,31,2815,3640,1.039,5.037,8.660,0.793,0.278,0.144,0.876,-2.691,9.814,-0.005,-0.003,0.018,sad
2.62,3712,2329,3725,3299,0,0,0,0,1433,1107,2807,2913,113,31,2859,3635,0.946,5.334,8.792,0.775,0.311,0.142,0.874,-2.744,9.708,-0.002,-0.014,0.017,sad
2.63,3681,2197,3664,3304,0,0,0,0,1604,1247,2856,3029,43,30,2968,3643,1.015,5.406,8.622,0.753,0.379,0.108,0.862,-2.751,9.711,0.035,-0.020,0.006,sad
2.64,3643,2109,3579,3294,0,0,0,0,1620,1291,2858,3043,93,27,3116,3671,1.077,5.516,8.588,0.773,0.375,0.082,0.876,-2.732,9.701,0.091,-0.071,-0.005,sad
2.65,3580,1827,3417,3236,0,0,0,0,1517,1372,2894,3033,57,23,3191,3699,0.737,5.444,8.662,0.748,0.399,0.007,0.785,-2.799,9.785,0.130,-0.106,0.001,sad
2.66,3473,1438,2960,3127,0,0,0,0,909,1496,2664,2885,143,39,3352,3759,0.606,5.538,8.674,0.730,0.347,-0.164,1.085,-2.607,9.773,0.110,-0.090,-0.018,sad
2.67,3280,642,2415,2917,0,0,0,0,469,1459,2428,2667,291,53,3496,3824,0.441,5.492,8.954,0.911,0.279,-0.371,0.982,-2.555,9.725,0.101,-0.053,-0.026,sad
2.68,3013,458,2130,2736,0,0,0,0,521,1456,2454,2569,309,53,3549,3854,0.158,5.409,8.516,1.128,0.094,-0.382,0.998,-2.500,9.735,0.124,-0.027,-0.029,sad
2.69,2800,380,1914,2533,0,0,0,0,339,1279,2413,2377,396,51,3643,3914,0.330,5.964,9.105,1.361,0.114,-0.574,0.955,-2.507,9.768,0.056,0.028,0.018,sad
2.70,2594,131,1617,2112,0,0,0,0,399,1205,2600,2324,423,105,3731,3967,-0.347,6.941,10.154,1.650,-0.700,-1.156,0.953,-2.435,9.728,0.056,0.055,0.029,sad
2.71,2104,0,837,901,0,0,0,0,410,1200,2725,2344,435,53,3723,3986,-0.141,6.814,9.553,1.900,-1.148,-1.660,0.998,-2.334,9.694,0.036,0.039,0.038,sad
2.72,1134,0,0,119,0,0,0,0,427,1293,2556,2461,445,53,3753,4007,1.018,6.905,9.507,2.049,-0.898,-1.878,0.924,-2.456,9.692,-0.006,0.022,0.033,sad
2.73,0,0,0,0,0,0,0,0,486,1208,2756,2550,405,53,3751,3865,1.257,5.765,15.737,0.882,-0.322,-2.012,1.034,-2.447,9.811,-0.036,0.033,0.038,sad
2.74,0,0,0,0,0,0,0,0,533,1385,2741,2705,391,53,3827,4019,1.113,3.156,9.589,-0.051,-0.060,-2.054,0.967,-2.519,9.764,-0.046,0.042,0.039,sad
2.75,0,0,0,0,0,0,0,0,787,1405,2863,2845,460,55,3787,3991,1.772,2.931,12.124,-0.777,-0.168,-1.354,0.991,-2.533,9.718,-0.052,0.041,0.041,sad
2.76,0,0,0,0,0,0,0,0,994,1497,2904,3117,456,51,3791,3955,2.186,2.006,7.214,-1.067,0.060,-0.972,0.953,-2.581,9.766,-0.050,0.021,0.028,sad
2.77,0,0,0,0,0,0,0,0,1071,1515,2984,3043,537,52,3763,3929,1.820,2.749,7.537,-1.006,-0.017,-0.700,0.972,-2.583,9.668,-0.054,0.003,0.028,sad
2.78,0,0,0,0,0,0,0,0,1229,1578,3068,3027,507,38,3794,3868,2.052,2.789,8.198,-1.213,-0.108,-0.204,0.910,-2.552,9.704,-0.068,0.012,0.018,sad
2.79,0,0,0,0,0,0,0,0,1287,1683,3068,3207,700,52,3769,3786,0.773,2.562,7.661,-1.372,-0.068,0.162,0.946,-2.607,9.790,-0.065,0.019,0.016,sad
2.80,0,0,0,0,0,0,0,0,1640,1757,3206,3271,1109,51,3800,3577,-0.002,3.062,8.262,-1.454,-0.249,0.343,0.919,-2.562,9.747,-0.062,0.020,0.017,sad
2.81,0,0,0,0,0,0,0,0,1547,1773,3222,3262,1325,53,3740,3385,-0.287,3.450,8.693,-1.607,-0.320,0.414,0.919,-2.617,9.708,-0.070,0.026,0.019,sad
2.82,0,0,0,0,0,0,0,0,1784,2059,3273,3319,1619,52,3687,3273,-0.572,3.584,9.024,-1.692,-0.280,0.372,0.931,-2.662,9.785,-0.064,0.035,0.017,sad
2.83,0,0,0,0,0,0,0,0,1903,2091,3327,3351,1781,52,3611,3283,-0.007,4.116,9.687,-1.820,-0.404,0.337,1.020,-2.674,9.723,-0.114,0.056,0.011,sad
2.84,0,0,0,0,0,0,0,0,1992,2125,3339,3402,1805,25,3562,3253,0.699,4.381,9.297,-1.889,-0.364,0.401,0.950,-2.753,9.826,-0.098,0.065,0.016,sad
2.85,0,0,0,0,0,0,0,0,2056,2295,3370,3492,1873,52,3263,3199,1.360,4.568,9.385,-1.795,-0.390,0.538,0.905,-2.713,9.773,-0.062,0.063,0.015,sad
2.86,0,0,0,0,0,0,0,0,2123,2317,3386,3529,1769,55,3087,3101,1.812,4.915,9.752,-1.750,-0.460,0.774,0.953,-2.693,9.656,-0.080,0.075,0.013,sad
2.87,0,0,0,0,0,0,0,0,2166,2392,3222,3559,1943,57,3079,3020,2.090,4.748,9.251,-1.678,-0.503,1.015,0.922,-2.804,9.491,-0.058,0.070,0.017,sad
2.88,0,0,0,0,0,0,0,0,2217,2524,3424,3638,1880,52,3003,3053,2.018,4.209,8.995,-1.514,-0.533,1.235,0.895,-2.828,9.740,-0.025,0.060,0.020,sad
2.89,0,0,0,0,0,0,0,0,2277,2485,3424,3661,1749,53,2997,3069,2.085,4.111,9.780,-1.460,-0.663,1.443,0.948,-2.729,9.606,-0.015,0.043,0.019,sad
2.90,0,0,0,0,0,0,0,0,2267,2511,3421,3679,1885,51,2975,3035,1.970,4.051,9.680,-1.451,-0.491,1.554,0.886,-2.727,9.704,-0.017,0.037,0.022,sad
2.91,0,0,0,0,0,0,0,0,2355,2523,3432,3703,1961,52,2891,3015,1.113,3.677,9.785,-1.336,-0.178,1.539,0.840,-2.753,9.618,-0.015,0.035,0.015,sad
2.92,0,0,0,0,0,0,0,0,2431,2584,3434,3709,2063,53,2915,2975,0.378,3.833,10.554,-1.228,-0.013,1.354,0.819,-2.693,9.656,-0.026,-0.009,0.028,sad
2.93,0,0,0,0,0,0,0,0,2441,2575,3432,3996,2141,45,2899,2956,-0.632,3.998,11.535,-1.302,-0.114,1.041,0.927,-2.775,9.713,-0.025,0.016,0.019,sad
2.94,0,0,0,0,0,0,0,0,2408,2637,3457,3785,2199,53,2799,2793,-0.962,3.910,10.740,-1.273,-0.345,0.585,0.828,-2.648,9.919,-0.061,0.018,0.010,sad
2.95,0,0,0,0,0,0,0,0,2475,2664,3291,3918,2277,51,2824,2632,0.019,4.295,10.082,-0.993,-0.374,0.115,0.881,-2.887,9.720,-0.065,0.029,0.008,sad
2.96,0,0,0,0,0,0,0,0,2515,2717,3483,3800,2268,53,2659,2540,0.400,6.115,12.740,-1.052,-0.593,-0.231,0.891,-2.789,9.804,-0.053,0.037,0.007,sad
2.97,0,0,0,0,0,0,0,0,2590,2742,3252,3831,2284,52,2515,2170,0.754,6.108,10.932,-1.227,-1.032,-0.318,0.843,-2.892,9.692,-0.058,0.041,0.009,sad
2.98,0,0,0,0,0,0,0,0,2605,2764,3544,3863,2259,51,2279,1449,0.862,5.552,7.525,-0.912,-1.231,-0.350,0.845,-2.775,9.675,-0.067,0.046,0.008,sad
2.99,0,0,0,0,0,0,0,0,2629,2808,3560,3852,2220,63,2172,1085,1.192,6.381,7.982,-0.646,-1.094,-0.327,0.860,-2.964,9.804,-0.066,0.057,0.017,sad
3.00,0,0,0,0,0,0,0,0,2727,2845,3585,3915,2111,51,1976,472,0.201,6.622,7.087,-0.467,-0.865,-0.232,0.958,-2.868,9.646,-0.037,0.046,0.020,sad
3.01,0,0,0,0,0,0,0,0,2718,2903,3585,3960,1895,40,1709,183,-0.575,6.689,6.407,-0.088,-0.869,-0.251,0.881,-2.911,9.718,-0.034,0.049,0.019,sad
3.02,0,0,0,0,0,0,0,0,2783,2921,3601,3979,1688,11,1467,10,6.072,8.033,3.606,0.765,0.995,0.348,0.879,-2.998,9.586,0.007,0.036,0.027,sad
3.03,0,0,0,0,0,0,0,0,2781,2952,3601,3996,1459,7,1293,101,-0.067,2.066,11.906,0.125,2.050,0.594,0.833,-2.859,9.670,-0.072,0.041,0.015,sad
3.04,0,0,0,0,0,0,0,0,2776,3003,3616,3999,1236,0,1299,0,2.993,-1.422,12.649,0.137,1.149,1.063,0.843,-2.799,9.711,-0.101,0.040,0.003,sad
3.05,0,0,0,0,0,0,0,0,2812,2988,3621,4073,1083,6,917,0,-0.697,-3.290,7.130,0.206,1.286,0.833,0.912,-2.897,9.653,-0.176,0.029,-0.018,sad
3.06,0,0,0,0,0,0,0,685,2811,3016,3590,4015,827,7,717,3,-3.213,-3.103,8.832,0.522,1.027,0.395,0.888,-2.942,9.692,-0.193,0.023,-0.018,sad
3.07,0,0,0,0,0,0,0,1575,2823,3021,3626,4095,725,7,351,0,-6.306,-2.040,11.413,0.829,0.576,-0.100,0.567,-2.248,9.730,-0.228,0.021,-0.045,sad
3.08,0,0,0,0,0,0,108,2548,2907,3022,3631,4021,243,7,279,35,-1.008,0.113,10.120,1.135,0.066,-0.447,0.891,-3.084,9.567,-0.288,0.052,-0.084,sad
3.09,0,0,0,0,0,0,388,2978,2927,3037,3396,4025,45,3,47,1,4.240,1.255,9.261,1.247,-0.140,-0.270,0.816,-3.124,9.589,-0.373,0.042,-0.117,sad
3.10,0,0,0,0,0,0,608,3111,2962,3050,3631,3995,22,1,26,0,3.934,2.061,10.288,1.136,0.008,-0.237,0.812,-3.168,9.598,-0.393,0.037,-0.126,sad
3.11,0,0,0,0,0,0,775,3179,2997,3045,3636,4019,21,0,1,0,3.021,2.665,11.583,0.931,0.164,-0.234,0.922,-3.215,9.601,-0.389,0.002,-0.117,sad
3.12,0,0,0,0,0,0,903,3237,3028,3039,3634,3976,23,1,1,51,2.308,2.552,11.997,0.689,0.272,-0.195,0.919,-3.345,9.618,-0.385,-0.006,-0.125,sad
3.13,0,0,0,0,0,0,1012,3319,3067,3021,3631,4095,121,1,0,95,1.659,1.173,10.118,0.535,0.343,-0.158,1.037,-3.189,9.562,-0.434,-0.023,-0.153,sad
3.14,0,0,0,0,0,0,1201,3344,3079,2983,3626,3979,2,3,0,0,0.826,1.410,10.166,0.537,0.142,-0.180,1.001,-3.352,9.414,-0.536,-0.076,-0.181,sad
3.15,0,0,0,0,0,0,1327,3416,3101,2939,3621,3959,1,0,40,0,1.678,1.192,9.072,0.538,0.152,-0.232,0.850,-3.347,9.347,-0.596,-0.094,-0.177,sad
3.16,0,0,0,0,0,0,1509,3453,3129,2892,3618,3941,5,1,4,0,1.978,1.417,9.127,0.568,0.191,-0.214,0.783,-3.687,9.342,-0.631,-0.099,-0.182,sad
3.17,0,0,0,0,0,0,1623,3489,3127,2837,3601,3919,0,0,0,0,1.568,1.235,9.108,0.604,0.274,-0.236,0.943,-3.735,9.414,-0.616,-0.054,-0.212,sad
3.18,0,0,0,0,0,0,1734,3516,3128,2835,3585,3914,0,0,0,0,1.805,1.389,8.959,0.639,0.378,-0.258,1.041,-3.929,9.426,-0.597,-0.026,-0.167,sad
3.19,0,0,0,0,0,0,1956,3549,3143,2779,3616,3877,5,0,1,0,2.351,2.569,11.854,0.716,0.626,-0.371,1.061,-3.766,9.438,-0.602,-0.047,-0.141,sad
3.20,0,0,0,0,0,0,2158,3600,3157,2763,3593,3858,0,0,1,0,2.195,2.899,9.431,0.181,0.606,-0.153,0.927,-3.986,9.316,-0.598,-0.035,-0.136,sad
3.21,0,0,0,0,156,0,2241,3631,3172,2702,3657,3855,8,0,1,1,-1.559,0.654,12.337,0.263,0.700,-0.334,1.092,-4.017,9.330,-0.589,-0.038,-0.119,sad
3.22,0,0,0,0,307,0,2355,3674,3155,2636,3657,3815,11,0,0,0,1.410,2.203,10.278,0.364,0.297,-0.179,1.168,-4.166,9.203,-0.654,-0.039,-0.140,sad
3.23,0,0,0,0,511,0,2511,3703,3131,2585,3844,3797,0,0,0,12,0.962,2.105,10.080,0.271,0.175,-0.115,1.365,-4.130,9.105,-0.695,-0.024,-0.164,sad
3.24,0,0,70,0,878,0,2619,3727,2936,2419,3593,3772,0,0,0,0,0.819,2.124,9.993,0.176,0.104,-0.115,1.539,-4.372,8.985,-0.837,0.034,-0.210,sad
3.25,55,17,379,0,896,0,2704,3737,2897,2124,3539,3753,1,0,0,0,1.018,2.078,9.740,0.205,0.089,-0.114,1.468,-4.530,8.928,-0.950,0.131,-0.241,sad
3.26,256,158,672,112,798,0,2780,3757,2811,1962,3186,3738,5,0,0,0,0.991,2.203,9.787,0.175,0.080,-0.109,1.238,-4.841,8.799,-0.947,0.194,-0.237,sad
3.27,539,257,951,423,941,0,2895,3769,2661,1647,3350,3653,0,0,1,0,1.073,2.397,9.704,0.134,0.024,-0.091,1.231,-5.059,8.899,-0.996,0.211,-0.185,sad
3.28,617,366,1409,752,1234,0,3029,3797,2555,1267,3201,3420,0,0,0,0,0.773,2.464,10.137,0.033,-0.121,0.042,1.077,-4.944,8.911,-1.061,0.190,0.002,sad
3.29,416,660,1772,650,1365,0,3181,3824,2429,866,2999,3209,0,0,0,0,1.070,1.863,9.620,-0.019,-0.140,0.046,1.087,-5.171,8.938,-1.132,0.141,0.109,sad
3.30,367,913,2025,723,1305,0,3306,3842,2151,199,1957,2731,0,0,0,0,1.156,2.155,9.778,0.011,-0.076,0.014,0.797,-5.456,9.357,-1.225,0.059,0.325,sad
3.31,346,1161,2194,833,1584,0,3402,3869,1798,61,611,1577,0,0,0,0,1.149,2.126,9.845,0.021,-0.023,0.015,0.776,-5.720,9.665,-1.426,-0.346,0.699,sad
3.32,384,1298,2377,858,1712,0,3456,3879,1743,0,58,813,0,0,0,0,1.173,2.105,9.823,0.031,-0.000,-0.006,0.917,-6.357,9.002,-1.490,-0.528,0.907,sad
3.33,353,1421,2473,951,1939,0,3498,3893,1262,0,271,163,0,0,5,0,1.142,2.088,9.766,0.029,0.023,-0.010,1.513,-6.634,8.997,-1.768,-0.996,1.121,sad
3.34,382,1462,2535,1037,1917,91,3532,3919,246,0,48,0,0,0,0,0,1.185,2.014,9.756,0.041,0.068,-0.030,1.551,-8.011,8.047,-1.805,-0.728,1.068,sad
3.35,559,1488,2559,1148,2018,57,3536,3913,110,0,46,0,0,0,0,1,1.130,2.131,9.752,0.067,0.092,-0.057,0.781,-7.582,8.188,-1.628,-0.723,1.010,sad
3.36,785,1483,2594,1173,2064,151,3552,3926,0,23,43,0,0,0,0,0,1.116,2.102,9.656,0.089,0.096,-0.070,0.318,-6.079,8.569,-0.881,-0.478,1.293,sad
3.37,935,1489,2622,1210,1977,144,3563,3927,0,0,46,0,0,0,0,0,1.128,2.133,9.747,0.080,0.097,-0.058,-1.030,-3.649,9.151,-0.179,-0.201,1.760,sad
3.38,1012,1484,2640,1376,1983,272,3559,3919,0,0,43,0,0,0,0,0,1.111,2.148,9.716,0.083,0.116,-0.063,-2.859,-3.692,9.610,0.211,-0.053,2.181,sad
3.39,1145,1465,2672,1535,1995,298,3550,3938,0,0,43,8,0,0,0,0,1.087,2.169,9.687,0.072,0.168,-0.083,0.771,-3.919,8.583,0.711,-0.170,1.827,sad
3.40,1247,1443,2704,1697,1954,403,3549,3933,0,0,40,0,0,0,0,0,0.867,2.284,9.785,0.078,0.177,-0.076,1.393,-3.749,7.652,0.990,-0.113,1.406,sad
3.41,1307,1386,2699,1794,1865,272,3538,3936,0,0,33,0,0,0,9,0,0.915,2.162,9.795,0.056,0.135,-0.054,1.999,-4.283,7.628,1.136,-0.070,1.167,sad
3.42,1393,1325,2691,1834,1754,464,3536,3930,0,0,33,0,0,0,0,0,0.852,2.222,9.804,0.043,0.088,-0.026,2.418,-5.246,7.918,1.385,0.102,0.654,sad
3.43,1392,1216,2650,1873,1776,511,3536,3937,0,0,33,0,0,0,0,0,0.883,2.138,9.783,0.040,0.094,-0.024,1.671,-5.004,7.298,1.391,0.027,0.027,sad
3.44,1392,1117,2618,1884,1653,509,3538,3940,0,0,33,7,69,0,0,0,0.840,2.222,9.787,0.037,0.082,-0.024,1.326,-5.104,7.238,1.359,0.005,-0.201,sad
3.45,1450,1002,2557,1903,1600,499,3539,3939,0,0,30,0,0,9,0,0,0.893,2.155,9.744,0.025,0.074,-0.017,0.232,-4.889,8.464,1.401,-0.030,-0.455,sad
3.46,1439,752,2497,1920,1519,489,3536,3950,0,0,238,0,0,0,0,0,0.876,2.095,9.598,0.044,0.114,-0.033,-0.802,-4.219,8.526,1.541,-0.092,-0.309,sad
3.47,1457,592,2412,1946,1520,475,3532,3945,63,0,53,0,0,0,0,0,0.797,2.186,9.780,0.048,0.131,-0.035,-0.271,-4.046,8.631,1.557,-0.075,-0.179,sad
3.48,1418,560,2336,1968,1435,363,3525,3952,0,0,33,0,0,0,0,0,0.759,2.207,9.797,0.038,0.126,-0.022,1.322,-4.290,9.950,1.613,-0.029,-0.173,sad
3.49,1320,470,2118,1969,1344,94,3513,3955,0,0,33,0,0,0,0,0,0.804,2.167,9.790,0.037,0.132,-0.014,1.760,-4.223,9.960,1.729,-0.163,-0.460,sad
3.50,1234,331,1919,1983,1259,139,3505,3955,0,0,10,0,0,0,0,0,0.725,2.131,9.797,0.045,0.145,-0.030,1.669,-4.015,9.493,1.707,-0.226,-0.600,sad
3.51,1140,55,1776,1992,1371,19,3490,3989,43,0,33,0,0,0,0,0,0.721,2.284,9.876,0.017,0.130,-0.014,1.228,-4.008,10.228,1.587,-0.348,-0.808,sad
3.52,1104,15,1610,2000,1254,0,3482,3965,0,0,0,0,0,0,0,0,0.737,2.081,9.649,-0.003,0.122,-0.017,0.342,-3.840,10.807,1.537,-0.462,-0.835,sad
3.53,1008,0,1535,1946,1198,0,3472,3971,0,0,53,0,1,0,0,0,0.697,2.071,9.749,0.004,0.122,-0.029,0.017,-3.785,11.334,1.575,-0.491,-0.764,sad
3.54,1021,20,1515,1936,1290,0,3472,3973,0,0,33,0,0,0,0,0,0.668,2.093,9.680,0.025,0.124,-0.032,-0.208,-3.658,11.411,1.644,-0.489,-0.653,sad
3.55,1022,0,1431,1994,1289,0,3465,3977,0,0,33,0,0,0,0,0,0.611,2.078,9.778,0.012,0.120,-0.021,-0.010,-3.424,10.889,1.670,-0.432,-0.448,sad
3.56,1031,28,1373,2000,1200,0,3453,3978,0,0,43,0,0,0,0,0,0.704,2.088,9.687,0.010,0.096,-0.028,0.077,-3.352,10.920,1.589,-0.309,-0.330,sad
3.57,1052,21,1409,2066,1314,0,3440,3977,0,0,33,0,0,0,0,0,0.611,1.956,9.584,0.059,0.066,-0.048,0.306,-3.385,10.786,1.540,-0.288,-0.321,sad
3.58,1148,71,1623,2185,1232,0,3435,3972,0,0,33,0,0,0,0,0,0.589,2.234,9.792,0.075,0.051,-0.039,0.460,-3.642,11.404,1.437,-0.326,-0.396,sad
3.59,1308,144,1743,2249,1228,0,3423,3978,0,0,30,0,0,0,0,0,0.560,2.071,9.665,0.081,0.021,-0.031,0.555,-4.106,11.138,1.391,-0.521,-0.521,sad
3.60,1398,147,1878,2363,1271,138,3430,3964,0,0,28,0,0,0,0,0,0.599,2.176,9.744,0.097,-0.022,-0.031,1.159,-4.065,10.276,1.313,-0.513,-0.598,sad
3.61,1535,291,2003,2421,1328,229,3425,3963,0,0,25,0,0,0,0,0,0.694,2.071,9.723,0.073,-0.007,-0.035,1.492,-4.202,9.515,1.111,-0.165,-0.840,sad
3.62,1679,338,2207,2502,1395,304,3425,3953,0,0,28,0,37,0,0,0,0.587,2.277,9.716,0.073,-0.026,-0.043,0.690,-4.503,10.192,0.906,0.072,-1.079,sad
3.63,1783,412,2427,2559,1405,812,3440,3952,0,0,28,0,0,0,0,0,0.733,2.162,9.809,0.062,-0.110,-0.047,0.625,-4.927,9.984,0.867,0.105,-1.254,sad
3.64,1882,527,2624,2629,1493,1159,3463,3930,0,0,30,0,2,19,35,55,0.663,2.133,9.895,0.070,-0.126,-0.027,-0.819,-4.274,8.370,0.688,0.187,-1.157,sad
3.65,1995,781,2800,2691,1680,1310,3471,3919,0,0,28,0,0,0,0,0,0.764,2.172,9.742,0.105,-0.071,-0.039,-1.041,-3.366,8.459,0.447,-0.114,-0.841,sad
3.66,2075,1104,2928,2755,1815,1468,3479,3904,0,0,28,0,0,0,0,0,0.723,2.073,9.699,0.080,-0.055,-0.029,-0.632,-2.789,8.523,0.338,-0.049,-0.661,sad
3.67,2160,1219,3013,2789,1968,1561,3475,3891,0,2,30,56,0,0,0,0,0.745,2.057,9.761,0.117,-0.012,-0.018,-0.831,-2.253,10.075,0.318,-0.092,-0.297,sad
3.68,2250,1478,3101,2831,2047,1534,3453,3871,0,57,0,0,0,0,11,0,0.769,2.212,9.881,0.092,-0.006,-0.017,-1.003,-1.322,8.844,0.277,-0.348,0.184,sad
3.69,2321,1607,3182,2885,2157,1599,3429,3852,0,0,33,0,0,0,0,0,0.766,2.224,9.730,0.104,-0.019,-0.014,-0.165,-1.322,8.669,0.220,-0.374,0.370,sad
3.70,2394,1743,3246,2934,2309,1568,3394,3836,0,0,25,0,0,0,0,0,0.800,2.274,9.804,0.098,-0.046,-0.005,1.343,-1.834,9.086,0.217,-0.350,0.506,sad
3.71,2450,1847,3301,2960,2384,1407,3341,3805,0,26,0,0,1,0,0,0,0.797,2.291,9.701,0.090,-0.020,-0.010,2.052,-1.992,7.913,0.067,-0.359,0.359,sad
3.72,2507,1969,3344,2992,2448,1338,3297,3790,0,0,61,0,0,0,0,0,0.824,2.284,9.754,0.071,0.003,-0.009,2.236,-2.222,7.614,-0.061,-0.290,0.232,sad
3.73,2517,2036,3379,3023,2485,1311,3255,3761,0,0,28,0,0,0,0,0,0.819,2.239,9.752,0.076,0.018,-0.011,0.199,-4.389,8.135,-0.778,0.321,0.048,sad
3.74,2583,2037,3421,3062,2486,1297,3179,3728,0,0,28,0,0,0,0,0,0.857,2.337,9.716,0.086,0.014,-0.012,1.839,1.547,10.238,-0.689,0.105,-0.243,sad
3.75,2626,2064,3450,3096,2417,1058,3084,3687,0,0,30,0,51,52,0,0,0.898,2.195,9.728,0.108,0.039,-0.010,0.802,1.372,8.873,-0.869,-0.095,-0.154,sad
3.76,2674,2101,3486,3126,2405,686,2857,3616,0,25,28,0,0,0,0,1317,0.895,2.219,9.689,0.130,0.027,-0.006,-1.185,-0.895,11.856,-1.184,-0.171,0.247,sad
3.77,2684,2161,3503,3152,2196,332,2512,3490,0,0,28,0,0,0,0,2719,0.804,2.267,9.732,0.164,0.037,0.003,2.753,-1.073,10.063,-1.082,-0.411,0.124,sad
3.78,2731,2204,3533,3168,1759,0,2170,3331,0,0,28,0,0,0,0,3035,0.855,2.361,9.768,0.191,0.039,0.014,1.990,-2.021,11.107,-0.954,-0.364,0.142,sad
3.79,2767,2271,3555,3194,1482,0,1794,3043,0,0,20,0,0,0,629,3511,0.836,2.349,9.608,0.199,0.039,0.012,1.920,-1.693,10.499,-0.795,-0.404,0.119,sad
3.80,2800,2287,3579,3214,1188,0,1253,2403,0,0,23,0,25,0,1069,3499,0.766,2.330,9.677,0.236,0.048,0.026,2.294,-1.776,10.336,-0.734,-0.397,0.118,sad
3.81,2864,2288,3639,3249,881,0,749,1408,0,0,0,0,0,0,1783,3655,0.781,2.488,9.847,0.291,0.071,0.045,2.160,-1.721,10.554,-0.607,-0.412,0.124,sad
3.82,2896,2244,3636,3282,866,0,220,0,0,0,12,0,0,0,2023,3691,0.855,2.521,9.677,0.437,0.102,0.099,2.294,-1.518,9.560,-0.512,-0.314,0.134,sad
3.83,2953,2183,3655,3319,799,0,0,0,0,0,12,0,0,0,2281,3821,0.895,2.370,9.826,0.559,0.080,0.151,2.184,-1.949,9.651,-0.483,-0.106,0.184,sad
3.84,2998,2192,3664,3342,479,0,0,0,0,0,0,27,21,0,2385,4009,0.924,2.547,9.641,0.621,0.076,0.159,4.465,-5.466,10.185,-0.359,0.439,0.323,sad
3.85,3071,2114,3684,3363,132,0,0,0,0,0,0,0,0,0,2440,3903,0.766,2.753,9.957,0.754,0.052,0.177,2.770,-1.738,9.352,-0.250,0.232,0.099,sad
3.86,3115,2086,3681,3362,138,0,0,0,0,0,12,0,0,0,2549,3931,0.558,3.340,10.257,0.782,0.074,0.185,0.785,-2.059,10.372,-0.283,0.305,0.225,sad
3.87,3143,1951,3682,3361,0,0,0,0,0,0,12,0,0,0,2746,3967,1.132,3.397,9.610,0.803,0.011,0.164,2.296,-2.318,10.096,-0.128,0.055,0.078,sad
3.88,3168,1922,3685,3374,0,0,0,0,17,0,161,51,21,0,2845,3987,0.864,3.352,9.280,0.892,0.113,0.220,1.269,-2.318,10.731,-0.077,-0.081,-0.017,sad
3.89,3206,1847,3670,3379,0,0,0,0,0,0,15,0,0,0,3005,4011,0.668,3.285,9.050,0.819,0.080,0.252,2.119,-2.167,9.704,-0.024,-0.105,-0.022,sad
3.90,3266,1806,3650,3403,0,0,0,0,35,41,15,0,0,0,3065,4024,0.828,3.831,9.893,0.845,0.202,0.256,1.980,-2.014,9.708,-0.018,-0.064,-0.008,sad
3.91,3337,1782,3629,3403,0,0,0,0,0,45,17,4,0,0,3115,4021,0.845,3.931,9.266,0.901,0.196,0.246,2.037,-2.069,9.787,-0.016,-0.044,0.002,sad
3.92,3373,1744,3606,3397,0,0,0,0,0,0,23,0,0,0,3157,4037,0.886,3.807,8.990,0.909,0.282,0.226,2.085,-2.076,9.749,-0.010,-0.052,0.006,sad
3.93,3392,1666,3583,3391,0,0,0,0,0,0,15,0,0,0,3195,4039,0.668,4.025,9.103,0.902,0.261,0.211,2.011,-1.994,9.531,0.004,-0.007,0.004,sad
3.94,3417,1607,3559,3380,0,0,0,0,0,0,17,0,0,19,3207,4051,0.776,4.204,9.050,0.892,0.294,0.203,2.150,-1.903,9.232,0.013,0.090,0.048,sad
3.95,3439,1714,3525,3375,0,0,0,0,0,0,17,0,2,0,3220,4051,0.776,4.290,9.043,0.875,0.302,0.197,2.126,-1.566,8.947,0.005,0.243,0.092,sad
3.96,3448,1681,3482,3370,0,0,0,0,0,11,217,0,17,0,3238,4052,0.694,4.338,8.971,0.917,0.278,0.163,2.002,-2.002,9.665,0.008,0.270,0.135,sad
3.97,3472,1703,3424,3377,0,0,0,0,2,0,20,0,13,0,3235,4059,0.804,4.496,8.887,0.868,0.374,0.133,1.650,-2.344,10.254,0.022,0.195,0.098,sad
3.98,3488,1659,3333,3376,0,0,0,0,0,0,23,0,14,0,3261,4072,0.754,4.664,8.947,0.853,0.346,0.109,1.901,-1.954,9.586,0.023,0.195,0.098,sad
3.99,3494,1535,3222,3361,0,0,0,0,0,0,20,0,0,0,3291,4068,0.816,4.702,9.009,0.870,0.398,0.104,1.820,-2.042,9.766,0.000,0.204,0.100,sad
4.00,3495,1535,3129,3349,0,0,0,0,30,0,76,0,0,0,3447,4088,0.419,4.286,8.677,0.960,0.351,0.074,1.762,-2.306,10.022,-0.015,0.128,0.099,sad
4.01,3487,1362,3038,3317,0,0,0,0,0,1,99,0,3,0,3358,4095,0.601,4.803,8.782,0.954,0.325,0.035,1.856,-2.231,9.776,0.039,0.142,0.050,sad
4.02,3481,1203,2959,3264,0,0,0,0,0,0,25,0,10,0,3369,4091,0.563,4.784,8.875,1.013,0.315,-0.030,1.757,-1.963,9.749,0.006,0.126,0.069,sad
4.03,3479,989,2862,3213,0,0,0,0,0,0,28,0,9,0,3399,4089,0.460,4.853,8.605,1.106,0.305,-0.053,1.946,-2.093,9.701,0.021,0.168,0.065,sad
4.04,3458,853,2754,3131,0,0,0,0,0,0,25,0,9,0,3448,4095,0.426,5.025,8.724,1.177,0.336,-0.052,1.748,-2.279,9.926,0.008,0.167,0.059,sad
4.05,3439,913,2690,3061,0,0,0,0,0,0,28,0,13,0,3456,4095,0.194,4.738,8.842,1.391,0.318,0.007,1.832,-2.057,9.792,0.017,0.191,0.059,sad
4.06,3398,887,2638,3023,0,0,0,0,0,0,28,0,2,0,3487,4095,0.378,5.066,8.650,1.561,0.408,0.001,1.743,-2.152,9.771,0.021,0.193,0.063,sad
4.07,3349,848,2544,2959,0,0,0,0,0,0,28,0,2,0,3513,4095,0.000,5.183,8.693,1.654,0.320,-0.132,1.477,-2.207,10.048,-0.007,0.112,0.052,sad
4.08,3221,642,2334,2789,0,0,0,0,0,0,30,0,28,0,3535,4095,0.220,5.435,9.735,1.883,0.060,-0.430,1.882,-1.978,9.498,-0.012,0.144,0.045,sad
4.09,3029,484,2106,2547,0,0,0,0,0,0,25,0,37,0,3561,4095,0.345,6.227,9.735,1.965,-0.109,-0.718,1.808,-2.145,9.591,-0.006,0.164,0.049,sad
4.10,2811,226,1715,2205,0,0,0,0,0,0,28,0,75,0,3549,4095,-0.886,8.772,10.693,2.157,-0.447,-0.827,1.496,-2.253,10.104,-0.001,0.143,0.038,sad
4.11,2318,0,759,1075,0,0,0,0,46,1,28,0,119,68,3576,4095,0.366,7.262,9.160,2.058,-0.570,-1.337,1.561,-2.025,9.728,-0.008,0.139,0.035,sad
4.12,1851,0,90,576,0,0,0,0,59,71,28,0,90,0,3567,4095,0.522,8.126,8.557,1.918,-0.626,-1.416,1.578,-1.920,9.689,-0.021,0.194,0.068,sad
4.13,993,0,0,106,0,0,0,0,0,0,30,0,75,0,3611,4095,0.673,7.580,8.657,1.963,-0.283,-1.489,1.499,-2.298,10.029,-0.043,0.176,0.077,sad
4.14,495,0,0,0,0,0,0,0,0,0,43,0,115,0,3615,4095,-0.132,6.642,10.618,1.536,-0.145,-1.370,1.508,-2.085,9.785,-0.040,0.187,0.075,sad
4.15,0,0,0,0,0,0,0,0,0,0,30,121,155,0,3631,4095,-0.402,4.697,11.583,0.793,-0.087,-1.525,1.460,-2.169,9.859,-0.045,0.192,0.076,sad
4.16,0,0,0,0,0,0,0,0,0,0,0,0,139,0,3647,4095,0.204,3.050,9.802,0.269,-0.137,-1.620,1.590,-2.119,9.536,-0.037,0.191,0.075,sad
4.17,0,0,0,0,0,0,0,0,0,0,28,0,149,0,3658,4095,1.338,3.529,9.474,-0.076,-0.001,-1.685,1.460,-2.251,9.934,-0.024,0.185,0.075,sad
4.18,0,0,0,0,0,0,0,0,0,0,33,0,125,37,3643,4095,2.083,4.173,12.424,-0.625,-0.111,-1.104,1.408,-2.176,9.847,-0.030,0.152,0.067,sad
4.19,0,0,0,0,0,0,0,0,0,0,191,0,151,0,3679,4095,2.492,3.065,8.655,-1.128,-0.074,-0.985,1.463,-2.169,9.766,-0.024,0.140,0.065,sad
4.20,0,0,0,0,0,0,0,0,0,0,33,0,47,0,3688,4095,2.267,2.677,6.608,-1.276,0.043,-0.738,1.381,-2.162,9.867,-0.042,0.123,0.074,sad
4.21,0,0,0,0,0,0,0,0,0,0,33,0,55,0,3700,4095,1.511,2.938,7.027,-1.265,-0.055,-0.540,1.444,-2.116,9.867,-0.028,0.137,0.074,sad
4.22,0,0,0,0,0,0,0,0,0,0,33,0,59,0,3701,4095,1.484,3.014,7.051,-1.353,-0.200,-0.310,1.365,-2.198,9.831,-0.033,0.134,0.079,sad
4.23,0,0,0,0,0,0,0,0,0,0,40,0,99,0,3705,4095,1.348,2.887,6.936,-1.350,-0.298,-0.119,1.417,-2.172,9.768,-0.031,0.138,0.077,sad
4.24,0,0,0,0,0,0,0,0,0,0,28,0,79,0,3709,4095,1.290,3.335,7.944,-1.426,-0.264,0.040,1.295,-2.076,9.632,-0.042,0.143,0.081,sad
4.25,0,0,0,0,0,0,0,0,0,0,35,0,83,0,3722,4095,1.056,3.809,8.890,-1.580,-0.265,0.225,1.202,-2.186,9.855,-0.025,0.129,0.077,sad
4.26,0,0,0,0,0,0,0,0,0,0,33,0,77,0,3725,4095,0.836,3.907,8.942,-1.719,-0.241,0.377,1.367,-2.040,9.603,-0.026,0.144,0.088,sad
4.27,0,0,0,0,0,0,0,0,0,0,30,1,84,0,3735,4095,0.596,3.924,8.581,-1.792,-0.197,0.466,1.334,-2.016,9.776,-0.024,0.189,0.119,sad
4.28,0,0,0,0,0,0,0,0,0,0,33,0,89,0,3736,4095,0.302,4.120,8.909,-1.818,-0.223,0.511,1.602,-2.392,9.613,-0.056,0.227,0.195,sad
4.29,0,0,0,0,0,0,0,0,0,0,33,0,120,0,3743,4095,0.338,4.314,9.007,-1.835,-0.319,0.533,1.226,-2.363,10.039,-0.050,0.148,0.147,sad
4.30,0,0,0,0,0,0,0,0,0,0,43,0,119,0,3725,4095,0.496,4.223,8.957,-1.814,-0.392,0.583,1.259,-2.480,9.816,0.001,0.111,0.095,sad
4.31,0,0,0,0,0,0,0,0,0,24,43,7,123,0,3831,4095,0.565,4.532,9.213,-1.786,-0.410,0.655,1.188,-2.260,9.828,-0.003,0.093,0.085,sad
4.32,0,0,0,0,0,0,0,0,0,0,74,82,167,0,3754,4095,0.551,4.839,9.591,-1.772,-0.400,0.708,1.195,-2.272,9.869,-0.007,0.101,0.089,sad
4.33,0,0,0,0,0,0,0,0,0,5,115,187,148,4,3853,4095,0.661,4.966,9.747,-1.747,-0.392,0.749,1.240,-2.186,9.771,-0.002,0.123,0.103,sad
4.34,0,0,0,0,0,0,0,0,0,0,258,294,164,8,3595,4095,0.965,4.997,9.778,-1.684,-0.430,0.811,1.188,-2.049,9.747,-0.018,0.132,0.127,sad
4.35,0,0,0,0,0,0,0,0,0,0,383,472,197,1,3766,4095,1.417,4.925,9.876,-1.625,-0.475,0.903,1.216,-2.102,9.692,-0.019,0.161,0.155,sad
4.36,0,0,0,0,0,0,0,0,4,87,540,672,169,3,3771,4095,1.690,5.028,10.221,-1.581,-0.517,1.034,1.101,-2.248,9.838,-0.064,0.162,0.180,sad
4.37,0,0,0,0,0,0,0,0,3,121,952,811,62,82,3817,4095,1.970,5.059,10.326,-1.564,-0.502,1.187,1.068,-2.380,9.888,-0.025,0.158,0.158,sad
4.38,0,0,0,0,0,0,0,0,4,119,1218,845,103,0,3775,4095,1.954,4.879,10.072,-1.539,-0.458,1.332,1.015,-2.397,10.005,-0.022,0.131,0.139,sad
4.39,0,0,0,0,0,0,0,0,13,157,1589,953,143,5,3783,4095,1.599,4.645,10.245,-1.487,-0.476,1.448,1.094,-2.380,9.823,-0.021,0.120,0.115,sad
4.40,0,0,0,0,0,0,0,0,5,197,1778,1082,136,6,3773,4095,1.329,4.515,10.355,-1.468,-0.539,1.522,0.953,-2.368,10.015,-0.018,0.108,0.100,sad
4.41,0,0,0,0,0,0,0,0,13,202,1896,1179,158,7,3776,4057,0.871,4.271,10.479,-1.445,-0.535,1.522,1.027,-2.301,9.768,-0.014,0.101,0.106,sad
4.42,0,0,0,0,0,0,0,0,12,215,2009,1353,220,28,3629,4095,0.196,4.051,10.590,-1.435,-0.539,1.461,1.030,-2.404,9.869,-0.011,0.091,0.089,sad
4.43,0,0,0,0,0,0,0,0,18,227,2014,1451,121,7,3783,4095,-0.503,3.826,10.824,-1.442,-0.561,1.320,0.967,-2.296,9.814,-0.009,0.092,0.080,sad
4.44,0,0,0,0,0,0,0,0,0,247,2101,1495,133,74,3783,4095,-0.910,3.680,11.169,-1.480,-0.552,1.105,0.955,-2.363,9.790,-0.010,0.088,0.072,sad
4.45,0,0,0,0,0,0,0,0,33,232,2111,1512,135,30,3783,4095,-1.245,3.503,11.202,-1.543,-0.541,0.833,0.967,-2.385,9.835,-0.005,0.074,0.065,sad
4.46,0,0,0,0,0,0,0,0,9,269,2126,1591,147,14,3801,4095,-1.298,3.378,11.095,-1.586,-0.543,0.549,0.982,-2.375,9.821,-0.007,0.063,0.056,sad
4.47,0,0,0,0,0,0,0,0,55,277,2178,1674,121,17,3782,4095,-0.905,3.433,10.623,-1.593,-0.507,0.296,0.917,-2.236,9.718,-0.018,0.059,0.059,sad
4.48,0,0,0,0,0,0,0,0,63,229,2198,1735,159,19,3782,4095,-0.395,3.596,10.860,-1.543,-0.510,0.098,0.910,-2.298,9.823,-0.026,0.059,0.063,sad
4.49,0,0,0,0,0,0,0,0,95,210,1911,1733,117,3,3788,4095,0.283,4.085,11.377,-1.559,-0.551,-0.007,0.948,-2.306,9.716,-0.030,0.052,0.073,sad
4.50,0,0,0,0,0,0,0,0,117,229,2413,1767,147,0,3782,4095,0.778,4.104,10.949,-1.573,-0.564,-0.039,0.948,-2.375,9.797,-0.033,0.053,0.059,sad
4.51,0,0,0,0,0,0,0,0,150,247,2508,1800,127,28,3787,4095,1.358,3.881,9.689,-1.513,-0.449,0.006,0.912,-2.449,9.759,-0.030,0.049,0.054,sad
4.52,0,0,0,0,0,0,0,0,126,239,2536,1852,143,27,3783,4095,1.365,3.634,9.273,-1.333,-0.335,0.065,0.939,-2.380,9.847,-0.026,0.048,0.050,sad
4.53,0,0,0,0,0,0,0,0,210,217,2569,1918,163,36,3750,4095,0.998,4.029,9.852,-1.177,-0.432,0.127,0.912,-2.385,9.835,-0.021,0.047,0.045,sad
4.54,0,0,0,0,0,0,0,0,199,251,2590,1877,170,25,3783,4095,0.955,4.365,9.845,-1.092,-0.551,0.183,0.943,-2.356,9.768,-0.027,0.047,0.045,sad
4.55,0,0,0,0,0,0,0,0,243,228,2597,1949,136,36,3755,4095,1.408,4.211,9.024,-1.017,-0.472,0.261,0.886,-2.401,9.787,-0.037,0.045,0.038,sad
4.56,0,0,0,0,0,0,0,0,271,285,2602,2017,157,37,3730,4095,1.168,3.785,8.686,-0.910,-0.282,0.310,0.958,-2.322,9.752,-0.030,0.043,0.050,sad
4.57,0,0,0,0,0,0,0,0,344,317,2689,2109,102,30,3775,4095,0.903,3.029,8.564,-0.774,-0.211,0.281,0.905,-2.315,9.797,-0.035,0.051,0.053,sad
4.58,0,0,0,0,0,0,0,0,347,365,2700,2141,118,38,3773,4095,-0.103,3.184,8.559,-0.682,-0.287,0.133,0.888,-2.425,9.831,-0.042,0.053,0.059,sad
4.59,0,0,0,0,0,0,0,0,392,775,2735,2127,199,98,3771,4089,-0.354,3.239,8.246,-0.515,-0.514,0.023,0.855,-2.418,9.799,-0.031,0.055,0.054,sad
4.60,0,0,0,0,0,0,0,0,437,861,2751,2252,191,45,3768,4083,0.268,3.603,7.300,-0.375,-0.400,-0.100,0.867,-2.346,9.814,-0.038,0.047,0.050,sad
4.61,0,0,0,0,0,0,0,0,471,901,2799,2312,274,48,3763,4083,0.223,3.812,7.230,-0.185,-0.185,-0.196,0.860,-2.428,9.821,-0.040,0.050,0.046,sad
4.62,0,0,0,0,0,0,0,0,477,933,2771,2349,251,47,3754,4095,0.522,4.254,7.319,-0.027,-0.120,-0.216,0.891,-2.440,9.828,-0.031,0.047,0.044,sad
4.63,0,0,0,0,0,0,0,0,473,943,2776,2460,213,47,3753,4024,0.883,3.979,7.379,0.114,0.004,-0.184,0.860,-2.423,9.802,-0.044,0.047,0.044,sad
4.64,0,0,0,0,0,0,0,0,502,981,2797,2547,243,47,3621,4051,0.809,3.737,7.700,0.265,0.031,-0.113,0.871,-2.456,9.862,-0.042,0.053,0.043,sad
4.65,0,0,0,0,0,0,0,0,552,981,2794,2569,282,51,3773,4040,3.215,4.259,5.545,0.699,0.371,0.140,0.819,-2.413,9.778,-0.036,0.053,0.041,sad
4.66,0,0,0,0,0,0,0,0,571,1065,2812,2581,234,47,3733,4011,1.142,0.108,11.372,0.323,0.480,0.147,0.824,-2.497,9.869,-0.039,0.048,0.037,sad
4.67,0,0,0,0,0,0,0,0,559,1039,2733,2581,281,51,3766,4012,3.395,-2.761,11.176,0.291,0.584,0.214,0.833,-2.523,9.867,-0.034,0.047,0.032,sad
4.68,0,0,0,0,0,0,0,0,557,879,2871,2652,298,51,3717,3981,0.745,-2.784,8.344,0.624,0.400,0.105,0.840,-2.428,9.835,-0.036,0.056,0.029,sad
4.69,0,0,0,0,0,0,0,0,565,1007,2889,2679,327,53,3695,3991,0.910,0.038,10.240,0.659,0.470,-0.122,0.816,-2.456,9.720,-0.038,0.048,0.033,sad
4.70,0,0,0,0,0,0,0,642,537,1007,2940,2707,319,45,3684,3977,0.359,0.010,11.198,0.600,0.356,-0.182,0.850,-2.476,9.895,-0.036,0.057,0.032,sad
4.71,0,0,0,0,0,0,0,1739,495,1043,2879,2780,362,53,3620,3943,1.453,-0.788,10.060,0.734,0.241,-0.227,0.869,-2.483,9.835,-0.036,0.057,0.025,sad
4.72,0,0,0,0,0,0,30,2544,565,979,2879,2863,356,52,3467,3917,1.168,0.646,11.061,0.786,-0.056,-0.199,0.797,-2.535,9.826,-0.040,0.049,0.020,sad
4.73,0,0,0,0,0,0,281,2907,523,927,2876,2855,295,52,3447,3861,1.939,0.984,11.004,0.670,-0.291,-0.161,0.840,-2.521,9.857,-0.049,0.034,0.017,sad
4.74,0,0,0,0,0,0,590,3105,644,933,2874,2863,189,44,3117,3753,2.528,0.702,9.991,0.596,-0.222,-0.125,0.781,-2.399,9.850,-0.105,0.033,0.027,sad
4.75,0,0,0,0,0,0,926,3248,620,935,2876,2887,163,40,2837,3656,2.205,0.481,9.505,0.576,-0.197,-0.120,0.826,-2.492,9.900,-0.110,0.030,0.025,sad
4.76,0,0,0,0,0,0,1121,3345,661,1053,2915,2935,110,26,2620,3347,2.368,0.555,9.697,0.616,-0.094,-0.195,0.721,-2.459,9.819,-0.127,0.025,0.019,sad
4.77,0,0,0,0,0,0,1231,3437,860,1130,3104,2997,125,37,2442,2958,2.416,0.764,9.321,0.576,0.040,-0.209,0.766,-2.512,9.809,-0.142,0.013,0.019,sad
4.78,0,0,0,0,0,0,1482,3536,1043,1148,3171,3043,191,30,2173,2829,2.502,0.802,9.232,0.602,0.273,-0.274,0.857,-2.540,9.469,-0.168,0.006,0.014,sad
4.79,0,0,0,0,0,0,1694,3619,1208,1274,3165,3157,21,22,2067,2472,1.858,1.209,10.036,0.590,0.325,-0.286,0.807,-2.569,9.807,-0.187,0.006,-0.000,sad
4.80,0,0,0,0,0,0,1948,3690,1507,1325,3247,3227,85,23,1583,1817,1.779,1.295,9.855,0.590,0.290,-0.256,0.855,-2.768,9.917,-0.251,0.008,-0.020,sad
4.81,0,0,0,0,0,0,2238,3733,1803,1371,3247,3287,67,23,1262,1293,1.729,1.405,9.907,0.613,0.228,-0.232,0.848,-2.725,9.883,-0.245,0.008,-0.019,sad
4.82,0,0,0,0,0,0,2421,3764,2149,1509,3309,3360,26,11,315,789,2.100,1.776,9.902,0.579,0.226,-0.214,0.776,-2.150,9.924,-0.471,-0.011,-0.103,sad
4.83,0,0,0,0,0,0,2614,3789,2279,1691,3314,3351,9,16,1,5,1.860,1.578,9.383,0.549,0.305,-0.201,0.792,-3.187,9.586,-0.749,-0.003,-0.212,sad
4.84,0,0,0,0,236,0,2719,3792,2284,1703,3327,3375,0,1,0,0,1.719,4.456,14.552,0.425,0.826,-0.390,0.871,-1.963,9.603,-0.576,-0.028,-0.188,sad
4.85,0,0,0,0,294,0,2827,3814,2359,1759,3329,3382,0,3,0,0,1.176,1.338,10.080,0.294,0.756,-0.204,0.795,-2.966,9.409,-0.606,0.006,-0.194,sad
4.86,0,0,0,0,474,0,2871,3817,2565,1682,3391,3379,0,18,0,0,0.984,1.860,10.494,0.234,0.580,-0.162,0.871,-3.278,9.479,-0.695,-0.037,-0.249,sad
4.87,0,0,0,0,784,0,2928,3856,2709,1627,3534,3371,0,0,0,0,1.326,2.136,10.333,0.233,0.157,-0.108,1.123,-3.560,9.486,-0.660,-0.024,-0.214,sad
4.88,118,0,0,0,1070,0,2997,3826,2653,1605,3268,3347,0,0,0,0,1.188,2.131,9.936,0.191,-0.009,-0.056,1.001,-3.567,9.553,-0.711,-0.034,-0.203,sad
4.89,236,0,0,0,1107,0,3053,3837,2612,1516,3250,3279,0,0,69,0,1.298,2.078,10.015,0.142,-0.085,-0.026,1.075,-3.831,9.476,-0.748,0.019,-0.226,sad
4.90,374,0,0,0,1090,0,3121,3837,2651,1343,3224,3251,57,0,3,29,1.367,2.133,10.163,0.078,-0.168,-0.014,0.989,-3.836,9.311,-0.798,0.087,-0.204,sad
4.91,330,0,0,0,1098,0,3199,3858,2661,1267,3206,3095,0,0,22,0,1.525,2.279,9.946,-0.083,-0.288,0.061,1.063,-4.312,9.390,-0.786,0.138,-0.211,sad
4.92,245,0,0,0,1313,0,3281,3874,2660,718,3043,3001,0,0,0,0,1.317,1.901,10.029,-0.098,-0.439,0.104,1.104,-4.202,9.002,-0.843,0.159,-0.169,sad
4.93,14,0,0,0,1345,0,3361,3901,2524,356,2684,2871,0,1,0,0,1.616,1.762,9.582,-0.068,-0.390,0.099,0.991,-4.542,8.985,-0.908,0.202,-0.143,sad
4.94,0,0,0,0,1412,0,3427,3923,2484,353,2549,2927,0,0,0,0,1.755,1.968,9.550,-0.058,-0.244,0.080,0.891,-4.561,9.069,-0.924,0.248,-0.134,sad
4.95,0,0,0,0,1413,0,3469,3930,2392,0,2126,2669,0,0,0,0,1.736,1.741,9.527,-0.016,-0.106,0.043,1.116,-4.798,8.624,-0.991,0.192,-0.088,sad
4.96,0,0,0,0,1424,0,3491,3936,2281,0,1666,2555,0,0,0,0,2.471,1.939,9.208,-0.025,-0.075,0.038,1.022,-4.927,8.904,-1.029,0.182,-0.021,sad
4.97,0,15,0,0,1456,0,3507,3938,2207,0,918,2525,0,0,0,0,1.590,1.827,9.661,-0.031,-0.036,0.047,0.907,-5.004,9.045,-1.098,0.171,0.017,sad
4.98,0,27,0,0,1535,0,3515,3955,2121,0,524,2266,99,0,0,0,1.674,1.769,9.627,-0.011,0.007,0.057,0.982,-5.042,9.007,-1.155,0.137,0.122,sad
4.99,0,70,0,0,1579,0,3535,3955,2036,0,74,1895,0,0,0,0,1.915,1.451,9.112,-0.008,0.114,0.029,0.804,-5.279,8.923,-1.247,0.103,0.162,sad
5.00,0,68,0,0,1553,0,3539,3955,1929,0,148,1629,0,0,0,0,1.834,1.681,9.512,0.026,0.159,0.004,0.783,-5.310,8.739,-1.287,0.091,0.220,sad
5.01,0,176,0,0,1646,0,3554,3971,1711,0,48,1203,0,0,0,0,1.628,1.695,9.792,0.051,0.187,-0.021,0.742,-5.576,9.184,-1.359,0.010,0.327,sad
5.02,0,272,0,0,1712,0,3561,3963,1515,0,74,814,0,0,0,0,1.678,2.162,10.180,0.035,0.067,0.002,1.063,-5.923,9.081,-1.431,-0.064,0.502,sad
5.03,0,299,10,0,1781,0,3573,3975,1518,0,212,532,0,0,0,0,1.647,1.709,9.840,0.017,0.022,0.026,0.754,-5.813,9.670,-1.495,-0.177,0.682,sad
5.04,0,372,51,0,1815,0,3601,3975,1443,0,63,408,0,0,0,18,1.714,1.683,9.711,0.053,0.015,0.010,-0.091,-6.692,11.025,-1.477,-0.455,0.830,sad
5.05,0,400,78,0,1807,0,3615,3970,1125,0,53,185,0,0,1,1,1.875,1.697,9.476,0.066,0.078,-0.003,1.164,-6.960,8.863,-1.440,-0.422,1.075,sad
5.06,0,464,180,0,1793,0,3632,3980,315,0,40,0,0,0,16,1,1.949,1.846,9.371,0.086,0.205,-0.015,1.202,-7.669,7.685,-1.551,-0.265,0.930,sad
5.07,0,535,294,0,1862,0,3631,3983,216,0,0,0,0,0,0,0,1.700,1.741,9.776,0.088,0.286,-0.036,1.223,-7.477,8.763,-1.454,-0.130,0.900,sad
5.08,0,590,410,0,1979,0,3637,3963,0,0,53,0,0,0,0,21,1.590,1.858,9.845,0.069,0.254,-0.029,0.831,-6.622,10.585,-0.886,0.151,1.095,sad
5.09,0,659,585,0,2058,0,3648,3973,0,0,46,0,0,0,68,0,1.290,1.894,10.183,0.075,0.188,-0.016,0.498,-5.727,10.087,-0.514,0.195,1.065,sad
5.10,0,750,673,0,2043,0,3661,3979,0,0,46,0,0,0,0,0,1.642,1.621,9.582,0.090,0.164,-0.026,-0.263,-3.596,9.778,-0.191,0.095,1.155,sad
5.11,0,837,816,0,2065,0,3669,3973,0,0,48,0,0,0,0,0,1.290,1.647,9.644,0.098,0.131,-0.043,-0.469,-2.703,8.868,0.184,0.162,1.354,sad
5.12,0,928,996,0,2217,0,3688,3963,0,0,94,0,0,0,35,0,1.549,1.918,9.989,0.167,0.108,-0.054,-1.144,-6.170,9.955,0.520,0.366,1.414,sad
5.13,0,1040,1278,0,2297,0,3695,3957,0,0,43,0,0,3,43,0,1.571,1.815,9.708,0.106,0.108,-0.052,0.069,-2.816,9.981,0.657,-0.073,1.087,sad
5.14,0,1141,1584,0,2341,0,3702,3948,0,0,53,0,0,4,0,0,1.686,1.767,9.591,0.135,0.143,-0.074,0.330,-2.899,7.887,0.829,-0.080,1.112,sad
5.15,0,1250,1834,0,2412,0,3715,3946,0,0,40,3,0,0,29,0,1.666,1.853,9.582,0.144,0.176,-0.093,0.821,-3.000,7.724,0.846,-0.116,1.012,sad
5.16,0,1343,2066,0,2528,0,3718,3930,0,0,273,0,58,0,0,0,1.611,2.174,9.953,0.145,0.156,-0.087,1.348,-3.677,8.116,0.890,-0.128,0.852,sad
5.17,0,1440,2237,0,2591,0,3723,3923,0,0,33,0,7,0,0,0,1.437,2.107,10.020,0.101,0.061,-0.055,1.750,-3.931,7.877,0.949,-0.069,0.544,sad
5.18,0,1534,2345,119,2652,0,3728,3920,0,0,30,0,0,0,0,0,1.422,1.903,9.699,0.076,0.007,-0.031,1.520,-4.073,7.424,0.919,-0.039,0.254,sad
5.19,0,1651,2448,155,2724,53,3731,3907,0,0,28,47,0,0,0,5,1.530,1.858,9.651,0.111,0.011,-0.027,0.905,-4.336,7.582,0.855,-0.061,0.013,sad
5.20,0,1762,2557,144,2774,0,3733,3901,0,0,28,0,0,0,0,0,1.532,1.949,9.764,0.105,0.044,-0.044,0.352,-4.762,8.650,0.868,-0.114,-0.139,sad
5.21,0,1847,2641,272,2814,48,3741,3892,0,0,28,0,0,0,0,0,1.602,2.042,9.723,0.105,0.077,-0.046,-0.017,-5.059,9.206,0.951,-0.096,-0.198,sad
5.22,0,1954,2717,356,2894,121,3749,3885,0,0,0,0,0,0,0,0,1.441,1.930,9.732,0.097,0.097,-0.041,-0.778,-5.080,8.859,1.033,-0.119,-0.180,sad
5.23,0,1995,2782,347,2916,142,3751,3888,0,0,28,0,0,0,0,0,1.468,1.884,9.735,0.116,0.141,-0.059,-1.199,-4.911,8.346,1.006,-0.190,-0.114,sad
5.24,0,2075,2895,712,2992,231,3744,3891,0,0,28,0,0,0,0,0,1.496,1.753,9.483,0.135,0.302,-0.109,-0.608,-5.198,9.565,1.062,-0.196,0.060,sad
5.25,0,2077,2951,911,2975,319,3737,3858,0,0,28,0,0,0,0,0,1.475,1.793,9.673,0.183,0.389,-0.160,-0.359,-5.045,9.448,1.168,-0.175,0.104,sad
5.26,57,2119,3001,1166,2919,446,3725,3857,0,0,28,0,0,0,3,0,1.389,2.066,9.843,0.211,0.354,-0.181,-0.177,-4.551,8.775,1.204,-0.193,0.144,sad
5.27,448,2159,3065,1397,2867,663,3709,3875,0,0,28,0,0,0,0,0,1.140,2.294,9.807,0.151,0.173,-0.125,0.378,-4.480,8.569,1.174,-0.211,0.156,sad
5.28,594,2165,3103,1600,2901,912,3722,3877,0,0,189,0,0,0,17,0,0.974,2.131,9.819,0.068,0.091,-0.053,1.264,-4.702,9.747,1.206,-0.211,0.050,sad
5.29,750,2235,3152,1673,2967,1102,3718,3845,0,0,25,0,0,0,0,0,1.228,2.157,9.764,0.051,0.053,-0.032,1.578,-4.573,9.151,1.255,-0.342,-0.172,sad
5.30,864,2298,3180,1744,2945,1053,3726,3875,0,0,0,0,0,0,0,0,1.199,2.136,9.778,0.052,0.059,-0.037,1.573,-4.518,9.021,1.218,-0.346,-0.269,sad
5.31,986,2335,3189,1822,2975,1063,3711,3873,0,0,46,0,0,0,0,0,1.190,2.069,9.663,0.063,0.088,-0.060,1.259,-4.621,9.634,1.193,-0.385,-0.407,sad
5.32,1104,2362,3216,1901,2992,1051,3702,3895,0,0,10,0,0,0,3,0,1.120,2.054,9.697,0.090,0.091,-0.067,0.862,-4.585,9.878,1.222,-0.391,-0.438,sad
5.33,1226,2359,3242,2016,2979,1195,3690,3859,0,3,25,0,0,0,0,0,1.178,2.133,9.730,0.080,0.128,-0.074,0.797,-4.448,9.634,1.209,-0.377,-0.408,sad
5.34,1341,2384,3280,2091,2971,1287,3689,3852,0,0,30,0,0,0,0,0,1.046,2.162,9.831,0.070,0.072,-0.049,0.936,-4.281,9.371,1.116,-0.315,-0.308,sad
5.35,1410,2426,3318,2201,3024,1328,3701,3811,0,0,33,0,0,0,0,0,1.264,2.169,9.615,0.064,0.000,-0.021,0.721,-4.587,10.386,1.027,-0.497,-0.248,sad
5.36,1366,2480,3361,2279,3053,1162,3715,3824,0,0,28,0,0,0,0,0,1.152,2.169,9.649,0.064,-0.007,-0.002,0.874,-4.427,10.003,1.006,-0.616,-0.220,sad
5.37,1349,2518,3393,2328,3097,944,3718,3806,0,0,43,0,0,0,0,0,1.171,2.073,9.737,0.085,0.009,-0.023,1.159,-4.197,9.893,0.904,-0.679,-0.167,sad
5.38,1346,2559,3425,2364,3150,886,3719,3773,19,45,28,0,0,0,0,0,1.085,2.179,9.749,0.091,0.012,-0.027,1.753,-4.068,10.080,0.848,-0.582,-0.310,sad
5.39,1373,2630,3451,2420,3186,772,3713,3754,0,0,33,40,0,0,0,0,1.180,2.203,9.773,0.092,0.024,-0.021,1.760,-3.785,9.579,0.796,-0.461,-0.423,sad
5.40,1459,2670,3480,2468,3198,783,3699,3730,0,0,0,0,0,37,0,0,1.178,2.222,9.799,0.091,0.038,-0.033,1.484,-3.891,10.319,0.727,-0.242,-0.602,sad
5.41,1647,2661,3503,2510,3170,827,3661,3713,0,11,28,0,0,0,3,0,1.243,2.169,9.704,0.094,0.055,-0.045,0.917,-3.630,9.500,0.637,-0.299,-0.795,sad
5.42,1744,2669,3521,2585,3165,897,3665,3705,0,0,63,0,0,0,0,0,1.161,2.207,9.752,0.112,0.068,-0.051,0.883,-3.560,9.309,0.529,-0.332,-0.839,sad
5.43,1887,2709,3530,2640,3134,1045,3632,3687,10,0,25,0,0,0,0,0,1.063,2.279,9.821,0.117,0.072,-0.058,1.053,-3.598,9.941,0.505,-0.207,-0.853,sad
5.44,2003,2695,3546,2672,3111,1152,3582,3669,0,0,25,0,0,0,0,0,1.326,2.296,9.505,0.113,0.098,-0.063,0.850,-2.765,9.376,0.468,-0.139,-0.882,sad
5.45,2132,2659,3563,2711,3094,1244,3558,3661,0,0,28,0,0,0,0,0,1.006,2.217,9.809,0.095,0.081,-0.044,0.843,-2.507,9.254,0.408,-0.087,-0.897,sad
5.46,2256,2678,3569,2765,3061,1458,3521,3649,0,0,25,0,0,0,0,0,1.041,2.284,9.783,0.104,0.071,-0.041,0.931,-2.497,9.936,0.396,0.013,-0.911,sad
5.47,2363,2670,3583,2770,2995,1392,3493,3632,0,39,28,0,0,0,0,0,1.149,2.308,9.653,0.102,0.079,-0.029,0.551,-2.164,9.629,0.351,-0.016,-0.850,sad
5.48,2473,2645,3602,2851,2941,1611,3440,3611,0,0,0,0,0,0,1,0,1.070,2.351,9.776,0.101,0.093,-0.018,0.335,-2.342,10.082,0.357,-0.100,-0.765,sad
5.49,2524,2614,3621,2903,2916,1679,3373,3577,63,0,28,0,0,0,0,0,0.919,2.337,9.651,0.098,0.080,-0.018,-0.184,-2.114,9.747,0.484,-0.089,-0.482,sad
5.50,2558,2624,3569,2971,2923,1774,3332,3553,0,0,69,0,0,0,0,0,1.080,2.334,9.742,0.082,0.062,-0.013,-0.675,-1.393,9.570,0.427,-0.195,-0.066,sad
5.51,2654,2625,3647,3018,2864,1777,3290,3536,0,0,25,0,20,0,0,52,0.967,2.327,9.740,0.059,0.061,-0.022,-0.529,-1.116,10.003,0.455,-0.253,0.141,sad
5.52,2678,2603,3664,3041,2856,1840,3257,3507,0,0,28,0,0,0,0,0,1.049,2.322,9.718,0.056,0.064,-0.028,0.318,-0.577,9.943,0.492,-0.309,0.454,sad
5.53,2684,2550,3665,3071,2767,1838,3216,3491,0,0,23,0,0,0,0,0,1.030,2.363,9.725,0.052,0.066,-0.015,1.875,-1.132,10.178,0.521,-0.306,0.473,sad
5.54,2751,2495,3665,3122,2704,1837,3188,3480,0,0,28,0,0,8,0,0,0.929,2.325,9.737,0.036,0.063,-0.028,2.588,-1.415,9.335,0.555,-0.183,0.337,sad
5.55,2768,2416,3665,3150,2653,1747,3152,3473,0,0,23,0,0,0,0,0,1.003,2.344,9.685,0.047,0.071,-0.025,3.031,-1.731,8.291,0.328,0.099,-0.046,sad
5.56,2774,2432,3675,3159,2522,1698,3117,3472,0,0,25,0,0,0,0,0,0.905,2.380,9.780,0.048,0.067,-0.022,2.574,-1.894,8.392,0.135,0.265,-0.440,sad
5.57,2818,2394,3677,3199,2521,1645,3060,3459,0,0,28,0,0,45,0,0,0.867,2.274,9.677,0.038,0.059,-0.025,2.191,-2.016,8.401,0.009,0.278,-0.550,sad
5.58,2850,2368,3687,3219,2522,1430,2999,3412,0,0,28,0,0,0,0,0,0.960,2.277,9.701,0.049,0.049,-0.017,0.512,-5.109,5.622,-0.596,0.086,-0.681,sad
5.59,2863,2422,3699,3236,2519,1167,2867,3344,0,75,102,0,0,0,0,0,0.982,2.227,9.680,0.071,0.047,-0.026,2.112,-2.320,9.704,-0.721,0.382,0.093,sad
5.60,2886,2480,3711,3267,2490,880,2687,3235,0,0,28,4,0,0,0,0,0.972,2.327,9.594,0.080,0.055,-0.012,3.019,-1.199,12.617,-0.298,0.653,0.083,sad
5.61,2938,2590,3736,3297,2431,371,2497,3013,0,0,17,0,0,0,53,0,0.936,2.248,9.689,0.110,0.046,-0.009,2.351,0.991,8.796,-0.616,0.530,0.022,sad
5.62,2992,2650,3757,3330,2310,48,2253,2587,0,0,25,0,0,0,0,343,0.967,2.320,9.694,0.136,0.044,-0.005,-1.223,-0.462,10.750,-0.784,0.378,0.137,sad
5.63,3015,2709,3775,3367,2016,0,1918,1639,0,0,25,0,11,0,0,1447,0.946,2.382,9.862,0.165,0.048,0.008,-2.040,-0.069,10.508,-1.085,0.174,0.239,sad
5.64,3071,2724,3792,3393,1790,0,1303,274,0,0,0,0,0,0,0,2745,0.941,2.382,9.850,0.227,0.055,0.024,1.767,-2.531,11.281,-1.048,-0.280,0.241,sad
5.65,3140,2759,3807,3426,1406,0,656,0,0,0,17,0,0,2,529,3399,1.290,2.449,9.948,0.378,0.079,0.076,1.599,-1.683,9.960,-0.840,-0.215,0.206,sad
5.66,3152,2777,3830,3453,1105,0,64,0,0,0,25,0,0,21,1131,3451,1.022,2.794,9.802,0.539,0.090,0.103,2.382,-1.760,9.620,-0.807,-0.162,0.257,sad
5.67,3196,2723,3838,3470,961,0,0,0,2,0,151,0,0,0,1647,3757,1.027,2.516,9.383,0.557,0.060,0.109,1.970,-2.502,11.286,-0.888,-0.172,0.189,sad
5.68,3245,2512,3844,3478,992,0,0,0,0,0,17,1,0,10,1955,3751,0.733,5.016,9.433,0.766,0.067,0.200,2.507,-3.201,10.891,-0.484,-0.181,0.142,sad
5.69,3265,2362,3843,3475,451,0,0,0,0,0,12,0,0,31,2057,3799,1.257,2.813,9.524,0.904,0.006,0.213,1.729,-3.086,12.237,0.127,0.351,0.416,sad
5.70,3249,2283,3839,3458,196,0,0,0,0,3,0,0,0,0,2141,3829,0.958,3.156,9.440,1.018,0.002,0.262,1.032,-2.052,10.463,-0.196,-0.034,0.063,sad
5.71,3253,2271,3824,3450,23,0,0,0,0,0,10,0,0,0,2219,4050,1.226,3.079,9.641,1.095,0.040,0.299,0.845,-2.562,11.181,-0.152,-0.196,0.052,sad
5.72,3265,2191,3803,3442,0,0,0,0,0,0,17,0,0,0,2251,3882,1.324,4.204,8.432,0.921,0.051,0.234,1.686,-2.320,10.139,-0.068,-0.292,-0.034,sad
5.73,3297,2155,3792,3431,0,0,0,0,0,0,17,0,0,3,2347,3912,0.967,3.472,9.507,0.997,0.195,0.262,1.681,-2.188,9.888,-0.034,-0.275,-0.043,sad
5.74,3312,2092,3756,3430,0,0,0,0,1,0,20,0,0,0,2455,3929,1.128,4.017,10.266,0.933,0.248,0.246,1.824,-2.265,9.658,-0.005,-0.291,-0.034,sad
5.75,3312,2078,3709,3442,0,0,0,0,31,0,17,0,0,0,2565,3945,1.061,3.903,9.776,0.961,0.417,0.270,2.184,-2.591,10.216,-0.029,-0.383,-0.068,sad
5.76,3335,1984,3440,3458,0,0,0,0,0,0,17,0,0,0,2824,3980,1.185,4.128,9.009,0.968,0.431,0.272,1.903,-2.095,9.625,0.031,-0.337,-0.094,sad
5.77,3335,1894,3443,3458,0,0,0,0,16,0,17,0,0,0,2920,3994,0.850,4.180,8.918,0.978,0.463,0.237,2.368,-1.999,9.282,0.017,-0.262,-0.075,sad
5.78,3347,1854,3439,3459,0,0,0,0,0,0,0,0,0,0,2995,4006,0.838,4.214,9.029,0.943,0.477,0.247,2.277,-2.303,9.644,0.014,-0.238,-0.050,sad
5.79,3347,1648,3415,3478,0,0,0,0,0,0,17,0,0,0,3046,3875,0.783,4.439,8.868,0.887,0.500,0.225,2.440,-1.930,9.297,0.022,-0.168,-0.030,sad
5.80,3350,1582,3377,3484,0,0,0,0,0,0,23,6,0,0,3097,4028,0.534,4.240,8.741,0.903,0.460,0.245,2.313,-1.863,9.131,-0.006,-0.085,0.002,sad
5.81,3377,1472,3377,3504,0,0,0,0,0,0,17,0,59,0,3048,4041,0.618,4.573,8.945,0.883,0.486,0.209,2.255,-1.970,9.242,-0.035,-0.006,0.043,sad
5.82,3387,1278,3344,3493,0,0,0,0,0,0,20,0,0,0,3143,4055,0.479,4.573,8.904,0.912,0.432,0.241,2.356,-2.069,9.400,-0.044,0.086,0.066,sad
5.83,3408,1231,3301,3504,0,0,0,0,0,0,17,0,0,0,3160,4063,0.575,4.920,8.641,0.903,0.410,0.218,2.538,-2.200,9.548,-0.032,0.105,0.088,sad
5.84,3413,1163,3276,3501,0,0,0,0,0,0,12,0,0,0,3245,4066,0.584,4.815,8.643,0.893,0.463,0.198,1.992,-2.401,10.147,0.000,0.063,0.071,sad
5.85,3408,1099,3231,3495,0,0,0,0,0,0,0,5,0,8,3205,4075,0.730,5.076,8.499,0.875,0.454,0.181,1.992,-2.279,9.991,0.033,-0.011,0.027,sad
5.86,3423,1061,3205,3479,0,0,0,0,0,0,25,0,4,0,3261,4085,0.601,4.963,8.528,0.947,0.461,0.137,2.200,-2.121,9.718,0.039,-0.015,0.022,sad
5.87,3423,953,3159,3461,0,0,0,0,0,0,0,0,10,23,3220,4091,0.503,5.025,8.396,0.952,0.445,0.086,2.128,-2.126,9.716,0.029,0.006,0.021,sad
5.88,3414,995,3130,3426,0,0,0,0,52,0,23,0,12,0,3391,4095,0.304,5.250,8.413,0.967,0.404,0.012,2.416,-2.325,9.737,0.043,-0.018,0.015,sad
5.89,3419,914,3082,3395,0,0,0,0,0,0,25,0,5,0,3401,4095,0.117,5.274,8.399,0.969,0.327,-0.067,2.119,-2.109,9.582,0.054,-0.038,0.002,sad
5.90,3440,863,3010,3348,0,0,0,0,0,87,33,0,0,0,3417,4095,0.187,5.535,8.253,1.013,0.278,-0.139,2.227,-2.054,9.610,0.030,-0.052,0.002,sad
5.91,3453,829,2951,3270,0,0,0,0,0,0,25,0,1,0,3455,4095,0.201,5.380,8.303,1.031,0.189,-0.189,2.564,-2.045,9.282,0.037,-0.011,0.013,sad
5.92,3440,624,2886,3184,0,0,0,0,0,0,28,0,25,0,3501,4095,0.163,5.662,8.648,1.123,0.064,-0.261,2.363,-2.071,9.469,0.044,0.036,0.030,sad
5.93,3400,378,2789,3057,0,0,0,0,0,0,33,0,79,19,3551,4095,-0.397,5.576,8.361,1.150,-0.029,-0.345,2.531,-2.045,9.378,0.052,0.115,0.052,sad
5.94,3325,344,2626,2975,0,0,0,0,0,0,28,0,39,0,3559,4095,-0.443,5.320,7.614,1.250,-0.093,-0.323,2.296,-1.997,9.239,0.061,0.193,0.071,sad
5.95,3240,336,2490,2887,0,0,0,0,3,0,0,0,28,0,3573,4095,-0.472,5.875,8.258,1.463,-0.309,-0.182,2.641,-2.540,9.495,-0.008,0.282,0.097,sad
5.96,3157,304,2311,2740,0,0,0,0,0,0,33,0,41,0,3595,4095,0.297,6.263,9.232,1.535,-0.243,-0.228,2.392,-2.018,9.471,0.037,0.344,0.106,sad
5.97,3011,285,2065,2611,0,0,0,0,0,0,33,0,28,0,3611,4095,-0.084,6.653,9.086,1.557,-0.394,-0.493,2.073,-2.073,9.804,0.017,0.319,0.108,sad
5.98,2754,176,1744,2383,0,0,0,0,0,0,5,0,43,0,3635,4095,-0.520,5.902,9.498,1.559,-0.721,-0.851,1.954,-2.241,9.917,0.003,0.295,0.087,sad
5.99,2458,91,1354,2097,0,0,0,0,0,0,66,0,28,0,3631,4095,-0.172,7.460,9.809,1.670,-1.126,-1.057,1.949,-2.109,9.627,0.020,0.298,0.088,sad
6.00,1873,0,896,1454,0,0,0,0,0,0,40,0,27,0,3656,4095,0.091,7.422,8.598,1.747,-1.171,-1.198,1.968,-2.006,9.471,0.030,0.366,0.105,sad
6.01,1023,0,313,763,0,0,0,0,0,0,43,0,61,0,3670,4095,0.263,6.495,8.729,1.881,-1.215,-1.114,1.827,-2.198,10.044,-0.003,0.328,0.092,sad
6.02,181,0,0,432,0,0,0,0,0,0,43,0,45,0,3675,4095,-0.290,7.511,8.205,2.032,-1.235,-1.043,1.985,-2.195,9.881,-0.031,0.301,0.077,sad
6.03,0,0,0,133,0,0,0,0,0,0,179,117,118,0,3672,4095,0.644,7.563,8.389,1.788,-1.290,-0.915,1.872,-2.179,9.821,-0.031,0.290,0.089,sad
6.04,0,0,0,0,0,0,0,0,0,0,46,0,39,0,3674,4095,1.403,6.902,10.580,1.106,-0.936,-1.063,1.803,-2.076,9.711,-0.027,0.309,0.085,sad
6.05,0,0,0,0,0,0,0,0,0,0,48,0,40,5,3673,4095,1.513,5.349,9.644,0.681,-0.438,-1.175,1.650,-2.100,10.223,-0.082,0.285,0.088,sad
6.06,0,0,0,0,0,0,0,0,0,0,53,0,53,0,3659,4095,-0.606,3.888,9.402,0.350,-0.099,-1.309,1.623,-2.291,9.902,-0.021,0.244,0.077,sad
6.07,0,0,0,0,0,0,0,0,0,0,43,0,59,0,3784,4095,-0.709,3.263,9.014,0.051,0.096,-1.533,1.580,-2.100,9.886,-0.037,0.235,0.084,sad
6.08,0,0,0,0,0,0,0,0,1,0,46,0,47,0,3673,4095,0.156,5.231,11.370,-0.322,-0.035,-1.317,1.650,-1.987,9.663,-0.051,0.283,0.107,sad
6.09,0,0,0,0,0,0,0,0,0,0,0,0,41,0,3659,4095,1.039,4.355,10.372,-0.841,0.010,-1.436,1.410,-1.954,9.969,-0.105,0.332,0.169,sad
6.10,0,0,0,0,0,0,0,0,0,0,46,0,28,0,3647,4095,1.616,4.503,8.732,-1.197,0.047,-1.318,1.748,-2.464,9.972,-0.116,0.347,0.196,sad
6.11,0,0,0,0,0,0,0,0,0,0,43,0,36,0,3629,4095,1.676,4.094,7.017,-1.305,0.068,-1.184,1.587,-2.217,9.708,-0.094,0.346,0.192,sad
6.12,0,0,0,0,0,0,0,0,0,0,48,0,30,0,3635,4095,2.160,3.977,6.270,-1.256,-0.005,-0.956,1.386,-2.296,9.833,-0.091,0.296,0.183,sad
6.13,0,0,0,0,0,0,0,0,0,0,46,0,39,0,3627,4095,2.459,4.281,7.008,-1.266,-0.046,-0.713,1.379,-2.274,9.706,-0.076,0.285,0.157,sad
6.14,0,0,0,0,0,0,0,0,0,0,46,0,44,0,3636,4095,2.770,4.465,7.635,-1.333,-0.090,-0.412,1.360,-2.330,9.730,-0.054,0.253,0.146,sad
6.15,0,0,0,0,0,0,0,0,0,0,46,75,57,0,3647,4095,2.631,4.226,7.822,-1.396,-0.105,-0.066,1.379,-2.322,9.752,-0.046,0.205,0.130,sad
6.16,0,0,0,0,0,0,0,0,0,0,46,0,55,0,3653,4095,2.176,4.214,7.961,-1.475,-0.068,0.211,1.401,-2.322,9.823,-0.034,0.177,0.124,sad
6.17,0,0,0,0,0,0,0,0,0,0,43,0,44,12,3659,4095,1.556,4.369,8.509,-1.538,-0.058,0.393,1.434,-2.332,9.783,-0.044,0.151,0.113,sad
6.18,0,0,0,0,0,0,0,0,0,0,48,0,53,0,3667,4095,1.039,4.681,9.002,-1.666,-0.091,0.491,1.346,-2.334,9.797,-0.049,0.142,0.106,sad
6.19,0,0,0,0,0,0,0,0,0,0,38,0,72,0,3672,4095,0.845,4.527,8.526,-1.782,-0.096,0.517,1.358,-2.564,9.936,-0.020,0.098,0.069,sad
6.20,0,0,0,0,0,0,0,0,0,0,43,0,74,0,3673,4095,0.596,4.264,8.157,-1.772,-0.168,0.540,1.281,-2.339,9.828,-0.014,0.085,0.052,sad
6.21,0,0,0,0,0,0,0,0,0,0,48,0,0,0,3675,4095,0.816,4.446,8.418,-1.729,-0.247,0.600,1.247,-2.330,9.744,-0.011,0.074,0.040,sad
6.22,0,0,0,0,0,0,0,0,5,53,48,0,43,0,3673,4095,0.845,4.709,9.258,-1.724,-0.303,0.671,1.245,-2.354,9.787,-0.003,0.066,0.038,sad
6.23,0,0,0,0,0,0,0,0,0,0,48,0,73,0,3690,4095,0.776,5.052,9.649,-1.768,-0.325,0.709,1.231,-2.277,9.735,0.001,0.061,0.040,sad
6.24,0,0,0,0,0,0,0,0,0,0,48,0,85,0,3691,4095,0.541,5.198,9.620,-1.786,-0.361,0.733,1.247,-2.315,9.699,0.005,0.079,0.050,sad
6.25,0,0,0,0,0,0,0,0,0,0,94,63,61,0,3677,3999,0.852,5.344,9.337,-1.765,-0.370,0.799,1.211,-2.227,9.716,0.010,0.089,0.068,sad
6.26,0,0,0,0,0,0,0,0,0,1,53,249,82,0,3707,4095,1.283,5.339,9.443,-1.734,-0.301,0.873,1.204,-2.370,9.883,-0.001,0.105,0.088,sad
6.27,0,0,0,0,0,0,0,0,51,0,46,357,62,0,3717,4095,1.470,5.260,9.658,-1.679,-0.295,0.999,1.199,-2.528,9.919,0.006,0.078,0.069,sad
6.28,0,0,0,0,0,0,0,0,0,0,48,411,86,0,3718,4095,1.745,5.346,9.840,-1.655,-0.323,1.144,1.279,-2.416,9.838,0.006,0.057,0.043,sad
6.29,0,0,0,0,0,0,0,0,0,0,48,461,104,1,3725,4095,2.006,5.279,9.886,-1.623,-0.308,1.298,1.276,-2.423,9.852,0.026,0.044,0.023,sad
6.30,0,0,0,0,0,0,0,0,6,0,48,435,107,0,3731,4095,1.860,5.250,9.893,-1.595,-0.315,1.443,1.015,-2.354,9.974,0.029,0.026,0.017,sad
6.31,0,0,0,0,0,0,0,0,0,0,53,490,50,5,3736,4095,1.784,4.963,9.740,-1.552,-0.324,1.548,1.195,-2.224,9.675,0.026,0.017,0.023,sad
6.32,0,0,0,0,0,0,0,0,0,0,58,552,107,0,3743,4095,1.525,4.803,9.890,-1.468,-0.376,1.623,1.240,-2.227,9.639,0.021,0.042,0.044,sad
6.33,0,0,0,0,0,0,0,0,0,0,143,679,123,0,3775,4045,1.446,4.853,10.161,-1.427,-0.408,1.652,1.290,-2.306,9.761,0.003,0.047,0.054,sad
6.34,0,0,0,0,0,0,0,0,7,1,678,763,151,45,3763,4095,1.322,4.815,10.312,-1.411,-0.384,1.618,1.211,-2.215,9.792,0.008,0.067,0.076,sad
6.35,0,0,0,0,0,0,0,0,0,1,1164,850,125,0,3769,4095,1.087,4.831,10.561,-1.438,-0.367,1.540,1.116,-2.219,9.797,-0.020,0.091,0.096,sad
6.36,0,0,0,0,0,0,0,0,1,26,1359,957,55,0,3773,4095,0.864,4.592,10.254,-1.452,-0.358,1.424,1.176,-2.301,9.730,-0.008,0.120,0.135,sad
6.37,0,0,0,0,0,0,0,0,3,41,1666,1003,137,3,3783,4095,0.656,4.355,9.558,-1.380,-0.319,1.274,1.037,-2.320,9.852,-0.032,0.117,0.152,sad
6.38,0,0,0,0,0,0,0,0,0,117,2119,1212,192,5,3787,4045,0.314,4.063,9.268,-1.287,-0.243,1.075,1.022,-2.241,9.694,-0.005,0.131,0.140,sad
6.39,0,0,0,0,0,0,0,0,4,137,2234,1431,187,5,3790,4095,0.041,3.941,9.814,-1.159,-0.239,0.837,1.199,-2.598,9.656,-0.011,0.103,0.132,sad
6.40,0,0,0,0,0,0,0,0,0,24,2544,1589,175,6,3788,4095,-0.184,4.362,11.497,-1.138,-0.331,0.592,1.082,-2.334,9.776,-0.037,0.074,0.103,sad
6.41,0,0,0,0,0,0,0,0,4,553,2648,1645,233,6,3768,4095,-0.225,4.772,12.191,-1.283,-0.514,0.406,1.168,-2.430,9.811,-0.023,0.072,0.093,sad
6.42,0,0,0,0,0,0,0,0,3,715,2725,1819,274,5,3815,4095,0.170,4.183,10.745,-1.383,-0.536,0.245,1.087,-2.500,9.862,-0.022,0.044,0.081,sad
6.43,0,0,0,0,0,0,0,0,2,1041,2771,1939,329,0,3821,4095,0.314,3.831,9.553,-1.315,-0.455,0.130,1.149,-2.531,9.972,-0.023,0.046,0.071,sad
6.44,0,0,0,0,0,0,0,0,4,1143,2820,2101,283,5,3759,4055,0.383,3.826,9.742,-1.188,-0.418,0.068,1.003,-2.397,9.843,-0.017,0.055,0.072,sad
6.45,0,0,0,0,0,0,0,0,13,1238,2853,2259,409,9,3831,4028,0.740,3.886,9.871,-1.098,-0.388,-0.000,1.037,-2.361,9.876,-0.032,0.049,0.079,sad
6.46,0,0,0,0,0,0,0,0,24,1307,2899,2343,603,11,3831,4007,0.867,3.668,9.912,-1.032,-0.398,-0.038,1.075,-2.377,9.821,-0.041,0.044,0.076,sad
6.47,0,0,0,0,0,0,0,0,53,1375,3007,2477,719,19,3833,3967,1.192,3.603,9.661,-0.958,-0.462,-0.007,1.101,-2.368,9.768,-0.047,0.049,0.079,sad
6.48,0,0,0,0,0,0,0,0,61,1319,3099,2589,861,22,3863,3929,1.377,3.426,9.007,-0.856,-0.421,0.059,1.113,-2.535,9.776,-0.053,0.048,0.074,sad
6.49,0,0,0,0,0,0,0,0,87,1388,3130,2663,1068,0,3784,3887,1.374,3.323,8.825,-0.756,-0.307,0.115,1.020,-2.459,9.771,-0.048,0.046,0.071,sad
6.50,0,0,0,0,0,0,0,0,103,1495,3160,2713,1245,29,3836,3805,1.077,3.364,8.961,-0.672,-0.242,0.126,0.994,-2.459,9.929,-0.057,0.044,0.059,sad
6.51,0,0,0,0,0,0,0,0,135,1544,3229,2829,1423,59,3832,3547,0.922,2.648,8.837,-0.548,-0.244,0.123,1.030,-2.449,9.795,-0.039,0.032,0.042,sad
6.52,0,0,0,0,0,0,0,0,294,1626,3212,2845,1453,51,3849,3464,0.204,2.502,8.906,-0.491,-0.334,0.008,1.049,-2.442,9.790,-0.048,0.027,0.040,sad
6.53,0,0,0,0,0,0,0,0,469,1541,3222,2951,1637,53,3805,3463,0.560,2.672,8.468,-0.356,-0.322,-0.086,0.996,-2.516,9.768,-0.058,0.031,0.044,sad
6.54,0,0,0,0,0,0,0,0,487,1655,3268,3039,1779,53,3803,3672,0.587,2.686,8.006,-0.242,-0.157,-0.149,1.006,-2.456,9.804,-0.045,0.046,0.034,sad
6.55,0,0,0,0,0,0,0,0,441,1673,3304,3146,1779,53,3759,3447,0.996,2.248,8.657,-0.082,-0.028,-0.152,0.917,-2.449,9.809,-0.055,0.042,0.035,sad
6.56,0,0,0,0,0,0,0,0,522,1853,3309,3151,1849,53,3711,3464,1.202,2.581,8.815,-0.055,-0.019,-0.128,0.946,-2.531,9.735,-0.043,0.052,0.035,sad
6.57,0,0,0,0,0,0,0,0,713,1834,3488,3213,1947,53,3639,3427,1.061,2.497,7.410,0.117,0.063,-0.114,0.970,-2.545,9.771,-0.033,0.043,0.030,sad
6.58,0,0,0,0,0,0,0,0,657,1862,3334,3247,2005,47,3577,3449,0.996,2.528,7.958,0.214,0.086,-0.132,0.979,-2.591,9.759,-0.023,0.051,0.029,sad
6.59,0,0,0,0,0,0,0,0,684,1891,3337,3259,2025,115,3513,3443,4.173,-1.925,11.923,0.204,0.725,-0.122,0.991,-2.579,9.773,-0.020,0.051,0.033,sad
6.60,0,0,0,0,0,0,0,0,789,1913,3339,3295,2024,77,3437,3434,0.649,-2.787,9.244,0.351,0.425,-0.207,1.008,-2.559,9.795,-0.015,0.068,0.033,sad
6.61,0,0,0,0,0,0,0,0,873,1981,3380,3449,1810,53,3221,3427,0.297,-0.292,10.860,0.306,0.801,-0.687,1.053,-2.564,9.811,-0.050,0.079,0.030,sad
6.62,0,0,0,0,0,0,0,1233,1003,1885,3345,3383,1483,52,3108,3405,3.479,-0.177,8.729,0.574,0.405,-0.441,0.790,-2.686,9.783,-0.082,0.039,0.017,sad
6.63,0,0,0,0,0,0,0,2203,1117,1814,3345,3416,1339,47,3036,3347,2.966,0.338,10.709,0.771,0.073,-0.190,0.888,-2.713,9.572,-0.054,0.028,0.013,sad
6.64,0,0,0,0,0,0,98,2827,1387,1759,3352,3453,1214,51,2943,3173,0.304,1.702,12.067,0.635,-0.427,-0.086,0.989,-2.658,9.697,-0.094,0.029,0.011,sad
6.65,0,0,0,0,0,0,486,3088,1645,1781,3345,3500,871,51,2635,2931,2.265,-0.160,9.570,0.621,-0.346,-0.193,0.991,-2.562,9.668,-0.155,0.029,-0.002,sad
6.66,0,0,0,0,0,0,889,3264,1651,1798,3588,3529,559,53,2485,2771,2.648,1.697,10.841,0.545,-0.700,-0.071,0.790,-2.382,9.584,-0.136,0.001,-0.008,sad
6.67,0,0,0,0,0,0,1180,3387,1763,1831,3375,3575,203,46,1997,2341,2.610,0.651,9.388,0.444,-0.529,-0.042,1.113,-2.847,9.491,-0.193,-0.010,-0.019,sad
6.68,0,0,0,0,0,0,1417,3497,1965,1781,3386,3614,123,31,1400,1381,2.586,1.202,10.827,0.407,-0.455,-0.068,1.041,-2.849,9.613,-0.245,-0.023,-0.037,sad
6.69,0,0,0,0,0,0,1606,3599,2019,1789,3386,3643,59,22,1056,824,3.084,0.675,9.378,0.312,-0.321,-0.050,1.168,-2.176,9.864,-0.351,-0.009,-0.062,sad
6.70,0,0,0,0,0,0,1833,3677,2201,1613,3386,3685,39,5,3,470,2.650,1.281,10.585,0.252,-0.223,-0.056,1.075,-2.504,9.689,-0.536,-0.047,-0.121,sad
6.71,0,0,0,0,0,0,2064,3723,2332,1323,3191,3755,21,0,0,0,2.727,1.460,10.489,0.135,-0.222,-0.026,1.101,-2.658,9.902,-0.803,-0.060,-0.178,sad
6.72,0,0,0,0,0,0,2241,3791,2345,1065,3467,3725,0,0,0,0,3.280,1.267,9.634,0.019,-0.328,0.092,1.125,-3.074,9.527,-0.819,-0.080,-0.245,sad
6.73,0,0,0,0,0,0,2304,3815,2577,941,3419,3756,0,0,0,0,2.301,0.790,10.068,-0.011,-0.356,0.115,1.235,-2.902,9.376,-1.011,-0.088,-0.296,sad
6.74,0,0,0,0,0,0,2418,3830,2570,727,3416,3763,4,0,0,0,1.781,1.161,10.805,-0.035,-0.459,0.100,1.556,-2.933,9.376,-1.033,-0.034,-0.344,sad
6.75,0,0,0,0,0,0,2495,3841,2597,168,3411,3783,0,0,0,3,2.734,0.934,10.077,-0.078,-0.566,0.122,0.986,-3.409,9.560,-0.973,0.035,-0.363,sad
6.76,0,0,0,0,0,0,2582,3861,2695,141,3396,3789,0,0,7,0,3.182,0.946,9.397,-0.105,-0.516,0.131,1.686,-4.434,9.000,-0.868,0.120,-0.374,sad
6.77,0,0,0,0,0,0,2641,3865,2715,73,3406,3797,0,0,0,0,3.417,0.474,9.182,-0.112,-0.417,0.102,1.772,-4.049,9.469,-1.033,0.163,-0.381,sad
6.78,0,0,0,0,0,0,2719,3875,2770,0,3416,3803,0,0,0,0,3.519,0.541,8.684,-0.092,-0.254,0.071,1.255,-3.596,9.907,-1.190,0.257,-0.403,sad
6.79,0,0,0,0,13,0,2757,3890,2741,0,3437,3948,2,0,0,0,3.522,0.527,8.765,-0.078,-0.105,0.036,1.128,-3.893,9.412,-1.124,0.322,-0.389,sad
6.80,0,0,0,0,14,0,2780,3905,2782,0,3452,3805,0,0,2,0,3.397,0.536,9.268,-0.046,-0.007,-0.009,0.965,-4.226,8.997,-1.243,0.330,-0.423,sad
6.81,0,0,0,0,0,0,2804,3920,2791,4,3462,3820,0,0,0,0,3.524,0.395,8.672,-0.051,0.116,-0.019,0.965,-4.585,8.760,-1.121,0.334,-0.405,sad
6.82,0,0,0,0,0,0,2813,3920,2857,0,3437,3785,0,0,0,0,3.187,-0.043,8.193,0.029,0.220,-0.040,0.776,-4.511,8.485,-1.070,0.381,-0.391,sad
6.83,0,0,0,0,0,0,2812,3930,2815,0,3419,3815,0,0,0,0,2.512,-0.048,8.150,0.127,0.341,-0.067,1.015,-4.573,8.880,-1.039,0.367,-0.381,sad
6.84,0,0,0,0,0,0,2831,3939,2775,0,3411,3812,0,0,0,16,2.892,-0.989,7.068,0.270,0.596,-0.182,1.250,-4.882,8.569,-1.066,0.397,-0.401,sad
6.85,0,0,0,0,16,0,2829,3934,2827,55,3380,3772,0,0,0,0,2.849,0.335,9.304,0.472,0.481,-0.227,1.192,-4.951,8.961,-1.033,0.408,-0.394,sad
6.86,0,0,0,0,61,0,2837,3981,2823,0,3339,3771,2,0,0,0,2.634,1.468,10.525,0.463,0.319,-0.204,1.008,-5.306,8.471,-1.001,0.345,-0.334,sad
6.87,0,0,0,0,110,0,2879,3936,2815,0,3337,3579,0,0,0,0,2.962,0.613,9.261,0.430,0.337,-0.202,0.953,-5.191,8.124,-0.928,0.232,-0.279,sad
6.88,0,0,0,0,137,0,2928,3958,2795,0,3324,3710,0,0,0,0,2.456,1.377,10.307,0.432,0.312,-0.209,0.970,-5.298,8.322,-0.872,0.187,-0.261,sad
6.89,0,0,0,0,124,0,3003,3953,2876,0,3222,3707,0,0,0,0,2.919,1.087,9.608,0.361,0.399,-0.216,0.836,-5.667,8.653,-0.812,0.167,-0.218,sad
6.90,0,0,0,0,208,0,3055,3967,2862,0,3258,3670,0,0,0,0,2.804,1.346,9.570,0.351,0.415,-0.196,0.888,-5.353,8.420,-0.805,0.159,-0.187,sad
6.91,0,0,0,0,263,0,3104,3963,2838,0,3191,3639,0,0,0,45,2.799,1.120,9.333,0.345,0.386,-0.185,1.132,-5.720,8.341,-0.756,0.196,-0.151,sad
6.92,0,0,0,0,322,0,3154,3970,2812,0,3171,3638,0,0,0,41,2.612,0.776,9.007,0.415,0.401,-0.175,0.970,-5.722,8.224,-0.707,0.214,-0.125,sad
6.93,0,0,0,0,390,0,3198,4021,2795,0,3155,3597,0,0,0,0,2.480,0.702,8.569,0.491,0.466,-0.206,0.905,-5.581,8.207,-0.720,0.218,-0.112,sad
6.94,0,0,0,0,400,0,3214,3980,2823,0,3099,3561,0,0,0,1,2.629,1.930,10.942,0.557,0.376,-0.224,0.934,-5.837,8.028,-0.730,0.187,-0.090,sad
6.95,0,0,0,0,433,0,3248,3985,2731,6,3091,3515,0,0,0,0,2.849,2.078,10.123,0.354,0.427,-0.180,0.725,-6.120,8.042,-0.679,0.161,-0.055,sad
6.96,0,0,0,0,545,0,3275,3981,2771,27,2986,3493,0,0,0,0,2.533,0.915,8.588,0.390,0.475,-0.171,0.649,-6.160,8.011,-0.612,0.096,0.010,sad
6.97,0,0,0,0,696,0,3315,3984,2794,117,2920,3517,7,0,0,0,2.717,1.836,9.725,0.327,0.818,-0.205,0.656,-6.026,8.092,-0.555,0.062,0.042,sad
6.98,0,0,0,0,941,0,3335,3984,2840,140,2874,3463,51,0,0,46,1.824,1.542,9.670,0.282,0.668,-0.181,0.761,-6.012,8.025,-0.506,0.037,0.076,sad
6.99,0,0,0,0,1088,0,3366,3982,2828,231,2648,3443,0,0,0,0,1.669,2.002,11.327,0.437,0.274,-0.220,0.587,-5.940,7.915,-0.523,0.058,0.057,sad
7.00,0,0,0,0,1237,0,3395,3977,2772,300,2615,3421,0,0,20,0,2.014,2.083,9.895,0.297,0.121,-0.135,0.730,-6.170,7.937,-0.607,0.095,-0.030,sad
7.01,0,0,0,0,1163,0,3431,3982,2783,461,2454,3349,0,0,0,0,1.870,1.920,10.151,0.247,0.225,-0.165,0.891,-6.105,7.882,-0.563,0.069,0.023,sad
7.02,0,0,0,0,1167,0,3445,3984,2685,502,2344,3279,0,0,6,0,2.488,2.093,9.972,0.165,0.340,-0.143,0.996,-6.476,7.786,-0.567,0.049,0.050,sad
7.03,0,0,0,0,1250,0,3467,3984,2637,823,2285,3220,0,0,0,0,1.836,2.411,10.266,0.063,0.203,-0.056,1.051,-6.421,7.867,-0.616,0.018,0.097,sad
7.04,0,0,0,0,1459,0,3498,3983,2531,763,1553,3175,0,0,0,0,1.908,1.539,9.723,0.076,0.193,-0.034,0.986,-6.440,8.126,-0.603,0.023,0.192,sad
7.05,0,0,0,0,1557,0,3504,3984,2459,829,1077,3087,0,0,0,0,1.930,1.860,9.821,0.096,0.172,-0.023,0.814,-6.493,8.066,-0.672,-0.051,0.288,sad
7.06,0,0,0,0,1616,0,3525,3981,2303,843,217,2953,0,3,0,0,2.006,1.616,9.311,0.063,0.213,-0.026,0.663,-6.495,8.056,-0.724,-0.115,0.317,sad
7.07,0,39,0,0,1554,0,3536,3991,2057,844,227,2743,0,0,0,0,1.915,1.721,9.359,0.089,0.292,-0.055,1.020,-6.902,8.131,-0.714,-0.136,0.425,sad
7.08,0,256,0,0,1635,0,3557,3984,1945,821,63,2405,0,0,0,0,1.597,1.903,10.238,0.107,0.226,-0.044,0.524,-7.350,8.633,-0.779,-0.257,0.540,sad
7.09,0,369,0,0,1751,0,3583,3979,1715,759,56,1261,0,0,0,0,1.827,1.695,9.778,0.098,0.191,-0.031,0.879,-7.336,7.791,-0.898,-0.548,0.783,sad
7.10,0,449,80,0,1803,0,3600,3985,1421,426,56,1017,0,0,1,0,1.856,1.623,9.558,0.109,0.222,-0.040,0.464,-7.017,8.231,-0.958,-0.714,0.886,sad
7.11,0,675,223,0,1921,0,3609,3999,1033,200,56,570,0,0,0,0,1.930,1.724,9.337,0.126,0.462,-0.067,0.620,-7.527,8.528,-1.141,-0.894,0.911,sad
7.12,0,858,511,0,1975,0,3623,3938,507,18,56,205,0,0,0,0,1.568,1.769,9.867,0.081,0.378,-0.033,0.656,-8.514,7.156,-1.274,-0.912,0.922,sad
7.13,0,972,723,0,2045,0,3619,3990,309,12,0,18,4,0,0,0,1.573,1.674,9.596,0.126,0.388,-0.045,0.747,-7.889,7.295,-1.318,-0.862,0.953,sad
7.14,0,1080,977,0,2078,0,3618,3991,244,0,30,0,0,0,26,0,1.712,1.681,9.515,0.161,0.461,-0.069,1.099,-8.236,7.444,-1.291,-0.828,0.975,sad
7.15,0,1209,1411,0,2153,13,3616,3980,1,0,51,0,0,0,0,0,1.583,1.554,9.553,0.235,0.597,-0.097,1.010,-8.961,8.466,-0.984,-0.562,1.047,sad
7.16,0,1295,1878,58,2165,6,3614,3979,1,0,179,0,0,0,0,0,1.666,1.966,9.572,0.265,0.702,-0.118,1.113,-8.373,7.822,-0.613,-0.329,1.132,sad
7.17,80,1410,2195,422,2145,225,3582,3958,0,0,48,0,0,0,0,0,1.022,1.729,9.898,0.253,0.567,-0.191,0.804,-7.142,7.719,-0.314,-0.086,1.219,sad
7.18,446,1464,2497,1064,2130,465,3561,3951,0,0,48,0,0,0,0,0,1.130,1.686,9.823,0.216,0.474,-0.304,-0.060,-4.245,9.941,0.665,0.113,1.672,sad
7.19,913,1497,2650,1393,2000,877,3514,3941,0,0,46,0,0,42,0,0,1.123,2.215,10.063,0.329,0.354,-0.315,-1.427,-7.542,9.744,0.929,0.120,1.590,sad
7.20,1402,1408,2694,1675,1776,1350,3441,3930,0,0,33,0,0,0,0,0,0.929,2.198,9.756,0.248,0.282,-0.274,0.723,-3.591,7.848,1.150,-0.090,1.484,sad
7.21,1671,1255,2709,1961,1607,1392,3383,3925,0,0,120,0,0,0,0,0,0.625,2.313,9.718,0.139,0.201,-0.154,1.882,-3.915,8.267,1.375,0.007,1.122,sad
7.22,1869,1111,2704,2144,1503,1659,3358,3935,0,0,28,0,4,0,0,0,0.776,2.241,9.819,0.142,0.094,-0.082,2.476,-3.919,7.506,1.409,0.041,0.871,sad
7.23,2025,1142,2767,2233,1450,1724,3354,3917,0,5,25,0,0,0,0,117,0.804,2.272,9.701,0.085,0.072,-0.056,2.698,-4.324,8.566,1.535,0.049,0.198,sad
7.24,2097,1172,2826,2338,1631,1783,3363,3968,0,0,23,0,0,0,0,0,0.850,2.253,9.723,0.110,0.040,-0.032,1.322,-4.233,8.210,1.673,-0.017,-0.442,sad
7.25,2167,1296,2870,2427,1744,1840,3375,3905,0,0,0,0,0,55,0,0,0.792,2.126,9.764,0.101,0.016,-0.015,0.378,-4.075,8.866,1.697,-0.007,-0.553,sad
7.26,2225,1387,2926,2496,1759,1801,3387,3893,0,0,25,0,0,0,0,0,0.881,2.274,9.718,0.097,0.011,-0.009,-0.783,-4.578,10.209,1.899,-0.163,-0.511,sad
7.27,2289,1495,2980,2542,1916,1943,3394,3882,53,0,17,0,0,0,0,0,0.869,2.267,9.665,0.069,0.023,-0.012,-0.651,-4.310,8.849,1.968,-0.143,-0.309,sad
7.28,2348,1584,3051,2591,1994,1983,3396,3878,0,0,25,0,0,0,0,37,0.836,2.241,9.732,0.068,0.015,-0.007,-0.153,-4.458,9.280,1.942,-0.107,-0.221,sad
7.29,2391,1728,3141,2640,2081,2046,3408,3859,0,0,28,0,0,0,0,0,0.869,2.179,9.697,0.086,-0.015,0.004,0.603,-4.915,10.192,2.021,-0.143,-0.232,sad
7.30,2431,1852,3219,2678,2213,1971,3419,3824,0,0,222,0,0,0,0,0,0.903,2.239,9.795,0.095,-0.034,0.014,1.255,-4.563,9.017,1.825,-0.167,-0.408,sad
7.31,2467,1946,3280,2719,2182,1969,3429,3821,0,59,28,0,0,0,0,0,0.958,2.294,9.768,0.095,-0.006,0.001,1.530,-4.669,9.459,1.702,-0.176,-0.525,sad
7.32,2526,2074,3334,2766,2288,1940,3422,3793,0,0,10,0,0,0,0,0,0.907,2.296,9.766,0.084,0.008,-0.011,1.398,-4.767,10.156,1.555,-0.310,-0.848,sad
7.33,2593,2167,3381,2809,2351,1813,3408,3761,0,0,25,39,0,0,0,0,0.836,2.258,9.723,0.098,0.008,-0.009,1.123,-4.796,10.463,1.427,-0.358,-1.028,sad
7.34,2647,2239,3423,2872,2438,1807,3386,3738,0,0,28,0,0,0,0,0,0.883,2.301,9.720,0.099,0.000,-0.002,0.654,-4.606,10.379,1.430,-0.300,-1.009,sad
7.35,2703,2341,3472,2910,2493,1799,3380,3712,10,0,102,0,0,0,0,0,0.895,2.308,9.675,0.076,0.001,-0.011,0.512,-4.013,9.644,1.324,-0.271,-0.803,sad
7.36,2753,2427,3522,2939,2559,1727,3358,3660,0,0,0,0,0,0,0,0,0.915,2.334,9.716,0.089,-0.015,-0.004,0.560,-3.996,10.750,1.194,-0.330,-0.537,sad
7.37,2799,2480,3554,2959,2651,1689,3316,3600,0,0,28,0,0,0,0,0,0.931,2.339,9.773,0.093,-0.007,-0.000,0.654,-4.022,11.394,1.262,-0.433,-0.440,sad
7.38,2848,2521,3606,2993,2688,1379,3280,3533,0,0,33,0,0,0,0,0,1.006,2.325,9.692,0.105,-0.001,-0.002,1.173,-3.340,9.713,1.199,-0.486,-0.380,sad
7.39,2886,2545,3642,3022,2726,1276,3235,3478,0,0,40,0,0,0,0,0,0.948,2.421,9.730,0.093,0.011,-0.006,1.585,-3.589,10.671,1.139,-0.350,-0.441,sad
7.40,2950,2596,3665,3097,2752,1308,3184,3430,0,0,25,19,0,0,0,0,0.936,2.394,9.665,0.071,0.021,-0.011,1.274,-3.579,9.953,1.059,-0.328,-0.514,sad
7.41,2982,2657,3690,3135,2799,1279,3119,3365,0,1,25,28,0,55,0,29,0.984,2.361,9.685,0.085,0.021,-0.005,1.154,-3.460,9.026,0.648,-0.508,-0.649,sad
7.42,3026,2704,3728,3157,2817,1199,3053,3307,0,0,0,0,0,0,63,0,0.895,2.394,9.716,0.086,0.026,-0.011,1.348,-4.099,10.829,0.518,-0.909,-0.802,sad
7.43,3070,2741,3728,3171,2850,937,2983,3201,0,0,63,0,0,0,7,0,0.905,2.425,9.720,0.079,0.019,-0.007,1.829,-3.436,9.603,0.474,-1.010,-0.907,sad
7.44,3107,2781,3759,3221,2878,818,2896,3054,0,0,28,0,0,0,0,11,0.986,2.464,9.728,0.095,0.016,0.002,2.907,-4.578,10.554,0.616,-0.423,-1.050,sad
7.45,3138,2832,3774,3241,2882,663,2765,2873,0,0,28,0,0,0,0,0,0.962,2.425,9.668,0.082,0.035,-0.005,0.124,-3.699,8.540,0.609,-0.041,-1.144,sad
7.46,3152,2869,3792,3302,2879,560,2636,2672,0,0,30,0,0,0,0,0,0.958,2.456,9.627,0.067,0.041,-0.013,-0.871,-3.955,8.341,0.393,-0.400,-1.047,sad
7.47,3166,2883,3801,3335,2877,449,2530,2455,1,0,181,0,0,0,0,0,0.943,2.409,9.701,0.062,0.035,-0.005,-0.845,-4.132,8.928,0.354,-0.460,-0.663,sad
7.48,3183,2912,3809,3357,2867,261,2411,2191,0,0,28,0,0,0,0,0,0.895,2.387,9.761,0.066,0.045,-0.015,-0.788,-3.955,8.677,0.364,-0.402,-0.241,sad
7.49,3179,2939,3824,3393,2832,237,2315,1939,0,0,25,0,0,0,0,0,0.831,2.466,9.685,0.047,0.048,-0.019,-0.299,-3.840,7.807,0.283,-0.416,-0.115,sad
7.50,3197,2935,3827,3419,2816,225,2266,1690,0,0,25,0,0,0,0,0,0.927,2.442,9.627,0.041,0.045,-0.017,1.437,-4.080,7.465,-0.002,-0.180,-0.160,sad
7.51,3198,2943,3847,3436,2751,258,2160,1603,0,0,17,0,0,0,0,0,0.905,2.459,9.711,0.044,0.049,-0.018,1.803,-3.766,7.750,-0.273,0.048,-0.482,sad
7.52,3194,2919,3850,3462,2719,272,2039,1350,0,0,28,0,0,0,0,0,0.919,2.330,9.665,0.069,0.049,-0.015,1.583,-3.948,8.009,-0.382,0.100,-0.670,sad
7.53,3224,2945,3857,3481,2613,112,1842,1046,0,0,28,0,0,0,0,0,0.984,2.478,9.732,0.084,0.052,-0.004,0.247,1.836,11.653,-0.785,0.413,-1.014,sad
7.54,3203,2827,3873,3503,2288,0,1535,646,0,0,28,0,0,0,0,0,0.946,2.456,9.716,0.114,0.080,0.002,-1.209,-0.429,11.250,-0.514,0.644,-0.412,sad
7.55,3204,2791,3881,3533,1938,0,1190,0,0,0,0,0,0,0,0,0,0.974,2.382,9.644,0.125,0.101,0.010,-2.061,0.371,11.104,-0.488,0.592,-0.128,sad
7.56,3204,2752,3882,3546,1815,0,939,0,0,0,25,0,0,0,0,0,0.998,2.358,9.668,0.193,0.111,0.022,-2.128,1.053,10.013,-0.669,0.390,0.126,sad
7.57,3216,2711,3887,3562,1677,0,679,0,0,0,28,0,0,0,0,686,0.970,2.500,9.634,0.259,0.124,0.042,-0.895,0.642,10.427,-0.937,0.096,0.299,sad
7.58,3212,2685,3889,3582,1441,0,533,0,0,0,28,0,0,0,0,1703,0.800,2.289,9.699,0.331,0.146,0.049,0.563,-1.434,10.934,-1.054,-0.343,0.178,sad
7.59,3236,2649,3895,3613,1282,0,5,0,0,0,23,0,0,0,0,2717,0.855,2.456,9.716,0.412,0.123,0.071,1.980,-1.597,10.805,-0.854,-0.489,0.084,sad
7.60,3237,2609,3905,3627,1258,0,0,0,0,0,17,0,0,0,0,2983,1.118,2.559,9.354,0.451,0.086,0.071,2.004,-1.142,9.967,-0.836,-0.430,0.127,sad
7.61,3269,2640,3904,3645,1059,0,0,0,0,25,12,0,0,0,521,3151,0.917,2.758,9.388,0.487,0.064,0.084,2.756,-1.645,10.214,-0.757,-0.305,0.193,sad
7.62,3301,2601,3915,3656,976,0,0,0,0,0,28,0,0,0,1403,3381,0.417,3.359,9.397,0.573,-0.011,0.075,2.480,-1.925,10.293,-0.621,-0.159,0.185,sad
7.63,3318,2512,3971,3671,528,0,0,0,0,0,10,0,0,0,1527,3467,0.627,2.715,9.483,0.661,-0.006,0.145,2.832,-1.808,9.546,-0.569,-0.031,0.197,sad
7.64,3401,2583,3919,3667,250,0,0,0,0,0,12,0,0,0,1611,3608,0.728,2.966,9.488,0.743,-0.005,0.173,2.095,-1.800,9.833,-0.504,0.154,0.260,sad
7.65,3408,2611,3913,3654,142,0,0,0,0,0,7,0,0,0,1644,3687,0.761,3.100,9.555,0.765,0.010,0.197,1.769,-2.002,9.876,-0.479,0.208,0.273,sad
7.66,3442,2641,3906,3637,74,0,0,0,0,0,10,0,0,0,1736,3675,0.795,2.990,9.366,0.780,-0.015,0.228,1.745,-1.705,9.613,-0.514,0.198,0.263,sad
7.67,3473,2657,3905,3622,16,0,0,0,0,0,10,0,0,0,1912,3721,1.085,3.512,9.565,0.783,0.021,0.236,1.559,-1.978,10.259,-0.515,0.056,0.267,sad
7.68,3484,2597,3904,3600,0,0,0,0,0,8,10,0,0,0,1900,3749,1.044,3.546,9.524,0.760,0.082,0.227,1.458,-3.347,13.618,-0.293,0.512,0.289,sad
7.69,3510,2627,3893,3563,0,0,0,0,0,0,20,0,0,0,1991,3775,0.960,3.598,9.242,0.779,0.079,0.184,2.284,-1.923,9.697,-0.245,0.171,0.115,sad
7.70,3519,2606,3888,3546,0,0,0,0,2,0,79,8,0,0,2116,3749,1.087,3.668,9.306,0.787,0.155,0.185,0.553,-1.501,10.127,-0.324,0.177,0.232,sad
7.71,3527,2599,3882,3497,0,0,0,0,0,0,46,0,0,11,2125,3821,1.006,3.824,9.373,0.773,0.191,0.167,1.561,-2.538,10.108,-0.202,0.128,0.077,sad
7.72,3538,2496,3876,3447,0,0,0,0,0,0,28,0,0,0,2315,3847,1.056,3.843,9.392,0.812,0.202,0.190,1.951,-2.131,9.811,-0.159,0.235,0.175,sad
7.73,3540,2454,3856,3411,0,0,0,0,0,0,25,0,0,0,2489,3884,0.946,3.986,9.146,0.825,0.223,0.180,1.743,-2.411,9.986,-0.100,0.216,0.173,sad
7.74,3552,2482,3846,3392,0,0,0,0,0,0,33,0,0,0,2489,3877,0.713,3.907,9.187,0.839,0.220,0.185,1.779,-2.210,9.510,-0.114,0.277,0.210,sad
7.75,3554,2483,3826,3373,0,0,0,0,12,0,28,0,0,0,2536,3894,0.898,4.068,9.064,0.842,0.277,0.196,1.690,-2.191,9.469,-0.096,0.315,0.247,sad
7.76,3565,2544,3806,3379,0,0,0,0,0,0,10,0,0,11,2620,3911,0.778,4.515,9.096,0.821,0.310,0.198,1.470,-2.107,9.754,-0.093,0.370,0.234,sad
7.77,3563,2559,3783,3363,0,0,0,0,0,5,25,0,43,0,2700,3923,0.630,4.348,8.928,0.901,0.310,0.230,0.898,-2.308,10.695,-0.130,0.238,0.232,sad
7.78,3574,2543,3762,3344,0,0,0,0,11,0,30,56,45,0,2761,3935,0.876,4.520,9.045,0.842,0.431,0.220,1.415,-2.258,9.819,-0.035,0.196,0.154,sad
7.79,3583,2468,3725,3348,0,0,0,0,0,0,33,0,0,0,2844,3949,0.948,4.626,8.868,0.920,0.417,0.235,1.420,-2.253,9.826,-0.087,0.161,0.159,sad
7.80,3571,2461,3661,3351,0,0,0,0,0,10,28,0,47,0,2904,3967,0.900,4.800,9.072,0.935,0.450,0.214,1.671,-2.193,9.529,-0.047,0.180,0.166,sad
7.81,3555,2292,3575,3364,0,0,0,0,0,0,33,0,28,0,2933,3930,0.898,4.963,8.945,0.949,0.552,0.194,1.393,-2.705,10.187,-0.036,0.097,0.127,sad
7.82,3539,2175,3436,3323,0,0,0,0,9,0,28,53,59,0,2981,3993,0.742,5.011,8.909,0.941,0.558,0.175,1.235,-2.543,10.036,0.008,0.051,0.103,sad
7.83,3505,2002,3291,3337,0,0,0,0,0,0,43,0,57,0,3052,3992,0.694,5.013,8.523,1.005,0.531,0.171,1.391,-2.401,9.850,0.019,0.060,0.081,sad
7.84,3473,1840,3258,3313,0,0,0,0,0,0,46,0,47,2,3126,3993,0.534,5.195,8.241,0.941,0.525,0.111,1.410,-2.303,9.732,-0.001,0.068,0.082,sad
7.85,3408,1613,3232,3315,0,0,0,0,0,0,48,0,43,0,3207,4011,0.453,5.265,8.150,0.958,0.516,0.088,1.396,-2.234,9.799,-0.009,0.070,0.091,sad
7.86,3361,1450,3195,3294,0,0,0,0,0,4,186,0,59,0,3227,4015,0.244,5.456,8.250,0.975,0.480,0.032,1.410,-2.399,9.898,0.011,0.084,0.087,sad
7.87,3328,1360,3125,3277,0,0,0,0,0,0,48,0,83,0,3282,4023,0.213,5.528,8.315,0.944,0.490,-0.002,1.350,-2.421,9.737,-0.016,0.057,0.086,sad
7.88,3299,1215,3059,3248,0,0,0,0,0,0,48,1,75,0,3311,4024,-0.091,5.567,8.373,0.958,0.439,-0.090,1.274,-2.397,9.878,-0.003,0.068,0.062,sad
7.89,3296,1057,2976,3199,0,0,0,0,0,0,28,0,97,0,3365,4040,0.060,5.686,8.068,0.945,0.420,-0.183,1.355,-2.416,9.799,0.024,0.051,0.043,sad
7.90,3280,1020,2896,3137,0,0,0,0,0,0,46,0,106,0,3401,4020,-0.089,5.567,8.025,0.969,0.301,-0.251,1.401,-2.298,9.720,0.035,0.055,0.035,sad
7.91,3241,859,2827,3056,0,0,0,0,0,0,48,0,133,0,3435,4056,0.000,5.804,8.234,1.042,0.237,-0.277,1.379,-2.358,9.792,0.028,0.053,0.036,sad
7.92,3184,471,2711,2969,0,0,0,0,0,0,115,0,89,0,3462,4062,-0.443,5.667,7.554,1.053,0.158,-0.301,1.415,-2.380,9.797,0.014,0.052,0.041,sad
7.93,3067,418,2614,2865,0,0,0,0,0,0,23,35,115,0,3498,4067,-0.117,6.196,7.898,1.101,-0.048,-0.329,1.312,-2.263,9.732,0.004,0.067,0.059,sad
7.94,2963,318,2378,2687,0,0,0,0,0,37,63,0,75,0,3471,4073,-0.127,6.493,8.384,1.100,-0.245,-0.590,1.269,-2.330,9.845,0.021,0.066,0.052,sad
7.95,2878,256,2191,2559,0,0,0,0,0,91,404,77,103,0,3592,4085,-0.752,6.565,8.698,1.043,-0.582,-0.866,1.267,-2.365,9.771,0.030,0.049,0.042,sad
7.96,2694,0,1743,2155,0,0,0,0,0,127,481,0,147,0,3613,4089,-0.448,6.759,9.256,1.073,-1.279,-1.051,1.314,-2.327,9.713,0.026,0.046,0.031,sad
7.97,2384,0,1168,1336,0,0,0,0,0,117,836,283,77,4,3674,4095,0.263,7.120,8.574,1.252,-1.125,-1.138,1.334,-2.303,9.675,0.016,0.068,0.051,sad
7.98,1734,0,129,494,0,0,0,0,5,159,1712,569,100,4,3693,4051,0.314,7.566,8.775,1.470,-1.198,-1.190,1.319,-2.251,9.766,0.010,0.067,0.063,sad
7.99,730,0,0,0,0,0,0,0,5,183,2044,627,201,5,3693,4095,0.036,7.913,8.392,1.547,-1.164,-1.174,1.123,-2.270,9.776,0.002,0.066,0.056,sad
8.00,336,0,0,0,0,0,0,0,0,171,2352,805,215,4,3721,4095,0.687,6.572,11.770,1.061,-1.027,-1.209,1.312,-2.289,9.701,-0.002,0.076,0.063,sad
8.01,0,0,0,0,0,0,0,0,5,237,2531,738,317,5,3741,4095,0.304,4.135,10.573,0.407,-0.624,-1.370,1.259,-2.365,9.768,0.016,0.091,0.072,sad
8.02,0,0,0,0,0,0,0,0,5,509,2648,955,392,7,3749,4095,0.146,3.333,9.017,-0.165,-0.095,-1.460,1.286,-2.337,9.799,0.014,0.101,0.067,sad
8.03,0,0,0,0,0,0,0,0,5,599,2725,989,313,4,3763,4095,-1.211,2.370,9.005,-0.238,0.088,-1.640,1.140,-2.344,9.828,0.017,0.097,0.074,sad
8.04,0,0,0,0,0,0,0,0,4,773,2766,1125,357,7,3818,4095,-0.905,3.857,11.169,-0.605,-0.382,-1.336,1.207,-2.303,9.658,0.001,0.086,0.076,sad
8.05,0,0,0,0,0,0,0,0,11,824,2794,1192,413,5,3794,4095,0.108,3.349,8.784,-0.931,-0.449,-1.416,1.207,-2.277,9.754,0.009,0.083,0.080,sad
8.06,0,0,0,0,0,0,0,0,0,947,2835,1332,458,7,3849,4095,0.845,3.330,7.609,-1.050,-0.215,-1.359,1.152,-2.308,9.799,0.007,0.087,0.083,sad
8.07,0,0,0,0,0,0,0,0,5,1016,2853,1507,535,9,3672,4089,1.037,3.680,7.796,-1.113,-0.141,-1.232,1.243,-2.397,9.790,-0.003,0.092,0.087,sad
8.08,0,0,0,0,0,0,0,0,0,1001,2899,1626,572,6,3812,4077,1.592,3.824,8.198,-1.213,-0.187,-0.986,1.180,-2.346,9.831,-0.022,0.072,0.072,sad
8.09,0,0,0,0,0,0,0,0,5,957,2894,1848,657,6,3763,4055,2.320,3.783,7.731,-1.299,-0.170,-0.660,1.135,-2.387,9.857,-0.010,0.085,0.069,sad
8.10,0,0,0,0,0,0,0,0,3,1095,3089,1883,728,4,3797,4057,2.052,3.496,7.168,-1.293,-0.108,-0.326,1.135,-2.344,9.701,-0.010,0.076,0.080,sad
8.11,0,0,0,0,0,0,0,0,5,1129,3048,1989,937,4,3833,4044,1.422,3.584,7.865,-1.268,-0.148,-0.008,1.058,-2.282,9.807,-0.024,0.072,0.080,sad
8.12,0,0,0,0,0,0,0,0,7,1165,3104,2043,1019,9,3835,4029,1.082,3.721,8.516,-1.305,-0.216,0.248,1.099,-2.373,9.816,-0.023,0.067,0.082,sad
8.13,0,0,0,0,0,0,0,0,5,1223,2935,2143,1094,6,3846,3939,0.625,3.639,8.851,-1.395,-0.234,0.405,1.135,-2.416,9.814,-0.019,0.054,0.074,sad
8.14,0,0,0,0,0,0,0,0,6,1221,2966,2262,1259,6,3850,3999,0.204,3.476,8.914,-1.473,-0.220,0.467,1.111,-2.320,9.833,-0.026,0.062,0.071,sad
8.15,0,0,0,0,0,0,0,0,4,1309,3017,2340,1247,23,3851,4095,-0.330,3.560,9.392,-1.549,-0.257,0.436,1.116,-2.294,9.740,-0.039,0.062,0.080,sad
8.16,0,0,0,0,0,0,0,0,19,1293,3027,2441,1406,3,3821,3955,-0.261,3.747,9.301,-1.616,-0.335,0.370,1.030,-2.401,9.874,-0.035,0.056,0.073,sad
8.17,0,0,0,0,0,0,0,0,19,1364,3058,2489,1498,9,3855,3939,-0.060,3.845,9.596,-1.650,-0.411,0.302,1.058,-2.382,9.826,-0.029,0.054,0.068,sad
8.18,0,0,0,0,0,0,0,0,7,1373,3127,2567,1647,7,3863,3960,0.560,4.128,9.558,-1.702,-0.426,0.298,1.075,-2.416,9.819,-0.029,0.055,0.062,sad
8.19,0,0,0,0,0,0,0,0,9,1373,3165,2635,1725,0,3860,3868,0.871,4.336,9.910,-1.726,-0.411,0.330,1.075,-2.375,9.776,-0.032,0.058,0.058,sad
8.20,0,0,0,0,0,0,0,0,22,1403,3176,2645,1742,10,3858,3819,1.039,4.422,9.934,-1.769,-0.430,0.393,1.080,-2.342,9.732,-0.042,0.062,0.067,sad
8.21,0,0,0,0,0,0,0,0,30,1317,3201,2675,1822,11,3862,3765,1.267,4.465,9.969,-1.755,-0.462,0.497,1.140,-2.437,9.804,-0.056,0.044,0.065,sad
8.22,0,0,0,0,0,0,0,0,43,1403,3204,2743,1939,14,3879,3703,1.640,4.563,10.032,-1.728,-0.457,0.599,1.049,-2.454,9.814,-0.037,0.052,0.065,sad
8.23,0,0,0,0,0,0,0,0,71,1580,3222,2807,1973,22,3854,3629,2.090,4.671,10.362,-1.696,-0.438,0.815,1.053,-2.523,9.780,-0.027,0.063,0.057,sad
8.24,0,0,0,0,0,0,0,0,165,1610,3247,2901,2044,46,3803,3647,2.411,4.403,10.118,-1.611,-0.405,1.094,1.061,-2.444,9.756,-0.039,0.057,0.062,sad
8.25,0,0,0,0,0,0,0,0,227,1685,3263,2950,2069,46,3852,3629,2.255,4.530,10.367,-1.514,-0.417,1.373,1.037,-2.454,9.759,-0.033,0.060,0.063,sad
8.26,0,0,0,0,0,0,0,0,377,1660,3288,3028,2231,51,3846,3631,1.417,4.446,10.702,-1.441,-0.427,1.466,1.046,-2.442,9.764,-0.036,0.060,0.046,sad
8.27,0,0,0,0,0,0,0,0,379,1833,3293,3118,2283,17,3826,3499,0.536,4.116,10.422,-1.403,-0.355,1.343,0.996,-2.485,9.787,-0.052,0.050,0.043,sad
8.28,0,0,0,0,0,0,0,0,531,1878,3301,3131,2330,55,3813,3571,-0.263,4.104,10.997,-1.390,-0.376,1.012,0.962,-2.514,9.771,-0.060,0.047,0.042,sad
8.29,0,0,0,0,0,0,0,0,581,1939,3247,3196,2429,55,3788,3561,-0.136,3.692,10.257,-1.408,-0.316,0.601,1.018,-2.516,9.821,-0.055,0.051,0.042,sad
8.30,0,0,0,0,0,0,0,0,473,1974,3322,3257,2461,31,3759,3545,0.223,3.606,10.434,-1.336,-0.344,0.216,0.974,-2.591,9.802,-0.064,0.053,0.039,sad
8.31,0,0,0,0,0,0,0,0,519,1997,3314,3289,2460,53,3751,3547,0.766,3.237,9.833,-1.246,-0.339,-0.020,0.974,-2.562,9.831,-0.050,0.052,0.035,sad
8.32,0,0,0,0,0,0,0,0,623,2071,3329,3360,2444,53,3687,3543,1.432,3.259,9.582,-1.090,-0.256,0.012,0.972,-2.598,9.773,-0.052,0.049,0.033,sad
8.33,0,0,0,0,0,0,0,0,628,2125,3329,3380,2325,57,3657,3559,1.650,3.496,10.063,-0.888,-0.188,0.154,0.979,-2.567,9.708,-0.051,0.077,0.035,sad
8.34,0,0,0,0,0,0,0,0,727,2105,3421,3404,2309,53,3595,3563,1.765,4.041,10.987,-0.930,-0.351,0.387,0.939,-2.588,9.804,-0.067,0.058,0.030,sad
8.35,0,0,0,0,0,0,0,0,718,2158,3339,3439,2295,0,3500,3561,1.367,3.440,8.672,-0.889,-0.349,0.537,0.915,-2.607,9.687,-0.051,0.047,0.026,sad
8.36,0,0,0,0,0,0,0,0,805,2142,3345,3468,2303,51,3416,3561,0.783,3.426,8.286,-0.684,-0.402,0.544,0.907,-2.552,9.785,-0.066,0.056,0.025,sad
8.37,0,0,0,0,0,0,0,0,863,2079,3350,3512,2323,59,3253,3463,0.077,3.982,9.409,-0.470,-0.507,0.471,0.946,-2.650,9.728,-0.046,0.049,0.014,sad
8.38,0,0,0,0,0,0,0,0,1063,2106,3365,3527,2331,53,3159,3419,-0.766,4.132,8.720,-0.589,-0.385,0.276,0.704,-2.622,9.878,0.050,0.026,-0.014,sad
8.39,0,0,0,0,0,0,0,0,1247,2189,3357,3576,2359,51,3113,3343,-1.422,3.632,7.118,-0.283,-0.328,-0.078,0.917,-2.614,9.795,-0.041,0.048,0.022,sad
8.40,0,0,0,0,0,0,0,0,1363,2213,3375,3657,2386,52,3077,3259,-0.587,4.322,8.605,-0.050,-0.510,-0.351,0.857,-2.490,9.943,-0.010,0.036,0.009,sad
8.41,0,0,0,0,0,0,0,0,1423,2264,3370,3681,2407,47,3012,3195,2.251,5.449,4.848,0.763,-0.358,-0.084,0.855,-2.619,9.780,-0.049,0.052,0.016,sad
8.42,0,0,0,0,0,0,0,0,1581,2349,3388,3737,2469,48,2936,3060,0.469,4.460,7.903,0.651,0.656,0.025,0.917,-2.643,9.783,-0.048,0.040,0.010,sad
8.43,0,0,0,0,0,0,0,0,1780,2345,3411,3775,2415,53,2943,2955,4.259,0.443,13.867,0.362,0.710,0.293,1.046,-2.892,9.486,-0.027,0.033,0.015,sad
8.44,0,0,0,0,0,0,0,0,1789,2346,3457,3789,2425,53,2763,2695,0.711,-2.282,6.713,0.866,0.184,0.370,0.946,-2.650,9.495,-0.121,0.048,0.008,sad
8.45,0,0,0,0,0,0,0,1346,1895,2339,3488,3835,2311,52,2615,2520,-1.810,0.127,11.969,0.851,0.060,0.050,0.903,-2.614,9.665,-0.140,0.047,0.003,sad
8.46,0,0,0,0,0,0,0,2275,2072,2463,3529,3859,2023,61,2251,1627,-0.297,-0.718,9.414,0.980,0.098,-0.293,0.893,-2.794,9.692,-0.146,0.040,-0.002,sad
8.47,0,0,0,0,0,0,3,2706,2227,2531,3570,3863,1532,51,1775,723,2.772,1.434,11.442,1.148,-0.126,-0.324,0.943,-2.820,9.787,-0.136,0.050,0.002,sad
8.48,0,0,0,0,0,0,459,2993,2295,2569,3570,3913,1260,51,1566,415,2.351,1.786,10.704,0.751,-0.128,-0.149,0.919,-2.203,9.716,-0.170,0.028,-0.021,sad
8.49,0,0,0,0,0,0,711,3170,2431,2600,3578,3933,371,5,607,1,3.045,1.300,9.421,0.733,0.120,-0.205,0.970,-2.952,9.819,-0.358,0.033,-0.068,sad
8.50,0,0,0,0,0,0,881,3259,2469,2661,3580,3931,187,4,231,2,1.939,1.973,11.186,0.651,0.174,-0.202,0.929,-3.608,9.725,-0.521,0.070,-0.156,sad
8.51,0,0,0,0,0,0,1065,3347,2557,2667,3580,4095,75,3,27,0,1.824,1.508,10.068,0.488,0.161,-0.209,0.699,-3.203,9.462,-0.532,0.045,-0.150,sad
8.52,0,0,0,0,0,0,1274,3408,2669,2682,3575,3944,39,0,1,0,1.949,1.585,9.922,0.450,0.200,-0.182,0.929,-3.206,9.608,-0.556,0.012,-0.175,sad
8.53,0,0,0,0,0,0,1402,3443,2719,2660,3575,3939,35,1,0,0,1.305,1.561,10.185,0.440,0.168,-0.181,1.053,-3.218,9.486,-0.559,-0.018,-0.184,sad
8.54,0,0,0,0,0,0,1627,3499,2737,2615,3570,3959,0,107,0,79,1.638,1.410,9.517,0.446,0.107,-0.173,1.132,-3.563,9.440,-0.590,-0.059,-0.200,sad
8.55,0,0,0,0,0,0,1849,3562,2759,2567,3531,3928,18,0,1,0,1.578,1.448,9.491,0.489,0.113,-0.150,1.171,-3.220,9.629,-0.517,-0.049,-0.157,sad
8.56,0,0,0,0,0,0,2027,3583,2743,2463,3503,3917,11,0,0,0,1.384,1.832,10.372,0.483,0.060,-0.185,1.022,-3.491,9.292,-0.569,-0.051,-0.184,sad
8.57,0,0,0,0,10,0,2235,3646,2808,2293,3529,3894,5,0,0,0,1.896,2.095,10.015,0.416,-0.025,-0.169,1.123,-3.864,9.287,-0.537,-0.039,-0.163,sad
8.58,0,0,0,0,112,0,2493,3688,2845,2078,3462,3753,1,0,16,0,1.769,3.256,10.302,0.127,-0.048,-0.043,1.125,-3.903,9.153,-0.577,-0.045,-0.157,sad
8.59,0,0,0,0,261,0,2678,3747,2844,1909,3503,3839,0,0,0,0,1.010,2.155,10.386,0.098,-0.068,-0.059,1.149,-4.106,9.290,-0.616,-0.015,-0.162,sad
8.60,0,0,0,0,272,0,2832,3789,2799,1623,3539,3759,72,0,0,0,1.688,2.234,10.230,0.084,-0.119,-0.027,1.331,-4.089,9.266,-0.729,0.007,-0.165,sad
8.61,0,0,0,0,511,0,2926,3856,2835,1323,3514,3663,0,0,0,0,1.805,1.793,9.534,0.061,-0.117,-0.014,1.065,-4.345,9.148,-0.768,0.078,-0.174,sad
