timestamp,L1,L2,L3,L4,L5,L6,L7,L8,R1,R2,R3,R4,R5,R6,R7,R8,acc_x_left,acc_y_left,acc_z_left,gyro_x_left,gyro_y_left,gyro_z_left,acc_x_right,acc_y_right,acc_z_right,gyro_x_right,gyro_y_right,gyro_z_right,mood
0.00,389,3295,2699,656,3175,0,3305,3319,0,0,0,0,0,0,0,7,1.269,2.837,9.474,0.288,-0.065,-0.122,3.625,-1.958,10.305,3.412,-1.101,-1.695,happy
0.01,578,3575,2860,880,3344,0,3248,3216,0,0,0,0,0,0,0,0,1.444,2.990,9.402,0.338,-0.078,-0.116,1.216,-2.114,8.643,3.774,-1.367,-1.870,happy
0.02,645,3632,2956,1061,3371,0,3211,3107,0,0,0,0,0,0,20,0,1.281,3.335,9.455,0.322,-0.060,-0.078,-0.115,-2.246,7.242,3.918,-1.516,-1.763,happy
0.03,824,3689,3071,1423,3404,0,3140,2927,0,0,0,0,0,0,0,0,1.295,3.206,9.457,0.306,-0.070,-0.071,-0.498,-3.740,9.634,4.114,-1.436,-1.232,happy
0.04,1015,3757,3202,1571,3436,0,3083,2709,0,0,0,0,0,0,0,0,1.355,3.326,9.342,0.286,-0.052,-0.088,0.244,-5.212,11.243,4.366,-1.713,-1.052,happy
0.05,1194,3772,3291,1965,3463,0,2994,2467,0,0,0,0,0,0,0,0,1.384,3.409,9.357,0.242,-0.056,-0.094,0.199,-5.468,11.768,4.366,-1.917,-1.082,happy
0.06,1337,3837,3387,2230,3505,0,2918,2234,11,0,0,8,0,10,0,0,1.417,3.402,9.292,0.199,-0.052,-0.092,-1.274,-7.314,16.056,4.318,-2.192,-1.008,happy
0.07,1354,3683,3269,2243,3344,0,2638,1861,0,0,0,0,0,0,0,0,1.437,3.412,9.309,0.202,-0.014,-0.083,-3.184,-9.124,16.769,3.819,-2.869,-0.563,happy
0.08,1671,3904,3532,2509,3554,0,2730,1631,0,2603,0,1864,0,0,0,2073,1.403,3.402,9.352,0.189,-0.031,-0.095,-2.461,-12.045,16.565,3.324,-3.183,-0.475,happy
0.09,1824,3947,3541,2623,3566,0,2494,160,1607,2591,0,2525,2629,1767,1611,3142,1.417,3.474,9.371,0.250,-0.032,-0.101,-1.549,-19.613,17.748,3.252,-2.506,-0.834,happy
0.10,2015,3967,3633,2726,3553,0,2073,0,1591,2582,0,2524,2518,1695,1596,3145,1.319,3.512,9.244,0.306,-0.003,-0.048,-7.676,-19.613,-2.753,2.554,-1.881,-1.452,happy
0.11,2140,3985,3482,2799,3408,0,1370,0,1576,2452,0,2487,2580,1661,1565,3103,1.492,3.479,9.215,0.317,0.046,-0.020,-11.521,-19.613,-7.645,1.555,-1.641,-1.462,happy
0.12,2333,4013,3699,2894,3116,0,371,0,0,0,0,0,0,0,0,0,1.566,3.349,9.390,0.341,0.132,-0.070,-6.170,-19.613,-17.571,-2.235,2.230,-1.642,happy
0.13,2429,4011,3740,2992,2177,0,219,0,1587,2547,0,2487,2581,1663,1563,3103,1.700,3.010,8.995,0.818,0.149,0.095,-1.398,-0.687,19.613,-0.692,1.168,-1.276,happy
0.14,2708,4020,3767,3109,1744,0,0,0,0,0,0,3,0,0,2,1395,1.623,4.001,9.668,1.039,0.239,0.167,-7.468,11.320,-1.686,-2.215,0.049,-0.282,happy
0.15,2833,4031,3785,3168,1616,0,0,0,0,0,0,29,0,0,0,2063,1.796,3.778,9.249,1.240,0.263,0.135,-9.562,-2.449,8.337,-2.780,0.831,0.862,happy
0.16,2877,4011,3605,3220,1439,0,0,0,0,0,0,0,0,0,69,2549,1.516,3.452,9.151,1.592,0.328,0.126,-6.759,-7.204,19.613,-2.489,0.071,0.733,happy
0.17,3146,4008,3779,3248,1302,0,0,0,0,0,0,0,0,0,405,2954,1.997,3.273,9.270,1.997,0.456,0.207,1.573,-1.970,11.425,-2.438,-0.610,0.454,happy
0.18,3311,3959,3765,3260,989,0,0,0,48,0,0,0,0,0,935,3215,3.383,2.875,9.914,2.649,0.609,0.344,8.909,-5.375,9.790,-2.228,-0.363,0.422,happy
0.19,3442,3878,3712,3175,841,0,0,0,35,0,0,0,35,0,1378,3509,0.828,2.607,9.459,3.387,0.727,0.382,-0.103,-5.753,17.494,-1.963,1.307,1.076,happy
0.20,3519,2966,3456,2512,434,0,0,0,54,0,0,4,488,0,2111,3519,-0.227,2.952,12.629,4.638,0.072,0.003,1.975,-4.211,11.516,-0.677,1.519,0.730,happy
0.21,3536,2366,2597,1849,0,0,0,0,143,41,15,17,1143,0,2523,4024,1.932,5.784,19.613,6.581,-0.846,-1.287,0.077,-4.422,11.344,-0.538,0.685,0.361,happy
0.22,2447,721,117,299,0,0,0,0,182,351,15,52,1336,2,2759,4095,3.570,11.803,15.409,8.089,-0.116,-2.035,0.706,-3.692,10.247,-0.578,0.378,0.268,happy
0.23,894,0,0,0,0,0,0,0,248,617,7,612,1737,11,3127,4095,1.068,11.657,13.099,7.223,0.256,-2.491,1.006,-3.512,10.448,-0.228,0.164,0.251,happy
0.24,52,0,0,0,0,0,0,0,267,749,934,709,1966,71,3210,4095,9.036,9.946,19.613,2.659,0.400,-2.355,1.506,-3.850,9.610,-0.148,0.072,0.232,happy
0.25,0,0,0,0,0,0,0,0,244,780,1389,875,2167,44,3368,4095,11.909,0.053,19.613,-0.212,1.708,-2.439,1.456,-3.548,9.627,-0.006,0.194,0.166,happy
0.26,0,0,0,0,0,0,0,0,284,804,1451,987,2411,47,3528,4095,4.391,-2.500,6.062,-1.305,1.206,-0.426,1.506,-3.062,9.503,-0.078,0.076,0.061,happy
0.27,0,0,0,0,0,0,0,0,237,955,1497,1052,2490,45,3559,4095,2.866,-2.155,3.555,-1.574,0.468,0.005,1.391,-3.239,9.457,-0.120,-0.000,0.005,happy
0.28,0,0,0,0,0,0,0,0,222,939,1586,1165,2547,25,3575,4095,3.175,0.429,8.638,-1.926,-0.660,0.262,1.832,-3.886,10.477,-0.191,0.078,0.025,happy
0.29,0,0,0,0,0,0,0,0,188,1021,1906,1434,2771,41,3609,4095,3.575,1.381,9.261,-3.277,-0.456,0.663,1.492,-3.407,9.438,-0.142,0.019,0.078,happy
0.30,0,0,0,0,0,0,0,0,237,1229,1986,1609,2723,43,3503,4095,1.199,1.693,6.452,-3.813,-0.314,0.936,1.343,-3.273,9.328,-0.153,0.011,0.077,happy
0.31,0,0,0,0,0,0,0,0,287,1275,2019,1708,2787,45,3493,4095,2.444,3.563,6.713,-3.930,-0.612,1.141,1.432,-3.390,9.402,-0.205,-0.020,0.059,happy
0.32,0,0,0,0,0,0,0,0,454,1384,2032,1867,2911,53,3487,4095,4.987,5.780,8.308,-3.979,-0.237,1.524,1.372,-3.407,9.416,-0.148,-0.040,0.076,happy
0.33,0,0,0,0,0,0,0,0,601,1508,2047,2077,3087,53,3513,4095,11.080,9.936,7.348,-4.126,0.234,2.571,1.456,-3.613,9.294,-0.105,-0.081,0.045,happy
0.34,0,0,0,0,0,0,0,0,786,1661,2044,2109,3186,47,3497,4079,11.942,13.925,6.407,-3.691,1.005,4.875,1.391,-3.519,9.175,-0.090,-0.105,0.020,happy
0.35,0,0,0,0,0,0,0,0,1157,2003,2144,2231,3299,47,3547,4031,7.805,18.646,7.096,-2.829,1.706,6.619,1.460,-3.579,9.311,-0.058,-0.060,0.015,happy
0.36,0,0,0,0,0,0,0,0,1625,2087,2178,2403,3413,47,3577,4007,6.206,19.613,5.519,-2.055,3.296,6.859,1.379,-3.627,9.380,-0.054,-0.056,0.018,happy
0.37,0,0,0,0,0,0,0,0,1811,2170,2349,2453,3449,51,3550,3991,4.535,19.613,2.863,-1.376,4.196,5.963,1.441,-3.579,9.210,-0.079,-0.059,0.016,happy
0.38,0,0,0,0,0,0,0,0,2159,2397,2203,2578,3548,49,3475,3943,2.672,14.645,3.117,-0.489,1.970,4.955,1.681,-3.479,9.263,-0.132,-0.083,0.009,happy
0.39,0,0,0,0,83,0,0,0,2376,2618,2346,2741,3731,53,3215,3767,0.860,13.573,6.309,-0.014,-1.135,3.537,1.607,-3.651,9.246,-0.078,-0.058,0.024,happy
0.40,0,0,0,0,0,0,0,0,2547,2693,2221,2795,3663,43,2969,3592,4.374,13.685,4.544,-0.196,-1.070,2.448,1.559,-3.536,9.268,-0.085,-0.067,0.038,happy
0.41,0,0,0,0,233,0,0,0,2745,2857,2341,2827,3733,17,2331,3019,5.624,10.683,-1.439,0.138,0.653,1.403,1.841,-3.788,9.127,-0.113,-0.003,0.035,happy
0.42,0,0,0,0,195,0,0,0,2907,2995,2239,2773,3675,47,1413,1997,12.550,6.290,4.314,1.505,-0.099,1.672,1.781,-3.615,9.196,-0.162,0.057,0.009,happy
0.43,0,803,0,0,816,0,0,0,2905,2987,2239,2711,3563,37,965,1884,-7.611,10.623,19.613,0.147,2.212,0.641,1.731,-3.773,9.007,-0.179,0.047,0.006,happy
0.44,0,1683,0,0,1335,0,605,0,2923,2981,2249,2825,2933,27,153,1652,-1.480,-4.659,5.428,0.916,1.556,-0.384,1.695,-3.558,9.311,-0.088,0.073,0.132,happy
0.45,277,2525,0,0,1890,0,1360,802,2889,2411,2226,2667,2153,0,25,1191,5.954,2.794,5.713,0.710,0.054,-0.418,1.523,-3.723,9.227,-0.319,0.064,0.019,happy
0.46,605,3054,811,0,2230,0,2032,1840,2873,2275,2239,2551,1639,4,4,1091,0.122,3.414,9.357,0.855,-0.623,-0.619,1.781,-3.627,8.988,-0.362,0.162,0.045,happy
0.47,770,3232,1700,48,2589,0,2450,2394,2921,1687,2218,2447,733,5,0,814,-0.453,4.254,10.168,0.285,-0.489,-0.535,2.370,-3.821,9.572,-0.352,0.348,0.125,happy
0.48,963,3319,1905,240,2730,0,2588,2759,3105,1061,2193,2379,127,3,3,661,1.358,2.816,9.213,0.377,-0.229,0.175,-3.898,-3.194,12.565,-0.646,0.323,0.463,happy
0.49,1205,3471,2270,272,3007,0,2918,2873,3155,1063,2121,2445,21,1,0,547,1.441,3.680,9.275,0.265,-0.230,0.061,1.295,-4.961,10.017,-0.367,-0.016,1.458,happy
0.50,1364,3583,2437,375,3193,0,3021,2911,3183,22,2024,2412,0,19,0,459,1.841,3.594,9.261,0.175,-0.072,0.076,1.154,-3.855,8.792,-0.134,-0.644,3.231,happy
0.51,1382,3602,2607,421,3171,0,3055,2895,3141,47,0,2153,3,0,0,307,1.652,3.721,9.029,0.104,-0.107,0.021,3.177,-4.992,8.176,0.044,-0.911,4.123,happy
0.52,1461,3719,2761,749,3339,0,3106,2909,3111,0,0,1955,0,0,0,299,1.470,3.644,9.067,0.018,-0.111,0.009,2.198,-5.406,8.231,0.171,-1.061,4.313,happy
0.53,1616,3760,2880,1035,3375,0,3114,2916,2971,0,0,852,0,0,0,287,1.393,3.464,9.206,0.010,-0.030,-0.021,0.761,-4.434,8.705,0.429,-1.539,4.366,happy
0.54,1776,3783,2973,1283,3391,0,3125,2919,2155,0,0,233,0,0,0,236,1.506,3.551,9.189,0.017,0.042,0.008,-0.261,-4.393,8.928,0.598,-1.688,4.322,happy
0.55,1872,3803,3037,1488,3395,16,3120,2928,1417,11,0,30,0,0,0,159,1.429,3.510,9.143,-0.001,0.088,0.034,-1.037,-3.721,9.491,0.824,-1.601,4.182,happy
0.56,2006,3835,3122,1744,3410,0,3122,2949,238,0,0,0,33,0,0,133,1.410,3.517,9.184,-0.021,0.074,0.048,-8.303,-3.266,11.128,1.259,-1.709,4.366,happy
0.57,2112,3805,3186,1773,3437,0,3122,2767,165,0,0,0,0,39,0,99,1.173,3.560,9.306,-0.023,0.060,0.036,-6.845,-5.748,10.573,1.668,-1.906,4.366,happy
0.58,2209,3851,3217,2103,3426,0,3099,2891,179,0,0,0,0,0,0,47,1.403,3.445,9.318,0.036,0.043,0.006,-4.906,-5.612,8.011,1.531,-1.974,4.366,happy
0.59,2320,3853,3259,2192,3377,217,3062,2786,211,0,0,0,0,0,0,36,1.346,3.484,9.242,0.042,0.091,0.026,-5.064,-5.547,8.655,1.232,-1.846,4.366,happy
0.60,2431,3859,3321,2129,3367,371,3056,2505,73,0,0,0,0,0,0,17,1.077,3.582,9.419,0.030,0.079,0.044,-4.231,-4.810,5.997,0.739,-1.607,4.366,happy
0.61,2509,3852,3346,2422,3268,350,3015,2559,0,0,0,0,0,0,0,0,1.298,3.407,9.402,0.013,0.110,0.055,-3.117,-5.337,8.468,0.474,-1.309,4.366,happy
0.62,2588,3856,3387,2501,3184,461,2986,2448,0,0,0,0,0,0,0,0,1.276,3.498,9.311,-0.007,0.103,0.048,-3.385,-5.993,10.420,0.720,-1.338,4.366,happy
0.63,2646,3865,3423,2373,3191,617,2963,2197,25,0,0,0,0,0,0,0,1.183,3.385,9.273,0.005,0.090,0.026,-1.844,-5.681,8.135,0.748,-1.088,4.366,happy
0.64,2656,3822,3395,2605,3159,796,2944,2300,0,0,140,0,0,0,0,0,1.214,3.464,9.364,0.022,0.091,0.010,-1.417,-5.856,7.336,0.540,-0.977,4.366,happy
0.65,2733,3858,3461,2670,3216,863,2921,2325,0,0,0,0,0,0,0,0,1.228,3.498,9.282,0.034,0.083,0.004,-0.213,-6.314,7.657,0.238,-0.556,4.366,happy
0.66,2781,3876,3479,2730,3190,890,2901,2331,0,0,0,0,0,0,3,0,1.183,3.417,9.335,0.029,0.090,0.009,-0.958,-7.772,10.127,0.513,-0.195,4.366,happy
0.67,2795,3859,3489,2753,3157,821,2858,2321,0,4,0,0,0,0,0,10,1.283,3.395,9.323,0.038,0.097,0.011,-0.618,-7.654,9.663,0.689,-0.411,4.366,happy
0.68,2816,3863,3504,2787,3126,669,2800,2277,0,0,0,0,0,17,0,0,1.154,3.558,9.237,0.012,0.113,0.015,0.867,-6.450,5.631,0.415,-0.223,4.366,happy
0.69,2842,3811,3520,2640,3111,574,2736,2157,0,0,0,0,0,0,0,0,1.274,3.385,9.246,-0.004,0.133,0.023,3.091,-9.096,3.474,-0.399,-0.664,4.202,happy
0.70,2850,3851,3521,2849,3103,708,2658,2354,0,33,0,4,0,0,0,22,1.214,3.460,9.282,-0.024,0.143,0.024,3.311,-7.144,9.287,-0.361,-0.647,3.662,happy
0.71,2851,3841,3522,2892,3063,464,2512,2416,0,0,0,0,0,0,0,413,1.271,3.440,9.354,-0.034,0.172,0.024,6.440,0.187,9.524,-0.073,-0.907,2.859,happy
0.72,2848,3776,3538,2697,3025,560,2323,2186,0,0,0,0,0,0,5,1880,1.013,3.354,9.450,0.011,0.148,0.005,18.929,-2.157,8.559,-1.101,-0.158,0.349,happy
0.73,2867,3813,3532,2928,2995,37,2145,2028,0,6,0,0,0,0,0,2600,1.010,3.254,9.400,0.062,0.151,-0.011,-3.701,-8.564,9.622,0.186,-1.219,0.056,happy
0.74,2857,3793,3539,2938,2975,0,1833,1520,0,0,0,113,0,0,251,3100,0.864,3.230,9.448,0.145,0.119,-0.034,1.879,-3.211,9.759,-0.617,-0.988,-0.302,happy
0.75,2855,3783,3519,2948,2891,0,1264,353,148,0,0,510,19,0,229,3385,0.824,3.385,9.397,0.249,0.095,-0.033,0.922,-3.414,9.910,-0.577,-0.893,-0.252,happy
0.76,2853,3762,3535,2961,2137,0,532,0,237,0,0,693,0,0,483,3455,1.334,3.553,9.560,0.586,0.238,0.269,0.067,-2.531,9.436,-0.455,-0.839,-0.255,happy
0.77,2721,3696,3510,2958,1075,0,0,0,172,0,0,873,0,0,709,3643,1.887,2.543,9.019,0.743,0.463,0.199,-0.127,-2.892,10.084,-0.426,-0.620,-0.110,happy
0.78,2335,3370,3436,2655,230,0,0,0,168,0,0,973,76,0,1305,3797,3.115,3.316,10.149,0.822,0.889,0.279,0.239,-2.962,10.008,-0.232,-0.370,-0.104,happy
0.79,2391,2519,3120,2461,0,0,0,0,173,0,0,1139,117,3,1502,3851,3.862,5.109,11.157,0.705,1.564,0.209,0.759,-3.227,10.005,-0.209,-0.276,-0.092,happy
0.80,2218,785,1844,2141,0,0,0,0,103,0,0,1359,285,0,2151,3935,4.360,5.665,10.355,0.353,2.544,-0.156,0.658,-3.036,9.720,-0.220,-0.254,-0.082,happy
0.81,1557,0,0,861,0,0,0,0,149,0,0,1483,613,0,2664,4003,5.444,1.846,10.898,0.358,3.635,-1.364,0.740,-3.259,9.752,-0.170,-0.186,-0.063,happy
0.82,538,0,0,241,0,0,0,0,151,0,0,1503,789,0,2822,4043,10.314,9.373,14.071,-0.227,4.985,-2.316,0.883,-3.285,9.704,-0.114,-0.154,-0.105,happy
0.83,0,0,0,0,0,0,0,0,175,29,0,1553,887,0,2909,3990,19.613,18.577,6.852,-1.047,2.838,3.052,0.831,-3.215,9.740,-0.040,-0.140,-0.135,happy
0.84,11,0,0,0,0,0,0,0,91,3,721,1486,971,2,3004,4079,12.337,12.016,6.998,-1.541,2.562,4.086,0.678,-3.041,9.766,-0.055,-0.062,-0.137,happy
0.85,69,0,0,0,0,0,0,0,93,3,1256,1511,1003,2,3101,4089,5.507,10.324,2.370,-0.955,2.258,4.697,0.622,-2.859,9.785,0.081,-0.063,-0.112,happy
0.86,0,0,0,0,0,0,0,0,57,51,1517,1593,1017,2,3157,4095,-1.391,8.466,6.759,-0.617,1.065,4.690,0.601,-2.765,9.603,0.078,-0.024,-0.080,happy
0.87,0,0,0,0,0,0,0,0,52,4,1568,1709,975,1,3181,4093,0.292,7.465,8.327,-0.443,0.366,4.251,0.747,-2.873,9.534,0.040,-0.017,-0.061,happy
0.88,0,0,0,0,0,0,0,0,43,1,1742,1715,1063,0,3227,4083,3.223,6.088,7.743,-0.439,0.047,3.923,0.668,-2.883,9.538,0.048,-0.033,-0.038,happy
0.89,0,0,0,0,0,0,0,0,63,2,1824,1647,1101,1,3291,4075,4.017,4.863,6.416,-0.258,0.129,3.684,0.745,-2.883,9.529,0.021,-0.074,-0.037,happy
0.90,0,0,0,0,0,0,0,0,103,3,1916,1757,1227,2,3287,4071,3.486,4.372,7.228,-0.146,0.192,3.510,0.742,-2.851,9.476,-0.013,-0.102,-0.037,happy
0.91,0,0,0,0,0,0,0,0,111,3,2044,1755,1355,0,3297,4057,3.661,4.305,8.739,-0.179,0.189,3.276,0.857,-3.012,9.675,-0.014,-0.074,-0.018,happy
0.92,0,0,0,0,0,0,0,0,143,3,2039,1800,1482,3,3320,4046,3.991,4.022,9.503,-0.324,0.063,3.034,0.989,-3.112,9.665,0.006,-0.052,0.009,happy
0.93,0,0,0,0,0,0,0,0,139,4,2060,1855,1639,2,3338,4031,5.001,3.266,9.323,-0.438,-0.022,3.109,0.943,-2.837,9.424,-0.034,-0.087,0.015,happy
0.94,0,0,0,0,0,0,0,0,133,10,2060,1917,1836,2,3351,4014,5.248,3.567,9.165,-0.597,-0.108,3.278,0.826,-2.899,9.570,-0.066,-0.101,0.026,happy
0.95,0,0,0,0,0,0,0,0,155,8,2101,1941,2035,3,3353,3995,5.827,4.460,9.278,-0.855,-0.217,3.530,0.927,-3.089,9.639,-0.052,-0.027,0.049,happy
0.96,0,0,0,0,0,0,0,0,176,5,2111,1967,2200,3,3337,3967,5.892,4.606,8.818,-0.855,-0.119,4.088,1.647,-3.361,10.077,-0.047,0.035,0.086,happy
0.97,0,0,0,0,0,0,0,0,167,85,2121,2041,2313,21,3256,3961,5.193,5.133,9.177,-0.895,-0.128,4.493,1.030,-3.086,9.263,-0.028,0.065,0.098,happy
0.98,0,0,0,0,0,0,0,0,135,429,2167,2123,2407,147,3161,3940,4.477,6.287,10.611,-0.984,-0.145,4.810,1.369,-3.115,9.845,-0.102,0.048,0.112,happy
0.99,0,0,0,0,0,0,0,0,457,997,2162,2415,2552,43,2922,3833,3.273,6.321,9.562,-1.202,0.064,5.211,0.381,-2.796,8.866,-0.113,0.049,0.100,happy
1.00,0,0,0,0,0,0,0,0,676,1299,2175,2519,2553,47,2827,3789,2.409,6.349,9.072,-1.117,0.237,5.278,0.871,-3.318,9.670,-0.145,-0.009,0.086,happy
1.01,0,0,0,0,0,0,0,0,1209,1495,2167,2731,2485,76,2619,3754,2.133,7.803,10.865,-1.092,0.686,5.149,1.025,-3.048,9.416,-0.139,0.078,0.069,happy
1.02,0,0,0,0,0,0,0,0,1429,1562,2198,2821,2503,41,2543,3575,1.367,9.948,13.807,-1.369,0.994,4.938,0.989,-3.005,8.904,-0.161,0.068,0.055,happy
1.03,0,0,0,0,0,0,0,0,2267,1799,2218,2995,2443,47,2236,3309,0.000,12.131,15.241,-1.894,1.152,4.701,0.974,-3.644,8.143,-0.248,0.077,0.029,happy
1.04,0,0,0,0,0,0,0,0,2811,2203,2218,3204,2571,47,1863,2985,-3.929,12.483,12.744,-2.251,-0.133,4.262,0.927,-3.352,9.297,-0.280,-0.017,0.031,happy
1.05,0,0,0,0,0,0,0,0,3038,2339,2157,3278,2605,47,1564,2713,-3.972,12.072,5.009,-1.903,-1.128,3.647,0.946,-3.771,9.910,-0.306,-0.047,0.005,happy
1.06,0,0,0,0,57,0,0,0,3444,2587,2236,3373,2556,40,683,2183,-5.399,13.115,1.853,-0.890,-1.049,3.001,1.037,-2.928,9.594,-0.155,-0.059,0.030,happy
1.07,0,0,0,0,82,0,0,0,3644,2661,2244,3480,2551,45,265,1485,-5.885,13.702,1.451,0.001,-0.630,2.177,1.001,-3.761,9.598,-0.266,-0.094,0.022,happy
1.08,0,0,0,0,114,0,0,0,3722,2727,2270,3484,2483,25,90,1279,-3.836,10.882,-2.907,1.579,0.475,1.533,0.809,-3.050,9.524,-0.266,-0.098,0.011,happy
1.09,0,0,0,0,112,0,0,0,3829,2663,2244,3611,2019,37,4,890,-2.966,12.859,3.922,2.450,1.354,1.277,0.960,-2.253,9.550,-0.371,0.022,-0.030,happy
1.10,0,0,0,0,272,0,0,815,3923,2495,2265,3711,1079,5,5,859,-6.254,-1.185,17.741,1.354,0.580,1.190,1.982,-3.584,9.510,-0.577,0.050,-0.120,happy
1.11,0,0,0,0,326,0,528,2779,3961,2489,2265,3767,789,5,1,751,-15.088,0.086,8.765,3.161,-0.586,-0.508,1.262,-3.768,9.177,-0.571,-0.001,-0.178,happy
1.12,0,0,0,0,711,0,1431,3199,4040,2221,2393,3877,271,5,1,595,7.362,8.569,11.799,1.747,-1.494,-0.281,1.403,-3.529,9.359,-0.893,-0.117,-0.267,happy
1.13,0,0,0,0,902,0,2287,3151,4092,1811,2341,3913,70,3,2,376,12.289,11.389,16.202,1.157,0.389,-0.242,1.444,-3.723,9.771,-2.008,0.314,-0.398,happy
1.14,0,663,0,0,1668,0,2621,3420,4095,1421,2372,3884,71,4,1,313,0.467,3.278,11.851,0.584,1.018,-0.051,2.971,-4.635,11.473,-2.565,0.569,-0.352,happy
1.15,0,1625,0,0,1946,0,2768,3519,4083,181,2423,3630,0,0,12,233,1.410,2.808,9.347,0.563,0.871,-0.337,1.839,-1.836,11.492,-3.856,1.281,0.402,happy
1.16,0,2099,0,0,2335,0,2922,3441,3743,0,1420,2440,4,0,0,135,0.352,3.079,10.221,0.440,0.878,-0.281,2.368,-5.739,14.664,-4.366,0.558,2.587,happy
1.17,144,2693,0,0,2559,0,3043,3660,3834,0,0,1395,0,0,0,132,1.154,3.160,9.383,0.322,0.370,-0.275,1.994,-9.646,16.386,-4.366,0.377,3.401,happy
1.18,277,2960,715,0,2763,0,3154,3680,2539,0,0,209,0,0,0,0,1.348,3.223,9.831,0.222,0.022,-0.254,2.002,-6.926,15.265,-4.366,0.423,4.227,happy
1.19,366,3082,1535,50,2886,0,3239,3527,1589,2591,0,2489,2579,1662,1564,3110,1.180,3.172,9.922,0.201,0.049,-0.099,-0.014,-6.378,19.613,-1.563,-0.182,4.366,happy
1.20,436,3218,2001,296,2980,0,3293,3696,0,8,0,0,0,0,7,6,1.293,3.100,9.613,0.239,0.088,-0.054,3.060,-11.916,19.613,0.154,-1.233,3.452,happy
1.21,537,3277,2163,381,3039,0,3302,3693,0,0,0,0,0,0,0,0,1.372,2.990,9.448,0.254,0.056,-0.072,11.648,4.396,11.123,0.893,-1.666,2.470,happy
1.22,615,3308,2320,496,3105,0,3311,3666,0,0,0,0,0,0,0,0,1.372,3.184,9.440,0.280,0.037,-0.098,10.558,1.128,5.665,1.162,-0.967,1.209,happy
1.23,647,3345,2426,569,3158,0,3307,3651,0,0,0,0,0,0,0,0,1.302,3.428,9.584,0.267,-0.017,-0.056,8.205,1.659,8.823,1.443,-1.062,0.123,happy
1.24,736,3377,2533,621,3200,0,3298,3627,0,0,0,0,0,31,0,0,1.164,3.345,9.572,0.225,-0.046,-0.042,7.214,-0.615,12.471,2.002,-1.354,-0.897,happy
1.25,832,3440,2657,752,3295,0,3286,3546,1,0,0,0,0,16,0,11,1.137,3.184,9.352,0.210,-0.063,-0.038,-1.331,0.199,10.197,3.218,-1.684,-1.572,happy
1.26,918,3463,2753,752,3356,0,3268,3282,0,0,0,0,0,0,0,0,1.379,3.227,9.342,0.225,-0.066,-0.032,-4.094,-0.441,9.191,3.665,-2.070,-0.705,happy
1.27,1036,3527,2853,1005,3394,0,3237,3326,0,0,94,0,0,0,0,0,1.271,3.261,9.282,0.169,-0.057,-0.022,-4.135,-1.568,10.487,3.800,-1.972,-0.245,happy
1.28,1136,3598,2944,1216,3430,0,3209,3195,0,0,0,0,0,0,0,0,1.393,3.345,9.218,0.167,-0.084,-0.027,-2.502,-3.318,12.373,4.260,-1.967,0.156,happy
1.29,1248,3583,3056,1283,3476,0,3189,2928,0,0,0,0,93,0,0,0,1.329,3.448,9.321,0.105,-0.051,-0.018,-2.179,-4.269,13.190,4.366,-2.239,-0.201,happy
1.30,1295,3694,3152,1638,3506,0,3152,2930,0,0,0,0,0,0,0,0,1.367,3.445,9.371,0.079,-0.068,-0.034,-2.430,-4.709,14.193,4.332,-2.360,-0.309,happy
1.31,1344,3740,3248,1855,3549,0,3133,2755,0,0,0,0,0,0,0,0,1.353,3.371,9.261,0.079,-0.048,-0.031,-0.883,-7.209,18.251,4.366,-1.879,-0.402,happy
1.32,1424,3737,3344,1871,3583,0,3060,2362,0,0,0,0,0,0,0,0,1.298,3.278,9.266,0.106,-0.044,-0.035,-4.863,-13.017,19.017,4.070,-2.595,-0.977,happy
1.33,1355,3774,3344,2175,3460,0,2829,2096,0,0,0,0,0,0,0,0,1.575,3.134,9.122,0.160,-0.045,-0.064,-4.231,-16.989,18.402,3.918,-2.415,-1.088,happy
1.34,1615,3863,3472,2325,3639,0,2841,1461,0,0,0,0,0,0,0,0,1.542,3.270,9.158,0.267,-0.092,-0.086,-3.385,-19.436,3.618,2.766,-1.093,-1.941,happy
1.35,1856,3919,3553,2307,3649,0,2631,71,1591,2555,0,2477,2595,1685,1575,3109,1.489,3.814,9.450,0.280,-0.083,-0.044,-10.127,-19.613,-4.982,0.614,-0.526,-1.357,happy
1.36,2113,3937,3611,2594,3575,0,2160,0,1587,2459,0,2492,2584,1655,1573,3108,1.463,3.649,9.512,0.261,-0.008,-0.032,-7.913,-19.613,-3.144,-0.449,-0.934,-0.874,happy
1.37,2363,3965,3653,2702,3322,0,1329,0,0,0,2,0,0,0,0,0,1.501,3.215,9.282,0.520,-0.049,-0.024,2.787,-14.262,0.172,-2.998,0.431,-1.325,happy
1.38,2509,3984,3650,2762,2678,0,639,0,0,0,0,0,0,0,0,3,1.460,3.294,9.340,0.584,-0.016,-0.066,6.019,-2.945,17.289,-1.710,1.477,-0.961,happy
1.39,2661,3984,3699,2801,2480,0,298,0,0,0,0,0,0,0,0,0,1.824,3.314,9.524,0.752,-0.020,-0.067,5.739,2.365,17.418,-1.125,0.475,-1.313,happy
1.40,2819,4012,3725,2863,2041,0,287,0,0,0,0,0,0,0,0,337,1.276,4.281,9.232,1.209,-0.052,0.211,2.509,5.150,1.980,-1.898,0.430,-1.050,happy
1.41,2975,4003,3727,2922,1783,0,136,0,0,0,0,0,0,0,0,1101,1.511,4.065,9.189,1.310,0.117,0.191,-7.077,-0.898,10.288,-2.485,0.556,-0.364,happy
1.42,3239,3934,3758,2816,1371,0,0,0,0,0,0,0,0,0,0,2236,1.628,4.085,9.050,1.434,0.181,0.200,-4.448,-3.931,13.680,-2.213,-0.099,0.246,happy
1.43,3346,3914,3760,2794,1242,0,0,0,0,0,2,0,0,0,377,2748,1.915,3.663,9.076,1.656,0.339,0.240,-1.013,-2.842,13.068,-2.083,-0.553,0.326,happy
1.44,3510,3935,3711,2839,1021,0,0,0,0,69,0,0,0,0,775,3173,3.395,3.117,9.771,2.211,0.569,0.359,3.115,-3.970,9.993,-1.982,-0.701,0.276,happy
1.45,3602,3811,3653,2602,809,0,0,0,0,0,0,0,0,0,1180,3484,1.492,3.129,10.113,2.645,0.744,0.373,4.254,-3.946,9.649,-1.719,-0.363,0.418,happy
1.46,3536,3227,3456,2265,545,0,0,0,0,0,115,0,31,0,1303,3289,1.841,3.697,10.175,3.037,0.921,0.280,1.099,-5.011,17.775,-1.456,1.355,1.047,happy
1.47,3698,2479,2826,1879,0,0,0,0,0,0,0,0,559,0,2366,3976,1.472,3.510,12.368,4.131,0.779,-0.455,1.279,-4.676,12.151,-0.544,1.109,0.531,happy
1.48,3614,1203,1007,962,0,0,0,0,0,0,163,142,843,0,2675,3977,4.025,5.895,12.495,5.632,0.512,-1.542,1.207,-3.508,10.161,-0.400,0.485,0.324,happy
1.49,2745,214,0,125,0,0,0,0,45,0,0,166,1197,0,2843,4083,3.050,10.616,11.782,6.967,0.967,-2.175,0.898,-3.649,10.568,-0.257,0.264,0.221,happy
1.50,1167,0,0,0,0,0,0,0,67,0,0,421,1707,0,3033,4009,1.956,11.669,10.649,6.199,1.426,-2.438,1.554,-3.309,9.673,0.033,0.089,0.113,happy
1.51,461,0,0,0,0,0,0,0,93,0,0,605,1903,0,3239,4095,0.532,9.538,19.613,3.704,0.709,-2.224,1.372,-2.808,9.345,0.035,0.075,0.100,happy
1.52,0,0,0,0,0,0,0,0,77,20,1097,615,2131,7,3327,4095,6.728,3.852,19.613,1.487,-0.141,-2.145,1.772,-3.024,9.610,0.017,0.064,0.072,happy
1.53,0,0,0,0,0,0,0,0,47,383,1292,713,2274,13,3431,4095,13.046,8.169,16.664,-0.009,-0.015,-0.693,1.652,-2.899,9.359,-0.071,0.004,0.056,happy
1.54,0,0,0,0,0,0,0,0,58,627,1904,880,2577,18,3555,4095,5.665,0.821,8.423,-1.217,0.526,0.387,1.238,-2.382,9.213,-0.198,-0.121,0.018,happy
1.55,0,0,0,0,0,0,0,0,45,892,1983,1199,2699,12,3589,4095,3.431,-0.448,7.602,-1.502,0.066,0.674,1.575,-3.129,9.407,-0.090,-0.005,0.159,happy
1.56,0,0,0,0,0,0,0,0,71,1051,2027,1327,2783,21,3592,4091,3.230,0.433,9.601,-1.950,-0.320,0.832,1.630,-3.132,9.627,-0.092,0.021,0.173,happy
1.57,0,0,0,0,0,0,0,0,123,1241,2080,1375,2851,29,3589,4095,2.600,1.113,11.021,-2.608,-0.459,0.900,1.472,-3.038,9.519,-0.099,0.106,0.210,happy
1.58,0,0,0,0,0,0,0,0,151,1351,2096,1629,2921,35,3563,4095,0.237,1.820,9.412,-3.835,-0.273,0.846,1.355,-3.290,9.505,-0.120,0.105,0.193,happy
1.59,0,0,0,0,0,0,0,0,267,1449,2101,1811,2997,51,3483,4095,-0.510,2.152,6.991,-4.271,-0.634,0.404,1.573,-3.050,9.057,-0.138,0.067,0.139,happy
1.60,0,0,0,0,0,0,0,0,383,1707,2142,1990,3049,56,3371,4029,0.555,3.622,8.782,-4.372,-0.750,0.054,1.238,-3.326,9.546,-0.131,0.104,0.189,happy
1.61,0,0,0,0,0,0,0,0,361,1746,2157,2137,3064,48,3294,3989,0.807,6.057,11.535,-4.667,-1.107,-0.060,1.310,-3.436,9.036,-0.150,0.070,0.158,happy
1.62,0,0,0,0,0,0,0,0,648,1995,2167,2383,3083,51,3103,3915,1.772,7.463,11.791,-4.760,-1.225,0.232,1.446,-3.452,9.505,-0.067,0.080,0.118,happy
1.63,0,0,0,0,0,0,0,0,1126,2150,2188,2571,3113,47,2861,3849,1.877,9.883,13.589,-4.607,-1.485,0.694,1.068,-3.687,9.756,-0.103,0.012,0.096,happy
1.64,0,0,0,0,0,0,0,0,1453,2233,2290,2639,3147,47,2693,3815,2.808,13.185,15.234,-4.390,-1.317,1.238,1.417,-3.244,9.254,-0.140,0.027,0.084,happy
1.65,0,0,0,0,0,0,0,0,2215,2395,2195,2863,3197,45,2457,3665,0.354,16.805,16.451,-4.125,-1.222,1.944,1.393,-3.450,9.450,-0.173,-0.016,0.071,happy
1.66,0,0,0,0,0,0,0,0,2778,2567,2216,3017,3257,45,2073,3252,-2.253,19.352,13.415,-4.008,-0.816,2.280,1.319,-3.570,9.450,-0.274,-0.067,0.022,happy
1.67,0,0,0,0,0,0,0,0,2999,2697,2203,3087,3272,47,1877,2897,-5.555,16.929,3.917,-3.144,-0.835,2.034,1.123,-3.519,9.086,-0.309,-0.171,0.024,happy
1.68,0,0,0,0,0,0,0,0,3341,2835,2224,3166,3281,47,1343,2280,-7.855,16.312,1.185,-1.782,-1.136,1.132,1.298,-4.688,9.352,-0.505,0.036,0.007,happy
1.69,0,0,0,0,208,0,0,0,3588,2949,2229,3191,2854,45,551,1543,-6.357,16.697,-3.333,-0.833,-0.945,0.323,1.714,-4.405,9.184,-0.168,0.089,0.045,happy
1.70,0,0,0,0,0,0,0,0,3692,2976,2231,3299,2765,35,121,1547,-4.458,16.336,-8.820,1.904,1.262,-0.361,1.731,-4.276,9.349,0.043,0.134,0.171,happy
1.71,0,0,0,0,259,0,0,0,3831,3028,2231,3411,2153,5,6,1197,2.490,2.337,19.613,0.834,1.349,-0.710,1.448,-3.730,9.187,-0.558,0.252,-0.075,happy
1.72,0,0,0,0,182,0,220,1762,3924,2786,2265,3554,1451,3,3,852,1.748,-6.869,-1.295,2.664,-0.692,-0.899,1.472,-4.003,9.206,-0.497,0.256,-0.092,happy
1.73,0,0,0,0,326,0,619,2798,3881,2762,2272,3547,973,5,3,701,-2.308,8.516,18.816,2.575,-0.187,-0.168,1.719,-3.675,9.493,-0.553,0.337,-0.165,happy
1.74,0,0,0,0,588,0,1282,3132,3977,2533,2247,3580,371,4,2,483,7.135,2.411,9.831,1.738,-0.304,-0.021,1.439,-3.326,9.675,-1.128,0.274,-0.181,happy
1.75,0,0,0,0,949,0,1993,3270,4072,2140,2362,3637,21,1,0,448,4.901,6.864,11.911,1.243,1.159,0.051,1.946,-2.828,10.008,-2.337,0.407,-0.294,happy
1.76,0,846,0,0,1463,0,2373,3421,4077,1844,2436,3567,0,0,0,311,1.240,2.710,10.685,0.674,1.257,-0.190,2.284,-2.892,9.311,-3.024,0.656,-0.276,happy
1.77,0,1616,0,0,1917,0,2619,3525,4041,637,2413,3159,0,0,0,236,-0.029,3.855,11.028,0.528,0.881,-0.243,2.933,-3.754,12.512,-3.991,1.402,0.558,happy
1.78,0,2289,0,0,2174,0,2851,3649,1705,7,2,1373,2587,2237,2367,109,-0.187,3.874,11.363,0.422,0.490,-0.247,2.100,-6.905,14.198,-4.366,1.139,2.474,happy
1.79,0,2731,633,0,2398,0,3031,3635,3095,0,0,873,0,0,0,88,0.929,2.892,10.264,0.301,0.075,-0.342,4.164,-7.147,13.364,-4.366,0.849,3.305,happy
1.80,0,3020,1662,347,2590,0,3155,3725,2044,0,0,0,0,0,0,85,1.276,2.883,9.969,0.320,-0.015,-0.273,3.235,-10.513,10.206,-4.366,1.539,3.815,happy
1.81,0,3194,2231,627,2728,0,3241,3730,0,0,2,0,0,0,0,24,1.501,3.024,9.541,0.256,0.049,-0.033,0.345,5.413,19.613,0.081,0.192,4.122,happy
1.82,44,3273,2445,784,2858,0,3268,3730,0,0,0,0,0,0,0,57,1.283,2.954,9.646,0.232,0.067,-0.019,7.762,3.876,18.929,0.176,-1.031,2.591,happy
1.83,81,3268,2628,907,2770,0,3202,3699,0,0,0,0,0,0,0,43,1.463,2.952,9.634,0.216,0.079,-0.041,9.831,0.627,6.402,0.897,-0.104,1.967,happy
1.84,170,3377,2711,1018,3007,0,3300,3711,0,0,0,0,3,0,0,53,1.319,3.086,9.644,0.217,0.035,-0.056,7.391,3.596,8.265,1.177,-0.468,0.890,happy
1.85,231,3386,2786,1060,3005,0,3253,3642,0,0,0,0,0,0,0,19,1.259,2.957,9.591,0.205,0.004,-0.064,7.719,0.180,11.138,1.656,-0.989,-0.076,happy
1.86,339,3474,2922,1280,3105,0,3272,3583,0,0,0,0,1,0,7,0,1.293,2.993,9.493,0.184,-0.050,-0.072,6.132,-0.141,13.029,2.441,-1.242,-0.865,happy
1.87,461,3536,2965,1429,3179,0,3184,3457,0,0,7,0,0,0,0,0,1.338,2.933,9.421,0.205,-0.022,-0.118,-1.932,0.031,9.328,3.482,-1.600,-1.084,happy
1.88,560,3577,2973,1658,3223,0,3110,3280,0,4,0,0,0,39,0,0,1.377,3.043,9.371,0.251,-0.019,-0.106,-2.557,-1.956,9.950,3.931,-1.626,-0.182,happy
1.89,674,3636,3205,1948,3248,0,3094,3123,0,0,0,0,0,0,0,0,1.257,3.069,9.340,0.251,-0.010,-0.079,-2.725,-2.813,10.788,4.159,-1.718,0.136,happy
1.90,802,3695,3297,2154,3285,0,3029,2927,0,0,0,0,0,0,0,0,1.307,3.227,9.371,0.228,-0.013,-0.076,-0.223,-4.350,10.712,4.286,-2.174,0.183,happy
1.91,932,3735,3365,2319,3319,0,2964,2718,0,0,0,0,0,0,0,0,1.269,3.273,9.397,0.195,0.005,-0.096,1.276,-5.341,12.325,4.081,-2.428,-0.677,happy
1.92,1077,3782,3453,2487,3348,0,2907,2534,0,0,0,0,0,0,0,0,1.223,3.364,9.392,0.169,-0.001,-0.102,1.288,-6.129,14.348,3.969,-2.572,-1.185,happy
1.93,1259,3824,3519,2592,3389,0,2832,2402,0,0,0,0,0,7,0,0,1.259,3.414,9.522,0.154,-0.012,-0.092,0.079,-7.793,17.391,3.861,-2.268,-1.836,happy
1.94,1469,3849,3546,2704,3421,0,2733,2099,0,0,0,0,0,0,0,0,1.381,3.187,9.297,0.163,-0.010,-0.093,-3.986,-13.451,19.058,3.621,-2.085,-2.285,happy
1.95,1663,3899,3610,2774,3458,0,2465,1603,0,0,0,0,0,0,0,0,1.401,3.287,9.347,0.229,-0.017,-0.080,-5.820,-16.635,18.830,3.462,-1.924,-2.359,happy
1.96,2016,3920,3651,2896,3435,0,2128,88,1597,2578,0,2585,2615,1719,1593,3141,1.324,3.290,9.366,0.269,-0.070,-0.065,-5.315,-19.613,3.184,2.390,-0.544,-2.350,happy
1.97,2251,3897,3641,2928,3277,0,1519,0,0,0,0,0,0,37,0,0,1.298,3.395,9.246,0.354,-0.055,-0.054,-10.997,-19.613,-3.871,0.419,-1.582,-0.828,happy
1.98,2609,3975,3723,3055,2969,0,592,0,1575,2579,0,2521,2651,1735,1607,3129,1.197,3.472,9.347,0.463,0.037,-0.034,-6.416,-19.613,-4.302,-0.475,-1.932,-0.480,happy
1.99,2832,3996,3763,3120,2221,0,218,0,0,0,0,0,0,0,0,0,2.023,2.555,8.892,0.912,-0.022,0.100,-0.385,-10.221,-1.956,-2.206,1.371,-0.626,happy
2.00,2955,4005,3767,3150,1936,0,94,0,0,0,0,0,0,17,0,24,1.822,3.570,9.170,1.057,0.041,0.153,4.884,-7.369,19.613,0.141,1.394,-0.885,happy
2.01,3088,4011,3786,3201,1722,0,0,0,0,0,0,0,0,0,0,731,1.559,4.104,9.299,1.219,0.263,0.246,2.023,8.753,13.166,-1.370,-0.185,-1.168,happy
2.02,3101,3931,3728,3242,1293,0,0,0,0,0,0,0,0,7,0,1628,0.376,3.469,9.606,1.382,0.420,0.239,-6.522,6.778,4.429,-3.151,-0.671,-0.268,happy
2.03,3314,4004,3792,3283,1165,0,0,0,0,7,0,0,0,0,0,2295,1.317,3.711,9.366,1.646,0.399,0.241,-8.361,-7.369,16.319,-3.119,-0.499,0.165,happy
2.04,3404,3967,3793,3311,927,0,0,0,18,0,0,0,0,0,343,2729,1.870,3.000,9.706,1.992,0.496,0.331,-7.408,-4.793,16.678,-2.372,-0.526,0.606,happy
2.05,3521,3826,3718,3248,501,0,0,0,0,0,0,0,0,0,1271,3421,1.465,2.612,9.783,2.798,0.859,0.527,7.652,-6.373,10.032,-2.310,-1.038,0.253,happy
2.06,3553,3270,3603,2977,116,0,0,0,1583,2568,0,2503,2601,1715,1587,3109,2.986,2.878,10.271,3.310,1.026,0.441,-2.500,-13.360,17.674,-0.843,0.870,1.195,happy
2.07,3571,2697,3200,2091,0,0,0,0,33,0,2,2,291,0,2503,3751,0.419,2.018,12.093,4.755,0.369,-0.403,2.674,-6.632,13.001,-0.400,0.516,0.460,happy
2.08,3107,1510,1755,1523,0,0,0,0,131,0,0,0,1291,43,2987,3989,3.251,5.521,14.514,6.956,-0.385,-1.779,3.589,-3.433,9.067,-0.043,0.297,0.191,happy
2.09,1643,466,0,261,0,0,0,0,89,228,12,0,1975,0,3448,4095,2.023,8.722,13.637,7.114,0.576,-2.754,2.904,-3.385,9.620,0.088,0.189,0.096,happy
2.10,511,0,0,0,0,0,0,0,70,202,0,0,2184,0,3511,4095,2.172,11.851,14.202,5.739,1.452,-2.886,2.095,-2.897,9.728,0.105,0.182,0.111,happy
2.11,0,0,0,0,0,0,0,0,74,53,5,7,2328,0,3455,3945,4.355,6.498,19.613,2.454,1.512,-3.175,2.260,-3.163,9.929,0.124,0.200,0.121,happy
2.12,0,0,0,0,0,0,0,0,53,150,2,3,2629,0,3768,4095,9.045,6.515,12.268,1.439,1.190,-2.153,2.423,-3.036,9.888,0.100,0.212,0.058,happy
2.13,0,0,0,0,0,0,0,0,85,15,156,0,2765,0,3803,4095,8.815,-2.088,15.038,-0.070,0.286,-1.174,2.684,-2.940,9.467,0.093,0.097,0.016,happy
2.14,0,0,0,0,0,0,0,0,63,0,0,0,2873,21,3845,4095,8.052,1.128,6.725,-0.395,0.624,-0.468,2.629,-2.909,9.519,0.073,0.025,-0.038,happy
2.15,0,0,0,0,0,0,0,0,45,0,0,0,2919,0,3823,4095,5.667,-1.250,7.879,-0.876,0.185,0.107,2.717,-2.354,8.990,-0.006,0.009,-0.070,happy
2.16,0,0,0,0,0,0,0,0,61,0,0,0,2984,10,3849,4095,5.698,0.496,8.734,-1.298,-0.167,0.582,2.497,-2.588,8.787,0.005,0.016,-0.017,happy
2.17,0,0,0,0,0,0,0,0,25,0,0,0,2981,0,3865,4095,4.563,0.599,9.948,-1.997,-0.410,0.897,2.761,-2.543,8.930,0.043,0.198,0.056,happy
2.18,0,0,0,0,0,0,0,0,17,0,48,6,3095,2,3915,4095,3.812,1.465,10.278,-2.719,-0.328,1.136,2.777,-2.734,9.060,0.024,0.247,0.059,happy
2.19,0,0,0,0,0,0,0,0,6,0,0,0,3117,0,3835,4095,2.322,1.908,9.096,-3.313,-0.262,1.285,2.559,-2.825,9.244,0.030,0.310,0.075,happy
2.20,0,0,0,0,0,0,0,0,0,0,0,0,3087,45,3784,4020,1.063,2.272,7.614,-3.660,-0.378,1.305,2.308,-2.670,9.330,0.000,0.344,0.071,happy
2.21,0,0,0,0,0,0,0,0,0,0,0,13,3131,0,3828,4007,1.899,3.141,6.965,-3.833,-0.559,1.251,2.306,-2.722,9.555,-0.050,0.303,0.053,happy
2.22,0,0,0,0,0,0,0,0,4,0,0,7,3169,0,3815,3996,2.600,4.178,7.705,-3.949,-0.468,1.231,2.296,-2.389,9.196,-0.051,0.347,0.102,happy
2.23,0,0,0,0,0,0,0,0,0,0,0,0,3225,0,3811,3967,2.660,5.140,8.703,-4.063,-0.497,1.362,2.377,-2.382,8.988,-0.112,0.415,0.187,happy
2.24,0,0,0,0,0,0,0,0,25,0,0,0,3287,0,3812,3965,2.229,6.002,9.651,-4.230,-0.511,1.537,2.686,-2.444,8.679,-0.122,0.530,0.285,happy
2.25,0,0,0,0,0,0,0,0,37,251,0,0,3353,0,3813,3951,1.487,6.656,10.403,-4.282,-0.660,1.761,2.523,-2.483,8.799,-0.153,0.647,0.338,happy
2.26,0,0,0,0,0,0,0,0,1611,2548,10,2487,2577,1671,1571,2971,1.537,8.073,11.827,-4.365,-0.635,1.938,2.588,-2.909,9.064,-0.174,0.731,0.331,happy
2.27,0,0,0,0,0,0,0,0,1611,2542,12,2485,2573,1672,1571,3101,0.812,10.396,14.552,-4.452,-0.391,2.207,1.413,-2.897,9.821,-0.194,0.628,0.325,happy
2.28,0,0,0,0,0,0,0,0,139,1253,2,3,3557,0,3752,3813,-1.915,12.009,16.067,-4.461,-0.362,2.098,1.398,-2.868,9.704,-0.203,0.246,0.262,happy
2.29,0,0,0,0,0,0,0,0,141,1455,2,12,3622,0,3791,3798,-3.105,12.673,15.320,-4.189,-0.652,1.806,2.145,-2.964,9.639,-0.209,0.163,0.297,happy
2.30,0,0,0,0,0,0,0,0,167,1693,1236,0,3661,3,3799,3773,-3.225,13.743,14.126,-3.762,-0.910,1.401,2.188,-3.452,9.414,-0.191,0.147,0.293,happy
2.31,0,0,0,0,0,0,0,0,185,1976,1916,41,3743,55,3837,3833,-2.370,15.055,12.852,-3.456,-0.994,0.849,1.906,-3.134,9.359,-0.176,0.120,0.289,happy
2.32,0,0,0,0,0,0,0,0,439,2285,2096,217,3803,44,3766,3784,-3.888,15.591,11.262,-3.307,-0.888,-0.185,1.623,-2.512,8.882,-0.244,0.260,0.274,happy
2.33,0,0,0,0,0,0,0,0,437,2345,2098,571,3811,47,3707,3743,-6.385,14.925,5.126,-2.910,-2.056,-1.218,1.707,-2.447,8.813,-0.283,0.219,0.317,happy
2.34,0,0,0,0,0,0,0,0,675,2599,2167,1213,3853,47,3452,3709,-0.850,16.525,-0.613,-1.765,-1.815,-1.346,2.006,-2.660,9.079,-0.311,0.032,0.268,happy
2.35,0,0,0,0,0,0,0,0,1967,2809,2218,1867,3854,51,3007,3240,0.208,15.627,-5.353,-0.368,-0.191,-0.618,1.551,-3.589,9.567,-0.377,-0.078,0.103,happy
2.36,0,0,0,0,0,0,0,0,2452,2921,2221,1999,3837,51,2709,2879,1.508,12.270,-6.831,2.097,1.196,-0.094,1.669,-3.670,9.586,-0.375,-0.019,0.114,happy
2.37,0,0,0,0,159,0,0,0,2999,3036,2234,2359,3739,48,1957,2131,3.417,1.470,19.613,1.110,0.686,0.755,1.709,-3.780,9.464,-0.326,0.048,0.047,happy
2.38,0,0,0,0,192,0,568,2235,3335,3183,2239,2613,3093,45,600,1207,-5.112,-6.402,5.349,2.984,-0.244,-0.040,1.317,-3.017,9.407,-0.052,0.168,0.257,happy
2.39,0,0,0,0,572,0,1302,3021,3423,3236,2244,2767,2805,19,45,1325,0.754,8.837,16.075,2.410,-0.254,-0.556,2.327,-1.159,9.615,-0.508,0.211,0.148,happy
2.40,0,0,0,0,839,0,2253,3321,3579,3147,2262,2975,1787,5,3,1007,4.587,5.042,18.644,1.831,1.509,-0.780,1.750,-3.290,9.270,-0.957,0.253,-0.030,happy
2.41,0,846,0,0,1486,0,2527,3430,3672,2634,2275,3123,571,5,3,789,0.948,4.075,14.047,0.824,1.462,-0.461,2.315,-1.911,9.641,-2.311,0.498,-0.104,happy
2.42,0,1535,0,0,1873,0,2718,3537,3674,2303,2346,3067,211,4,1,653,1.188,2.986,11.334,0.489,1.314,-0.417,2.310,-1.628,10.546,-3.279,0.742,-0.270,happy
2.43,0,2033,0,0,2256,0,2879,3580,3381,1076,2249,2351,136,3,1,529,1.123,2.806,10.281,0.467,1.061,-0.376,1.437,-1.942,12.483,-4.366,0.694,0.390,happy
2.44,0,2483,0,0,2514,0,2986,3639,3256,26,0,678,0,0,0,325,0.266,3.385,10.920,0.501,0.727,-0.303,3.084,-5.655,15.969,-4.366,0.091,1.725,happy
2.45,0,2896,790,0,2667,0,3138,3671,2798,0,0,165,0,0,0,185,1.068,3.405,10.142,0.451,0.232,-0.270,3.785,-10.625,16.158,-4.366,0.573,2.399,happy
2.46,0,3127,1808,192,2853,0,3249,3673,889,0,0,0,0,0,2,263,1.298,2.887,9.646,0.261,0.037,-0.173,-1.056,-9.792,19.613,-3.967,-0.020,3.105,happy
2.47,0,3276,2237,490,3027,0,3313,3661,0,0,0,0,0,0,0,213,1.434,3.002,9.780,0.184,0.104,-0.083,-1.377,-3.886,19.613,0.061,-0.393,3.600,happy
2.48,0,3338,2384,551,3111,0,3341,3653,0,0,0,0,0,0,0,121,1.346,2.909,9.766,0.213,0.108,-0.075,6.567,2.140,8.581,1.267,0.222,3.975,happy
2.49,3,3378,2529,722,3182,0,3344,3615,0,0,0,0,0,0,0,135,1.307,2.988,9.531,0.236,0.013,-0.107,7.851,1.745,8.236,1.871,0.379,3.149,happy
2.50,50,3422,2622,886,3227,0,3330,3568,0,0,0,0,0,0,0,121,1.281,2.981,9.541,0.229,-0.039,-0.086,9.112,0.182,7.199,2.004,0.192,2.136,happy
2.51,87,3479,2735,955,3294,0,3330,3499,0,0,33,0,0,0,0,104,1.434,3.093,9.668,0.216,-0.048,-0.087,9.213,1.137,6.922,2.308,-0.040,1.093,happy
2.52,177,3520,2832,976,3329,0,3320,3291,0,0,0,0,0,0,33,76,1.425,3.000,9.517,0.227,-0.059,-0.064,8.765,0.170,7.834,2.482,-0.547,0.005,happy
2.53,238,3536,2878,1108,3353,0,3294,3302,22,0,0,0,0,0,0,59,1.403,3.005,9.457,0.228,-0.062,-0.071,7.827,-0.642,8.289,2.823,-0.861,-0.990,happy
2.54,274,3600,2983,1259,3392,0,3248,3146,0,0,0,0,0,38,0,55,1.482,2.844,9.388,0.258,-0.054,-0.077,5.131,-0.788,8.241,3.096,-1.054,-1.631,happy
2.55,415,3648,3066,1467,3425,0,3185,2997,0,0,0,0,0,0,0,39,1.422,3.127,9.373,0.314,-0.053,-0.068,0.962,-2.406,9.764,3.528,-1.262,-1.857,happy
2.56,496,3697,3132,1661,3456,0,3118,2864,0,0,0,0,0,0,41,3,1.463,3.175,9.349,0.287,-0.069,-0.066,-0.512,-3.943,11.363,4.053,-1.248,-1.274,happy
2.57,624,3751,3261,1872,3488,0,3049,2707,0,0,0,0,0,0,0,0,1.482,3.273,9.328,0.242,-0.052,-0.080,0.292,-4.606,11.566,4.176,-1.281,-1.034,happy
2.58,805,3793,3327,2067,3504,0,2987,2559,0,0,0,17,0,0,0,0,1.413,3.431,9.524,0.211,-0.045,-0.098,2.021,-5.938,12.993,4.160,-1.560,-1.185,happy
2.59,933,3835,3376,2199,3535,0,2928,2374,0,0,23,23,0,0,0,0,1.460,3.306,9.366,0.204,-0.034,-0.106,0.089,-6.340,14.581,3.978,-1.635,-1.200,happy
2.60,1098,3867,3453,2343,3565,0,2833,2195,0,0,0,0,0,0,0,0,1.468,3.256,9.306,0.205,-0.020,-0.098,-1.587,-7.822,16.187,3.615,-2.061,-0.963,happy
2.61,1264,3902,3502,2416,3579,0,2727,1795,0,0,0,0,0,0,0,0,1.551,3.460,9.268,0.225,-0.017,-0.106,1.750,-15.572,17.557,3.092,-3.140,-1.083,happy
2.62,1435,3925,3527,2497,3600,0,2503,269,0,0,0,0,0,0,0,0,1.413,3.400,9.230,0.281,-0.067,-0.133,-2.808,-19.613,13.271,2.880,-2.912,-1.853,happy
2.63,1658,3947,3600,2583,3566,0,2224,0,0,0,0,0,0,0,0,0,1.401,3.361,9.160,0.306,-0.041,-0.127,-4.767,-19.613,8.272,2.628,-2.745,-2.059,happy
2.64,1915,3971,3637,2650,3461,0,1772,0,1188,0,0,0,2191,1972,0,11,1.566,3.318,9.352,0.445,-0.111,-0.094,-11.133,-19.613,-5.080,0.885,-1.054,-1.667,happy
2.65,2039,3984,3583,2707,3145,0,709,0,1589,2547,0,2489,2583,1663,1565,3103,1.413,3.417,9.452,0.545,-0.160,-0.114,-6.608,-19.613,-4.961,-1.281,0.087,-0.366,happy
2.66,2522,4014,3698,2738,2437,0,362,0,0,0,0,0,0,0,0,0,2.509,3.519,8.562,1.000,-0.152,-0.002,14.329,-17.588,3.232,-2.309,1.664,-1.712,happy
2.67,2723,4026,3715,2787,2224,0,240,0,0,0,0,0,0,0,0,0,1.762,3.536,8.906,1.197,-0.112,0.032,6.543,2.138,19.613,-0.669,2.643,-1.260,happy
2.68,2901,4035,3728,2848,1970,0,128,0,0,0,28,0,0,0,0,382,1.549,4.403,9.060,1.306,-0.060,0.095,0.709,9.656,12.440,-1.381,0.015,-2.318,happy
2.69,3070,4034,3743,2901,1762,0,0,0,0,0,0,0,0,0,0,1269,1.642,4.214,9.005,1.387,0.085,0.103,-9.479,9.443,1.152,-3.264,0.031,-0.843,happy
2.70,3199,4034,3742,2945,1646,0,0,0,0,0,0,0,0,0,0,1721,1.736,4.353,9.280,1.538,0.182,0.111,-11.720,-6.244,19.204,-3.523,-0.078,0.117,happy
2.71,3326,4015,3733,2960,1427,0,0,0,0,0,0,0,0,0,1,2393,1.774,3.661,9.237,1.884,0.361,0.204,-7.120,-9.682,16.357,-2.616,-0.179,0.327,happy
2.72,3439,3986,3701,2939,1306,0,0,0,0,0,7,0,0,0,389,2984,2.274,2.998,9.687,2.217,0.453,0.237,2.121,-1.025,12.110,-2.297,-0.661,0.639,happy
2.73,3535,3929,3653,2818,1018,0,0,0,0,0,0,0,0,0,891,3315,3.081,2.950,9.955,2.788,0.606,0.280,7.719,-6.788,11.044,-2.071,-0.830,0.200,happy
2.74,3583,3747,3514,2409,879,0,0,0,0,0,0,0,0,0,1357,3594,2.713,3.922,11.547,3.537,0.413,0.261,6.170,-3.675,9.131,-1.630,-0.345,0.268,happy
2.75,3625,3098,2845,2019,331,0,0,0,0,0,0,0,68,0,1910,3615,-0.821,1.724,11.753,4.159,0.372,0.079,2.981,-5.174,16.309,-0.949,1.234,1.059,happy
2.76,3533,2283,1633,755,0,0,0,0,0,0,0,0,68,0,1910,3615,2.923,7.051,14.246,5.598,-0.652,-0.921,2.981,-5.174,16.309,-0.949,1.234,1.059,happy
2.77,3188,1304,110,237,0,0,0,0,0,0,7,0,693,0,2827,4095,4.056,5.476,13.029,6.043,0.019,-1.442,3.917,-2.385,8.064,-0.236,1.174,0.598,happy
2.78,2674,795,0,0,0,0,0,0,0,0,0,0,1013,0,2959,4095,2.574,9.076,10.908,7.261,0.084,-1.790,0.479,-3.941,11.969,-0.339,1.013,0.541,happy
2.79,1807,143,0,0,0,0,0,0,0,0,0,0,1321,0,3101,4095,3.270,9.419,7.666,7.521,0.454,-2.162,1.331,-3.472,10.412,-0.226,0.778,0.487,happy
2.80,1185,0,0,0,0,0,0,0,0,0,0,16,1577,0,3188,4095,1.008,10.740,9.428,6.850,0.549,-2.159,1.518,-3.199,10.202,-0.130,0.828,0.442,happy
2.81,431,0,0,0,0,0,0,0,111,0,0,0,1711,0,3339,4095,1.271,10.190,19.613,4.468,-0.996,-1.922,2.083,-3.129,9.685,-0.110,0.711,0.405,happy
2.82,0,0,0,0,0,0,0,0,19,0,7,0,1887,1,3401,4095,6.541,3.342,19.613,1.459,-0.961,-2.372,2.160,-3.206,9.548,-0.054,0.726,0.328,happy
2.83,0,0,0,0,0,0,0,0,121,0,0,4,2035,0,3447,4095,12.172,10.252,19.486,-0.403,0.211,-1.350,1.937,-3.139,9.141,-0.038,0.578,0.252,happy
2.84,0,0,0,0,0,0,0,0,116,0,15,0,2142,0,3500,4095,6.172,-0.412,12.359,-1.573,0.824,-1.167,1.683,-2.722,9.361,-0.196,0.298,0.066,happy
2.85,0,0,0,0,0,0,0,0,187,0,0,0,2197,0,3557,4095,2.756,-1.422,8.724,-2.290,0.544,-0.744,1.858,-3.292,9.694,-0.026,0.349,0.118,happy
2.86,0,0,0,0,0,0,0,0,102,0,0,68,2275,0,3546,4095,1.575,-0.474,8.183,-2.370,-0.620,-0.362,1.571,-2.921,9.002,-0.115,0.213,0.102,happy
2.87,0,0,0,0,0,0,0,0,103,0,23,19,2323,0,3556,4095,3.280,1.003,9.498,-2.811,-1.131,-0.083,1.714,-2.823,9.294,-0.031,0.315,0.153,happy
2.88,0,0,0,0,0,0,0,0,113,0,112,111,2335,0,3530,4095,4.539,1.810,10.580,-3.357,-0.812,0.205,1.774,-3.055,9.510,-0.034,0.297,0.190,happy
2.89,0,0,0,0,0,0,0,0,165,201,2,275,2345,2,3526,4095,2.799,2.861,9.402,-4.122,-0.452,0.290,1.628,-2.959,9.239,-0.090,0.240,0.175,happy
2.90,0,0,0,0,0,0,0,0,227,452,923,391,2406,42,3493,4095,0.833,3.203,7.977,-4.456,-0.588,0.345,1.578,-3.031,9.443,-0.076,0.216,0.178,happy
2.91,0,0,0,0,0,0,0,0,155,691,1236,595,2429,36,3464,4095,-0.484,3.548,7.822,-4.537,-0.976,0.227,1.511,-3.017,9.483,-0.114,0.209,0.177,happy
2.92,0,0,0,0,0,0,0,0,157,703,1399,779,2487,37,3412,4095,-0.924,4.393,8.531,-4.602,-1.402,0.038,1.362,-3.115,9.663,-0.113,0.147,0.179,happy
2.93,0,0,0,0,0,0,0,0,152,776,1934,939,2525,35,3444,4095,-1.221,5.507,9.773,-4.681,-1.713,-0.146,1.439,-3.259,9.562,-0.096,0.131,0.196,happy
2.94,0,0,0,0,0,0,0,0,188,1004,2027,1305,2645,40,3449,4095,-0.584,7.396,11.128,-4.849,-1.867,-0.370,1.860,-3.251,9.301,-0.029,0.127,0.181,happy
2.95,0,0,0,0,0,0,0,0,164,1173,2065,1454,2732,39,3461,4095,1.075,9.440,11.267,-4.798,-1.938,-0.311,1.166,-3.177,9.804,-0.082,0.036,0.164,happy
2.96,0,0,0,0,0,0,0,0,281,1544,2003,1645,2915,47,3500,4095,3.357,11.712,12.658,-4.376,-1.847,0.473,1.386,-3.041,9.306,-0.112,0.011,0.155,happy
2.97,0,0,0,0,0,0,0,0,477,1627,2147,2031,3045,47,3506,4095,1.539,12.476,13.853,-3.922,-1.549,1.340,1.267,-3.560,9.893,-0.125,0.087,0.193,happy
2.98,0,0,0,0,0,0,0,0,712,1854,2147,2249,3107,48,3479,4083,0.239,14.176,13.937,-3.314,-1.322,1.604,1.642,-3.512,9.019,-0.123,0.052,0.132,happy
2.99,0,0,0,0,0,0,0,0,1630,2263,2190,2424,3229,46,3340,4019,0.479,17.832,14.291,-3.210,-1.082,1.802,1.300,-3.203,9.380,-0.209,-0.042,0.106,happy
3.00,0,0,0,0,0,0,0,0,2515,2503,2203,2681,3320,50,2919,3876,-0.378,16.398,5.789,-2.867,-0.810,2.333,1.504,-3.421,9.653,-0.268,-0.065,0.036,happy
3.01,0,0,0,0,0,0,0,0,2869,2623,2224,2763,3367,41,2515,3773,-6.428,14.775,0.409,-1.614,-0.509,2.403,1.753,-4.436,8.583,-0.210,-0.001,0.037,happy
3.02,0,0,0,0,214,0,0,0,3385,2792,2226,2968,3401,53,1869,3063,-6.381,17.882,-2.756,-0.552,-0.648,1.778,1.463,-3.191,9.409,-0.513,-0.087,-0.041,happy
3.03,0,0,0,0,208,0,0,0,3671,2975,2239,3119,3307,47,729,1839,-3.498,9.148,-4.525,1.765,0.274,1.063,0.917,-3.302,8.636,-0.432,-0.002,-0.002,happy
3.04,0,0,0,0,219,0,0,0,3821,3048,2185,3177,2973,37,381,1531,3.218,6.330,18.744,1.290,1.626,-0.026,1.616,-4.298,9.122,-0.357,0.070,0.041,happy
3.05,0,0,0,0,251,0,53,11,3951,3056,2270,3283,2293,0,39,997,2.246,-3.510,5.294,1.366,0.333,0.091,1.111,-4.017,8.961,-0.567,0.161,-0.054,happy
3.06,0,0,0,0,363,0,465,2112,3977,3144,2247,3335,1817,5,3,892,-1.686,-0.735,10.204,2.989,0.061,-0.033,1.185,-3.773,9.117,-0.580,0.202,-0.078,happy
3.07,0,0,0,0,478,0,880,2928,4057,3081,2265,3463,887,6,3,761,-0.235,5.341,13.838,2.524,-0.608,0.014,1.381,-4.156,9.957,-0.709,0.188,-0.086,happy
3.08,0,0,0,0,813,0,1913,3242,4061,2637,2157,3492,311,4,3,567,4.458,4.238,10.855,1.908,-0.360,0.091,1.853,-3.151,9.464,-1.422,0.301,-0.182,happy
3.09,0,614,0,0,1356,0,2449,3383,4060,2115,2359,3420,119,5,1,402,4.446,4.848,8.729,0.872,1.251,-0.284,3.146,-2.902,10.472,-2.639,0.655,-0.296,happy
3.10,0,1447,0,0,1867,0,2727,3518,4095,1891,2423,3349,8,2,0,344,0.855,3.093,10.898,0.525,1.338,-0.367,3.869,-3.785,11.068,-3.185,0.950,-0.206,happy
3.11,0,2070,0,0,2233,0,2893,3622,4043,680,1940,2639,0,0,0,227,0.682,3.958,11.241,0.413,1.018,-0.364,1.307,-2.796,13.721,-4.347,0.721,1.143,happy
3.12,0,2542,0,0,2487,0,3010,3679,3375,31,0,749,0,0,0,73,1.571,3.177,9.864,0.236,0.903,-0.491,3.182,-7.582,13.412,-4.366,0.214,2.757,happy
3.13,0,2768,23,0,2559,0,3106,3706,2839,0,0,301,0,0,0,79,0.371,3.728,11.413,0.207,0.423,-0.398,3.072,-7.503,11.928,-4.366,0.423,3.011,happy
3.14,0,2919,390,0,2706,0,3169,3724,2232,0,0,103,37,0,0,55,1.652,2.653,10.125,0.181,0.332,-0.371,3.017,-10.824,12.378,-4.366,0.636,3.409,happy
3.15,48,3109,1323,0,2837,0,3254,3728,1596,2551,0,2488,2581,1661,1565,3107,1.575,3.048,9.768,0.139,0.071,-0.072,-0.012,-8.940,15.617,-3.897,0.523,3.356,happy
3.16,187,3246,1918,5,2954,0,3307,3729,0,35,0,0,0,0,0,9,1.384,2.945,9.752,0.072,0.147,0.010,1.508,-10.123,19.592,-0.372,-0.271,3.153,happy
3.17,237,3294,2115,207,3008,0,3363,3717,5,0,0,0,3,4,0,3,1.544,2.799,9.716,0.103,0.136,-0.018,5.794,3.019,11.389,0.741,0.162,2.864,happy
3.18,274,3344,2267,369,3063,0,3327,3707,0,0,0,0,0,47,0,7,1.305,2.849,9.764,0.132,0.065,-0.036,8.001,0.555,8.732,1.157,-0.063,1.914,happy
3.19,295,3398,2394,480,3120,0,3338,3691,0,0,0,0,0,0,0,1,1.329,2.727,9.577,0.156,0.014,-0.034,7.882,-0.165,8.502,1.418,-0.484,0.965,happy
3.20,330,3427,2529,611,3174,0,3321,3641,0,0,94,0,0,0,0,3,1.367,2.725,9.543,0.199,-0.017,-0.039,7.831,-0.199,9.527,1.903,-0.622,0.064,happy
3.21,413,3462,2658,695,3225,0,3312,3583,0,0,0,0,0,0,0,0,1.362,2.971,9.550,0.193,-0.030,-0.050,5.940,-1.109,10.870,2.460,-0.950,-0.810,happy
3.22,400,3529,2765,930,3275,0,3287,3473,0,0,0,0,0,0,8,0,1.374,2.938,9.522,0.176,-0.019,-0.040,1.822,-1.638,9.309,3.461,-1.402,-1.706,happy
3.23,427,3563,2820,1021,3294,0,3277,3409,0,0,0,0,0,0,0,0,1.408,2.911,9.407,0.164,-0.009,-0.033,-0.960,-1.441,8.135,3.659,-1.456,-1.650,happy
3.24,489,3602,2921,1098,3344,0,3251,3302,0,0,0,0,35,0,0,0,1.458,2.806,9.349,0.181,-0.003,-0.039,-2.239,-1.784,8.849,3.744,-1.521,-1.368,happy
3.25,560,3669,3030,1328,3376,0,3230,3206,5,0,0,0,0,0,0,0,1.413,2.895,9.376,0.220,-0.023,-0.063,-1.709,-3.625,11.298,4.184,-1.505,-0.644,happy
3.26,688,3714,3106,1575,3413,0,3206,3097,0,0,0,0,0,0,0,0,1.312,3.010,9.421,0.200,0.021,-0.093,-0.910,-4.638,11.631,4.299,-1.761,-0.469,happy
3.27,805,3733,3222,1759,3442,0,3185,3011,0,0,0,0,0,8,0,0,1.384,3.033,9.378,0.159,0.053,-0.130,-0.661,-4.726,12.325,4.226,-1.978,-0.590,happy
3.28,930,3781,3295,1979,3452,0,3159,2949,0,0,0,0,0,0,0,0,1.511,3.005,9.275,0.187,0.034,-0.149,0.309,-6.009,15.464,4.103,-1.822,-0.829,happy
3.29,1131,3819,3347,2240,3483,0,3090,2858,0,0,0,0,0,0,0,0,1.410,3.335,9.586,0.179,0.040,-0.125,0.821,-8.492,17.595,3.579,-1.696,-1.335,happy
3.30,1289,3856,3458,2457,3506,0,3015,2671,0,0,0,0,0,0,0,0,1.381,3.160,9.440,0.193,0.016,-0.096,1.027,-13.398,19.613,3.639,-1.278,-1.728,happy
3.31,1459,3885,3521,2618,3536,0,2896,2229,0,0,0,0,0,0,0,0,1.547,2.993,9.297,0.274,-0.037,-0.140,-5.085,-19.089,14.708,3.416,-1.370,-2.489,happy
3.32,1678,3888,3519,2714,3504,0,2585,1393,0,0,0,0,0,0,0,0,1.293,3.201,9.505,0.317,-0.080,-0.124,-9.105,-19.613,-3.321,1.827,-0.213,-2.409,happy
3.33,1990,3951,3643,2871,3497,0,2160,0,3,0,0,0,16,0,0,0,1.425,3.639,9.392,0.404,-0.075,-0.089,-15.447,-19.613,-4.164,0.733,-1.041,-1.355,happy
3.34,2334,3978,3682,2977,3306,0,1526,0,0,0,0,0,0,0,0,0,1.360,3.402,9.471,0.474,0.022,-0.035,-3.330,-18.821,-1.231,-0.988,-0.751,-0.508,happy
3.35,2659,4003,3707,3096,2494,0,339,0,0,0,0,0,0,0,0,0,1.147,4.681,8.964,0.586,0.149,-0.215,7.456,-1.401,12.929,-1.336,0.701,-0.194,happy
3.36,2807,4028,3666,3155,2143,0,226,0,0,0,0,0,0,0,0,163,1.460,3.227,9.582,0.993,0.040,0.076,5.258,4.319,15.962,-0.181,0.304,0.058,happy
3.37,2993,4016,3744,3206,1874,0,112,0,0,0,0,0,0,0,0,806,1.492,3.766,9.318,1.151,0.103,0.121,6.766,5.741,1.269,-2.243,-0.593,-0.344,happy
3.38,3141,4022,3761,3251,1577,0,0,0,0,0,0,0,0,0,0,1464,1.539,3.893,9.498,1.277,0.213,0.183,0.043,-0.570,6.919,-2.760,-0.162,-0.081,happy
3.39,3248,4019,3760,3284,1425,0,0,0,0,0,0,0,0,0,0,2143,1.410,4.041,8.851,1.452,0.266,0.181,-5.581,-6.163,16.355,-2.489,-0.120,0.033,happy
3.40,3295,3987,3603,3329,1136,0,0,0,0,0,0,0,0,0,154,2750,2.516,3.369,9.424,1.738,0.382,0.227,-4.243,-2.358,14.004,-2.182,-0.133,0.538,happy
3.41,3537,3929,3751,3331,944,0,0,0,0,0,0,0,0,0,503,3239,3.251,3.270,9.646,2.365,0.743,0.408,5.241,-3.972,11.138,-2.193,-0.431,0.509,happy
3.42,3622,3792,3696,3270,719,0,0,0,0,0,0,0,43,0,917,3511,3.117,4.010,10.460,2.805,0.790,0.452,4.683,-4.887,10.515,-1.925,-0.295,0.176,happy
3.43,3707,2898,3403,2549,0,0,0,0,0,0,0,7,13,0,1558,3675,2.480,4.626,10.927,3.766,0.702,0.158,-0.946,-9.594,13.120,-1.182,1.152,1.066,happy
3.44,3702,2535,2790,2212,0,0,0,0,0,0,0,0,199,0,2004,3783,1.068,4.630,9.713,4.607,0.390,-0.578,4.568,-5.851,9.998,-0.865,0.879,0.372,happy
3.45,3712,1778,2055,1801,0,0,0,0,0,0,0,0,427,0,2377,3867,2.093,5.641,15.617,5.564,0.547,-1.365,2.246,-4.216,11.887,-0.539,1.005,0.581,happy
3.46,3329,841,0,351,0,0,0,0,51,0,0,0,895,0,2745,4087,2.095,6.809,13.640,6.729,0.676,-2.303,0.587,-3.402,10.805,-0.332,0.853,0.537,happy
3.47,2531,101,0,0,0,0,0,0,41,0,0,7,1075,0,2909,4095,0.553,5.921,12.711,6.781,0.852,-2.732,1.487,-3.268,9.816,-0.276,0.566,0.423,happy
3.48,1535,0,0,0,0,0,0,0,35,0,0,0,1335,1,3016,4095,2.576,10.266,8.006,6.814,1.316,-2.916,1.022,-3.476,10.175,-0.290,0.372,0.322,happy
3.49,898,0,0,0,0,0,0,0,79,0,0,91,1546,0,3163,4095,-1.113,12.845,15.124,5.047,1.108,-2.156,1.300,-3.431,9.582,-0.235,0.254,0.272,happy
3.50,169,0,0,0,0,0,0,0,79,0,0,91,1546,0,3163,4095,2.614,5.820,19.613,1.983,0.079,-2.414,1.300,-3.431,9.582,-0.235,0.254,0.272,happy
3.51,0,0,0,0,0,0,0,0,139,0,0,316,1911,0,3385,4095,16.197,12.579,13.906,0.761,-0.028,-1.258,1.707,-3.539,9.711,-0.032,0.229,0.143,happy
3.52,108,0,0,0,0,0,0,0,263,0,0,409,2055,1,3444,4095,6.637,-1.516,11.722,-1.055,0.323,-0.864,1.650,-3.259,9.491,-0.020,0.191,0.095,happy
3.53,201,0,0,0,0,0,0,0,190,152,0,531,2199,3,3534,4095,4.779,-1.302,5.914,-1.474,0.087,-0.168,1.765,-3.086,9.179,-0.037,0.143,0.084,happy
3.54,172,0,0,0,0,0,0,0,150,406,0,549,2217,3,3513,4095,2.128,-0.733,6.543,-1.413,-0.767,0.319,1.827,-3.036,9.167,-0.027,0.133,0.108,happy
3.55,32,0,0,0,0,0,0,0,157,637,923,676,2314,25,3566,4095,1.607,1.319,11.107,-1.994,-1.528,0.402,1.709,-3.108,9.373,-0.056,0.191,0.124,happy
3.56,0,0,0,0,0,0,0,0,117,727,1256,763,2349,30,3563,4095,1.695,1.970,11.468,-2.870,-1.850,0.442,1.439,-3.182,9.395,-0.074,0.224,0.151,happy
3.57,0,0,0,0,0,0,0,0,169,779,1374,947,2373,37,3525,4095,1.269,2.447,10.125,-3.780,-1.006,0.383,1.355,-3.153,9.529,-0.059,0.207,0.155,happy
3.58,0,0,0,0,0,0,0,0,199,743,1335,1049,2395,42,3487,4095,-1.379,2.471,8.071,-4.204,-0.990,0.227,1.310,-3.316,9.639,-0.026,0.134,0.126,happy
3.59,0,0,0,0,0,0,0,0,142,701,1794,1352,2419,63,3455,4095,-0.864,2.727,6.905,-4.356,-1.517,-0.313,1.769,-3.112,9.158,-0.010,0.160,0.131,happy
3.60,0,0,0,0,0,0,0,0,167,941,1988,1523,2467,39,3400,4095,-0.493,4.652,9.632,-4.386,-1.774,-0.518,0.984,-3.089,9.304,-0.130,0.156,0.234,happy
3.61,0,0,0,0,0,0,0,0,314,1343,2057,1788,2537,46,3339,4095,0.632,6.419,11.317,-4.573,-1.947,-0.368,0.658,-2.758,9.349,-0.159,0.059,0.222,happy
3.62,0,0,0,0,0,0,0,0,421,1447,2047,1967,2631,47,3327,4095,-2.155,7.532,12.749,-4.480,-2.347,-0.033,0.745,-2.856,9.524,-0.164,0.054,0.211,happy
3.63,0,0,0,0,0,0,0,0,620,1707,2119,2364,2777,52,3304,4085,-2.217,10.965,14.878,-4.460,-2.568,0.078,1.092,-3.366,9.627,-0.136,0.045,0.149,happy
3.64,0,0,0,0,0,0,0,0,1419,2045,2172,2587,2893,49,3172,4095,-5.112,12.708,16.427,-4.241,-2.534,0.131,1.334,-3.725,9.625,-0.122,-0.034,0.071,happy
3.65,0,0,0,0,0,0,0,0,1846,2188,2178,2743,2967,45,3089,4012,-6.665,14.514,13.953,-3.839,-2.524,0.020,1.305,-3.385,9.249,-0.133,-0.045,0.065,happy
3.66,0,0,0,0,0,0,0,0,2643,2379,2198,2923,3027,46,2641,3893,-5.504,14.988,8.459,-3.036,-2.268,-0.067,1.226,-3.512,9.596,-0.183,-0.018,0.038,happy
3.67,0,0,0,0,0,0,0,0,3061,2541,2085,3087,3091,5,1962,3655,-1.611,14.748,2.504,-1.755,-0.911,0.411,1.281,-3.508,9.594,-0.210,-0.018,0.023,happy
3.68,0,0,0,0,0,0,0,0,3161,2619,2229,3131,3064,3,1611,3371,-4.594,16.752,-0.876,-0.429,-0.662,1.289,1.314,-3.651,9.536,-0.185,0.021,0.024,happy
3.69,0,0,0,0,0,0,0,0,3417,2667,2162,3161,2742,47,839,2525,-5.361,19.613,-7.094,1.015,1.237,1.860,1.417,-3.905,9.457,-0.180,0.106,0.024,happy
3.70,0,0,0,0,0,0,0,0,3587,2751,2203,3224,2299,45,357,1660,1.506,4.714,14.176,1.420,2.159,0.299,1.477,-3.534,9.182,-0.169,0.184,0.056,happy
3.71,0,0,0,0,176,0,84,6,3672,2775,2208,3295,2035,17,55,1431,0.950,2.076,19.613,1.104,1.197,0.409,1.516,-4.099,9.266,-0.218,0.232,0.045,happy
3.72,0,0,0,0,267,0,471,2011,3739,2715,2249,3352,1805,5,1,1295,-1.949,-2.279,1.781,2.810,0.633,-0.675,1.252,-4.748,8.873,-0.248,0.244,0.059,happy
3.73,0,0,0,0,727,0,1169,2755,3868,2587,2183,3491,841,4,2,950,1.487,9.057,15.170,2.082,-0.522,-0.590,1.202,-3.582,9.376,-0.461,0.259,-0.105,happy
3.74,0,298,0,0,848,0,1915,3109,3950,2507,2244,3637,459,4,0,667,3.033,5.969,11.315,0.763,1.148,-0.269,1.978,-3.840,9.998,-0.733,0.434,-0.304,happy
3.75,0,1136,0,0,1247,0,2079,3230,4013,2339,2259,3709,215,5,1,696,-1.413,3.529,12.242,0.439,1.300,-0.337,1.267,-3.610,10.422,-1.006,0.324,-0.297,happy
3.76,0,1856,0,0,1616,0,2256,3327,4095,1851,2354,3738,0,0,46,511,-1.374,4.456,12.366,0.584,0.455,-0.166,2.231,-2.988,9.349,-2.303,0.525,-0.389,happy
3.77,582,2267,208,0,1918,0,2448,3414,4061,1015,2439,3577,0,0,0,251,-0.144,3.503,10.894,0.477,0.265,-0.161,1.611,-3.227,8.871,-3.364,1.167,-0.182,happy
3.78,1035,2645,1223,503,2163,0,2691,3520,4030,631,2372,3315,0,0,0,184,0.804,3.220,9.651,0.509,0.048,-0.160,1.760,-2.342,9.661,-3.959,1.385,0.313,happy
3.79,1433,2879,1965,874,2343,0,2869,3583,3751,37,0,2211,0,0,30,200,1.027,3.333,9.469,0.437,-0.148,-0.225,1.671,-6.258,14.952,-4.366,0.957,1.789,happy
3.80,1707,3030,2297,1424,2554,0,2975,3636,2918,0,17,445,7,0,0,18,0.654,3.172,9.833,0.320,-0.233,-0.050,0.898,-13.872,15.004,-4.366,1.138,2.209,happy
3.81,2070,3161,2480,1718,2820,0,3098,3665,2228,39,0,39,0,0,0,255,0.941,3.302,9.562,0.136,-0.046,-0.028,1.525,-9.258,9.776,-4.366,1.586,2.901,happy
3.82,2381,3243,2640,1961,2889,0,3182,3680,1589,2549,0,2486,2583,1657,1671,3112,1.233,3.297,9.507,0.230,-0.091,0.018,-3.074,-1.839,19.613,-1.063,1.375,3.075,happy
3.83,2593,3331,2743,2107,2968,0,3219,3667,1587,2567,0,2494,2583,1671,1575,3087,1.384,3.448,9.527,0.211,-0.055,0.001,0.397,-12.584,16.522,0.355,0.863,2.805,happy
3.84,2678,3361,2793,2193,3005,0,3183,3575,0,11,0,0,0,0,0,0,1.240,3.443,9.400,0.158,-0.043,0.006,5.847,0.907,7.247,0.853,0.579,1.433,happy
3.85,2815,3433,2875,2291,3039,0,3213,3578,0,0,53,0,0,0,0,0,1.142,3.419,9.428,0.181,-0.072,0.012,6.060,0.215,8.418,1.190,0.684,0.526,happy
3.86,2871,3459,2913,2346,3039,0,3187,3520,0,0,0,0,0,0,0,0,1.243,3.417,9.347,0.185,-0.083,0.014,4.966,-0.067,10.360,1.668,0.419,-0.412,happy
3.87,2944,3505,2985,2413,3062,0,3157,3421,0,0,0,0,0,0,0,1,1.286,3.515,9.354,0.171,-0.076,-0.010,1.034,-0.922,9.440,2.759,-0.191,-1.449,happy
3.88,3007,3561,3005,2448,3105,0,3127,3350,0,0,0,0,0,0,0,0,1.334,3.582,9.292,0.137,-0.051,0.001,0.472,-2.368,8.973,3.349,-0.001,-1.383,happy
3.89,3056,3583,3062,2473,3149,0,3129,3309,0,0,0,0,0,3,0,0,1.281,3.474,9.179,0.103,-0.054,-0.012,1.437,-3.548,9.917,3.705,0.253,-1.352,happy
3.90,3081,3621,3097,2493,3212,0,3136,3285,0,0,0,0,0,0,0,0,1.362,3.460,9.270,0.090,-0.051,-0.017,2.823,-4.958,9.713,4.169,0.188,-1.644,happy
3.91,3120,3643,3116,2501,3271,0,3155,3282,0,0,0,0,0,0,0,0,1.326,3.496,9.234,0.091,-0.076,-0.024,6.661,-7.278,10.163,4.240,0.396,-2.580,happy
3.92,3149,3682,3166,2502,3340,0,3179,3285,0,0,0,0,0,0,0,0,1.401,3.455,9.203,0.108,-0.077,-0.028,7.319,-8.329,10.781,4.234,0.380,-3.275,happy
3.93,3171,3691,3187,2499,3375,0,3198,3251,0,0,0,0,0,0,0,0,1.350,3.474,9.292,0.121,-0.080,-0.027,11.928,-12.321,12.842,4.086,0.521,-4.366,happy
3.94,3152,3632,3181,2433,3399,81,3136,3152,0,0,0,0,0,0,0,0,1.472,3.426,9.316,0.132,-0.108,-0.031,13.635,-19.613,11.732,3.854,1.217,-4.366,happy
3.95,3225,3742,3247,2476,3469,16,3189,3054,0,0,0,0,0,0,0,0,1.504,3.546,9.258,0.179,-0.125,-0.045,12.148,-19.613,8.126,3.476,1.417,-4.366,happy
3.96,3257,3760,3264,2481,3500,23,3157,2815,0,0,0,0,0,0,0,0,1.602,3.539,9.263,0.182,-0.119,-0.047,2.892,-19.613,3.091,1.758,0.189,-4.366,happy
3.97,3283,3787,3259,2472,3534,16,3063,2601,0,0,0,0,0,0,0,0,1.551,3.524,9.222,0.185,-0.104,-0.035,-4.717,-16.704,5.643,0.286,-3.520,-3.645,happy
3.98,3305,3810,3290,2431,3536,0,2950,2286,43,0,0,0,0,0,0,0,1.585,3.701,9.323,0.192,-0.097,-0.023,2.765,-16.285,1.870,0.057,-3.629,-2.268,happy
3.99,3323,3828,3296,2327,3505,0,2772,1773,0,0,0,0,0,0,0,361,1.551,3.651,9.330,0.196,-0.085,-0.030,3.601,-19.613,-7.736,-2.505,-1.125,-2.390,happy
4.00,3325,3842,3295,2175,3451,0,2457,1019,0,0,0,0,2,0,55,1321,1.599,3.675,9.292,0.233,-0.093,-0.037,-14.375,-7.752,19.613,-1.465,1.040,-0.485,happy
4.01,3330,3856,3325,1961,3376,0,2030,0,1589,2597,0,2527,2601,1671,1613,3151,1.674,3.656,9.251,0.286,-0.111,-0.056,-18.830,-0.407,17.068,-1.614,-0.019,-0.450,happy
4.02,3321,3856,3313,1748,3258,0,1425,0,109,0,0,0,41,0,810,2888,1.482,3.900,9.263,0.345,-0.145,-0.060,13.872,-19.407,18.545,0.115,2.632,0.719,happy
4.03,3287,3869,3298,1459,3045,0,752,0,288,0,0,0,505,17,1461,3341,1.326,4.211,9.340,0.387,-0.162,-0.134,4.738,-4.010,7.910,-0.396,0.105,0.237,happy
4.04,3217,3837,3173,877,2459,0,314,0,319,319,46,141,757,1,1771,3337,2.385,3.682,9.728,0.349,-0.041,-0.273,2.947,-4.729,10.482,-0.448,-0.060,0.299,happy
4.05,2906,3570,2880,362,1840,0,130,0,1593,2549,63,2531,2577,1662,1567,3103,1.645,3.771,9.055,0.573,-0.113,-0.138,1.276,-2.971,9.436,-0.448,0.122,0.324,happy
4.06,2874,3667,2758,322,1557,0,0,0,819,1289,1238,684,1831,47,2459,3747,1.247,4.164,9.024,0.539,-0.004,-0.224,1.571,-4.336,9.749,-0.386,0.039,0.244,happy
4.07,2545,3461,2710,97,1506,0,0,0,889,1487,1653,910,2003,46,2585,3776,1.252,3.321,8.677,0.478,-0.101,-0.555,1.168,-5.057,10.513,-0.154,0.008,0.080,happy
4.08,2247,3365,2298,0,1151,0,0,0,1015,1763,1937,916,2402,51,2745,3785,-2.282,2.200,10.551,0.332,-0.505,-1.543,1.432,-3.694,9.287,-0.039,-0.024,0.027,happy
4.09,1938,3183,1015,0,916,0,0,0,1094,1935,1873,975,2629,47,2968,3863,0.414,3.136,10.424,0.215,-1.473,-3.017,1.437,-3.699,9.306,-0.003,-0.059,-0.011,happy
4.10,1393,2723,0,0,624,0,0,0,1096,2029,1876,1031,2671,51,2999,3837,-0.330,4.082,11.655,-0.407,-2.422,-4.206,1.609,-3.666,9.266,0.034,-0.001,-0.023,happy
4.11,783,1730,0,0,278,0,0,0,1008,1977,1893,1196,2711,46,3103,3883,1.178,5.624,9.431,-1.306,-3.305,-4.787,1.487,-3.510,9.203,0.036,0.100,-0.015,happy
4.12,304,174,0,0,223,0,0,0,885,1880,1957,1390,2651,49,3227,4005,-3.900,9.601,6.653,-2.152,-3.906,-5.569,1.494,-3.778,9.342,0.080,0.126,-0.048,happy
4.13,96,0,0,0,187,0,0,0,813,1848,2019,1386,2551,38,3259,4057,0.347,16.403,10.156,-3.188,-3.017,-6.978,1.441,-3.687,9.316,0.125,0.132,-0.062,happy
4.14,50,0,0,0,0,0,0,0,781,1719,1988,1375,2323,48,3259,4079,-0.208,12.658,1.544,-2.988,-2.863,-6.933,1.346,-3.486,9.380,0.060,0.133,-0.001,happy
4.15,0,0,0,0,0,0,0,0,761,1509,1993,1527,2069,48,3239,4095,2.253,12.270,2.703,-2.299,-2.496,-6.524,1.360,-3.577,9.294,0.043,0.116,-0.032,happy
4.16,0,0,0,0,0,0,0,0,717,1455,1998,1555,2021,47,3207,4095,2.229,9.366,3.548,-1.521,-1.929,-5.747,1.338,-3.529,9.345,0.050,0.117,-0.030,happy
4.17,0,0,0,0,81,0,0,0,603,1335,1993,1621,1895,51,3111,4095,2.090,7.824,6.103,-0.926,-1.580,-4.619,1.274,-3.529,9.309,0.062,0.118,-0.028,happy
4.18,0,0,0,0,63,0,0,0,529,1287,1993,1651,1896,47,3067,4095,1.472,5.816,7.259,-0.539,-1.195,-3.620,1.281,-3.512,9.287,0.044,0.102,-0.036,happy
4.19,0,0,0,0,30,0,0,0,503,1235,1998,1699,1839,47,3053,4095,0.335,4.659,8.911,-0.253,-0.767,-2.953,1.281,-3.457,9.400,0.029,0.102,-0.032,happy
4.20,0,0,0,0,65,0,0,0,345,1298,1993,1775,1781,47,3049,4095,0.584,3.519,9.242,-0.222,-0.170,-2.987,1.252,-3.481,9.349,-0.027,0.100,0.003,happy
4.21,0,0,0,0,105,0,0,0,245,1103,1983,1823,1725,45,3038,4095,1.274,2.665,10.271,-0.194,-0.258,-3.017,1.286,-3.450,9.321,-0.060,0.082,0.000,happy
4.22,0,0,0,0,112,0,0,0,231,1126,1837,1899,1701,43,2989,4095,2.380,1.863,10.590,-0.357,-0.392,-2.997,1.243,-3.460,9.345,-0.086,0.080,-0.007,happy
4.23,0,0,0,0,143,0,0,0,261,1172,1919,2039,1548,7,2927,4095,2.126,1.470,10.590,-0.537,-0.586,-2.822,1.264,-3.598,9.412,-0.088,0.093,0.004,happy
4.24,0,0,0,0,253,0,0,0,190,1133,2032,2079,1451,38,2919,4095,1.867,1.504,10.216,-0.631,-0.530,-2.773,1.199,-3.673,9.443,-0.077,0.085,-0.021,happy
4.25,0,0,0,0,253,0,0,0,187,1209,1993,2111,1465,37,2919,4095,1.942,2.284,9.871,-0.773,-0.281,-2.865,1.164,-3.589,9.421,-0.068,0.086,-0.037,happy
4.26,0,0,0,0,220,0,0,0,168,1143,1993,2165,1370,39,2908,4095,2.617,2.646,8.981,-0.749,-0.006,-2.993,1.049,-3.632,9.306,-0.031,0.092,-0.036,happy
4.27,0,0,0,0,176,0,0,0,87,1195,1947,2201,1311,44,2969,4095,4.599,3.177,8.823,-0.639,-0.002,-2.800,1.176,-3.601,9.402,-0.023,0.087,-0.024,happy
4.28,0,0,0,0,128,0,0,0,87,1149,1965,2223,1238,22,2893,4095,7.240,3.294,7.568,-0.420,-0.045,-2.038,1.166,-3.589,9.414,-0.023,0.095,-0.012,happy
4.29,0,0,0,0,0,0,0,0,89,1182,1911,2219,1117,25,2892,4095,16.652,1.484,3.508,0.323,-1.803,-1.104,1.080,-3.582,9.335,-0.026,0.084,-0.004,happy
4.30,0,589,0,0,511,0,0,996,121,1223,1906,2219,1075,30,2839,4095,7.523,0.285,2.698,-0.249,0.413,0.109,1.044,-3.658,9.388,-0.009,0.078,0.009,happy
4.31,0,1398,0,0,979,0,246,1826,123,1215,1891,2206,910,28,2813,4095,3.527,2.155,8.607,0.350,-0.354,0.494,0.950,-3.519,9.438,-0.015,0.075,0.007,happy
4.32,0,1968,469,86,1008,0,672,2256,106,1190,1789,2035,723,27,2573,4095,-2.983,1.894,10.693,0.187,-0.265,0.102,1.046,-3.656,9.500,0.015,0.105,0.011,happy
4.33,104,2349,1383,431,1398,0,1101,2513,109,1043,1742,1900,403,29,2237,4095,0.781,3.280,9.505,0.206,0.062,0.015,1.190,-3.630,9.294,0.035,0.094,0.023,happy
4.34,357,2669,1903,641,1703,0,1617,2752,101,947,1330,1837,212,27,1917,4095,1.427,3.934,9.536,0.171,-0.091,0.069,1.264,-3.970,9.565,0.109,0.167,0.036,happy
4.35,497,2875,2117,794,2045,0,2160,2964,53,435,0,1198,5,0,1309,4062,1.358,3.139,9.471,0.086,-0.096,0.037,1.542,-4.401,9.881,0.359,0.274,-0.003,happy
4.36,606,3033,2284,1073,2353,0,2490,3120,0,0,0,749,0,0,973,3978,1.113,3.323,9.577,0.087,-0.031,0.024,1.793,-4.487,10.156,0.844,0.567,-0.052,happy
4.37,674,3155,2357,1228,2550,0,2714,3235,0,0,0,393,0,0,704,3923,0.929,3.151,9.424,0.054,-0.099,0.040,2.337,-5.080,10.195,1.097,0.796,-0.086,happy
4.38,769,3234,2625,1438,2770,0,2958,3342,0,0,0,3,0,0,266,3679,1.346,3.093,9.321,0.107,-0.107,0.041,7.415,-4.456,10.247,1.570,1.600,-0.429,happy
4.39,885,3168,2745,1535,2986,0,3088,3195,0,0,0,0,0,0,0,2931,1.492,3.153,9.385,0.098,-0.072,-0.006,16.625,-5.837,9.507,1.027,1.406,-2.638,happy
4.40,1001,3403,2834,1842,3115,0,3182,3445,5,0,0,0,0,0,0,2153,1.235,3.259,9.412,0.105,-0.011,-0.007,15.713,-5.296,8.049,0.957,1.923,-3.959,happy
4.41,1168,3440,2911,1962,3225,0,3221,3461,0,0,0,0,0,0,0,1389,1.231,3.168,9.459,0.105,0.001,-0.005,10.891,-5.315,6.031,0.444,2.727,-4.366,happy
4.42,1213,3463,2860,2047,3218,0,3051,3446,0,0,0,0,0,0,0,1193,1.293,3.318,9.369,0.131,-0.040,-0.034,8.164,-12.301,2.514,-0.601,3.300,-4.366,happy
4.43,1467,3510,2995,2085,3327,0,3248,3435,0,0,0,0,0,0,0,1165,1.166,3.342,9.546,0.101,-0.041,-0.008,1.621,-10.458,7.946,-0.900,2.030,-4.366,happy
4.44,1517,3552,3042,2019,3374,0,3248,3376,0,0,0,0,0,0,4,995,1.326,3.292,9.392,0.091,-0.035,0.010,-1.300,-6.297,8.662,-1.190,0.907,-4.366,happy
4.45,1521,3575,3051,1971,3414,0,3248,3334,3,6,0,0,0,0,0,717,1.348,3.242,9.287,0.113,-0.054,-0.004,-3.026,-2.806,11.638,-0.967,0.244,-3.943,happy
4.46,1479,3583,2918,1945,3414,0,3045,3247,0,0,0,0,0,0,0,677,1.235,3.326,9.347,0.121,-0.070,0.001,-1.882,-1.765,11.854,-0.605,0.305,-2.873,happy
4.47,1520,3623,3111,1882,3472,0,3209,3108,0,0,0,0,0,0,0,605,1.274,3.333,9.383,0.113,-0.056,-0.005,0.690,-0.958,11.885,0.031,0.089,-1.373,happy
4.48,1472,3638,3113,1785,3523,0,3194,2869,0,0,0,0,37,0,0,549,1.312,3.390,9.376,0.112,-0.087,-0.021,5.047,-1.714,10.266,0.550,-0.266,-0.949,happy
4.49,1392,3648,3121,1586,3541,0,3173,2767,0,7,0,0,0,0,0,477,1.319,3.383,9.373,0.118,-0.083,-0.023,6.036,-2.274,9.388,0.619,-0.484,-1.087,happy
4.50,1239,3635,3152,1378,3549,0,3149,2687,0,0,0,0,0,0,0,427,1.338,3.304,9.380,0.127,-0.102,-0.038,7.333,-3.826,8.885,0.531,-0.777,-1.840,happy
4.51,1169,3671,3131,1102,3615,0,3103,2603,0,0,23,9,0,0,0,411,1.477,3.349,9.304,0.171,-0.090,-0.067,6.021,-5.698,10.312,0.551,-0.558,-2.726,happy
4.52,1004,3696,3136,859,3643,0,3007,2486,0,0,0,0,0,0,10,415,1.437,3.299,9.313,0.176,-0.134,-0.105,4.590,-5.885,10.247,0.573,-0.530,-3.088,happy
4.53,1035,3714,3118,637,3671,0,2896,2300,0,0,0,0,0,42,0,357,1.578,3.306,9.227,0.243,-0.137,-0.116,2.308,-6.850,10.815,0.570,-0.526,-3.321,happy
4.54,1008,3750,3006,560,3674,0,2785,2081,0,0,0,0,0,0,0,312,1.683,3.512,9.177,0.288,-0.157,-0.148,0.802,-5.995,11.408,0.621,-0.640,-3.179,happy
4.55,1264,3793,3115,621,3694,0,2722,1749,0,0,0,0,0,0,0,299,1.681,3.543,9.143,0.326,-0.096,-0.166,-0.543,-8.088,9.531,0.523,-0.279,-3.004,happy
4.56,1495,3842,3184,752,3697,0,2623,814,1589,0,0,0,8,1611,0,243,1.563,3.747,9.163,0.345,-0.096,-0.151,-2.978,-8.203,11.638,0.670,-1.004,-2.854,happy
4.57,1696,3877,3250,742,3698,0,2535,0,5,2731,0,2699,2659,31,1977,3271,1.714,3.706,8.887,0.359,-0.024,-0.170,-4.235,-9.881,8.097,0.759,-0.380,-2.570,happy
4.58,1842,3857,3246,926,3552,0,2304,0,1587,2619,0,2533,2591,1675,1611,3164,1.654,4.156,9.208,0.318,0.063,-0.167,-5.205,-10.604,5.835,0.615,0.042,-2.398,happy
4.59,2110,3938,3410,1155,3611,0,2041,0,1589,2552,0,2487,2579,1673,1566,3101,1.568,3.687,9.177,0.326,0.015,-0.205,-5.581,-8.712,2.892,-0.331,0.560,-2.163,happy
4.60,2303,3965,3451,1217,3446,0,1469,0,1589,2585,0,2521,2603,1689,1611,3143,1.243,3.965,9.127,0.397,0.001,-0.262,-7.628,-13.149,0.338,-1.824,2.053,-1.739,happy
4.61,2464,3990,3502,1350,3036,0,699,0,27,2539,0,2389,2684,9,2112,3347,1.690,3.508,8.732,0.527,-0.011,-0.273,-2.993,-8.349,9.476,-1.608,2.290,-1.498,happy
4.62,2635,3987,3521,1403,2515,0,464,0,0,0,0,0,0,0,0,937,2.195,3.591,8.765,0.744,0.004,-0.108,-10.238,7.496,10.190,-1.270,0.147,-0.773,happy
4.63,2813,4006,3521,1407,2241,0,211,0,0,0,0,0,0,0,0,2217,1.432,4.082,8.914,1.000,-0.057,0.035,-0.783,-7.472,14.703,-2.146,-0.028,0.533,happy
4.64,2960,3997,3553,1316,2160,0,0,0,0,0,0,0,0,0,447,2667,1.281,4.381,8.947,1.191,-0.031,0.139,1.563,-5.602,12.922,-1.739,-0.519,0.044,happy
4.65,3070,4017,3531,1269,2002,0,0,0,0,0,0,0,0,0,1203,3243,1.077,4.120,9.148,1.580,-0.111,0.178,19.613,-0.972,18.613,-1.746,-1.142,0.303,happy
4.66,3147,3965,3421,980,1843,0,0,0,0,0,0,0,191,0,1603,3287,1.628,4.350,9.656,2.188,-0.265,0.210,1.087,-2.356,9.165,-0.415,0.853,0.616,happy
4.67,3238,3890,3190,454,1712,0,0,0,0,0,0,1,419,0,1852,3373,0.548,3.373,10.542,3.204,-0.767,0.327,0.419,-3.036,9.457,-0.409,0.356,0.299,happy
4.68,3222,3207,2738,37,1563,0,0,0,0,0,0,31,777,0,2393,3827,0.936,4.051,11.389,4.549,-1.558,0.171,2.081,-3.706,9.680,-0.214,0.173,0.145,happy
4.69,2839,2861,176,0,976,0,0,0,63,291,15,431,1117,0,2829,3980,1.470,7.015,11.456,5.520,-2.251,-0.147,1.271,-3.754,9.986,-0.009,0.084,0.116,happy
4.70,2081,1659,0,0,272,0,0,0,77,488,7,638,1311,2,2997,3957,6.002,7.027,9.598,5.949,-2.177,-1.213,1.568,-3.450,9.546,0.050,0.060,0.117,happy
4.71,1119,391,0,0,0,0,0,0,89,505,2,794,1846,2,3291,4043,2.614,12.155,7.764,6.451,-2.641,-1.284,1.391,-3.330,9.740,0.079,0.107,0.066,happy
4.72,637,0,0,0,0,0,0,0,79,620,2,870,2012,0,3379,4095,2.298,12.277,7.451,5.646,-3.362,-1.368,1.444,-3.261,9.618,0.047,0.053,0.006,happy
4.73,78,0,0,0,0,0,0,0,55,616,25,932,2155,0,3475,4095,3.373,12.696,7.985,4.050,-3.616,-1.488,1.458,-3.431,9.653,0.075,0.050,0.020,happy
4.74,0,0,0,0,223,0,0,0,50,679,1049,970,2275,17,3531,4095,4.772,8.109,9.618,2.107,-2.300,-2.411,1.595,-3.091,8.736,-0.035,-0.060,0.023,happy
4.75,0,0,0,0,107,0,0,0,48,633,1359,999,2447,13,3611,4095,2.227,-9.136,19.613,-2.775,-0.879,-2.173,1.566,-3.139,9.503,0.069,0.035,0.062,happy
4.76,0,0,0,0,35,0,0,0,43,621,1264,1007,2517,27,3640,4095,-0.031,-2.658,7.281,-3.353,0.447,-1.865,1.480,-3.268,9.565,0.036,0.066,0.075,happy
4.77,0,0,0,0,9,0,0,0,43,712,1589,1085,2611,12,3659,4095,0.773,1.101,7.807,-3.314,-0.651,-1.618,1.504,-3.112,9.402,-0.022,0.034,0.023,happy
4.78,0,0,0,0,0,0,0,0,56,722,1666,1135,2636,13,3657,4095,2.514,2.404,8.823,-3.720,-0.838,-1.511,1.389,-2.998,9.404,-0.022,0.039,0.035,happy
4.79,0,0,0,0,0,0,0,0,47,713,1789,1177,2664,18,3567,4095,3.785,2.981,7.659,-4.260,-0.562,-1.474,1.358,-2.844,9.278,-0.048,0.005,0.053,happy
4.80,0,0,0,0,0,0,0,0,68,807,1950,1213,2717,18,3647,4095,2.725,3.484,7.484,-4.523,-0.364,-1.346,1.437,-3.026,9.383,-0.047,-0.005,0.091,happy
4.81,0,0,0,0,1,0,0,0,89,952,1988,1315,2841,25,3689,4093,1.992,4.096,6.725,-4.713,-0.693,-0.860,1.575,-3.139,9.481,-0.079,0.006,0.117,happy
4.82,0,0,0,0,0,0,0,0,91,1099,2044,1501,2909,24,3667,4083,1.793,4.123,6.373,-4.700,-0.897,-0.574,1.496,-3.091,9.361,-0.101,-0.026,0.114,happy
4.83,0,0,0,0,0,0,0,0,103,1461,2083,1587,3005,26,3766,4095,0.766,5.260,7.958,-4.419,-1.346,-0.203,1.566,-3.100,9.311,-0.120,-0.033,0.140,happy
4.84,0,0,0,0,0,0,0,0,164,1557,2190,1743,3089,38,3671,4031,-0.314,6.699,10.410,-4.365,-1.728,-0.003,1.508,-3.220,9.311,-0.145,0.014,0.160,happy
4.85,0,0,0,0,0,0,0,0,237,1951,2162,1943,3210,31,3632,3999,-1.676,7.819,11.442,-4.155,-2.088,0.019,1.425,-3.172,9.402,-0.150,-0.014,0.145,happy
4.86,0,0,0,0,0,0,0,0,311,2157,2172,2189,3252,47,3624,3967,-1.982,8.669,13.125,-3.928,-2.227,-0.071,1.520,-3.340,9.467,-0.141,-0.010,0.156,happy
4.87,0,0,0,0,0,0,0,0,491,2359,2198,2340,3322,48,3532,3913,-1.573,9.373,12.941,-3.311,-2.147,-0.023,1.451,-3.402,9.292,-0.111,-0.003,0.122,happy
4.88,0,0,0,0,0,0,0,0,917,2415,2201,2397,3365,47,3315,3795,1.575,13.281,14.459,-3.005,-0.856,0.157,1.544,-3.373,9.500,-0.099,0.008,0.113,happy
4.89,0,0,0,0,0,0,0,0,1256,2581,2208,2432,3423,47,3155,3752,-0.378,16.747,14.961,-3.167,0.137,0.198,1.396,-3.467,9.596,-0.108,-0.004,0.102,happy
4.90,0,0,0,0,0,0,0,0,1693,2725,2221,2611,3469,47,2683,3555,-1.393,18.601,7.266,-2.829,-0.625,0.503,1.425,-3.455,9.335,-0.127,0.040,0.099,happy
4.91,0,0,0,0,162,0,0,0,2325,2826,2218,2748,3526,48,2355,3067,-2.320,16.091,-3.749,-1.792,-1.106,0.923,1.554,-3.613,9.292,-0.126,0.113,0.082,happy
4.92,0,0,0,0,241,0,0,0,2537,2867,2249,2829,3525,47,2042,2613,-4.980,18.150,-9.876,0.261,0.791,1.495,1.504,-3.687,9.567,-0.166,0.123,0.056,happy
4.93,0,0,0,0,301,0,0,0,2825,2997,2244,3003,3411,61,1337,1563,-1.650,6.196,1.501,1.220,1.890,-0.294,1.425,-3.452,9.400,-0.203,0.162,0.045,happy
4.94,0,0,0,0,407,0,0,39,3125,3081,2249,3187,2835,47,551,1391,1.453,-0.788,18.524,0.863,-0.033,0.332,1.166,-3.668,9.057,-0.194,0.180,0.063,happy
4.95,0,0,0,0,750,0,400,1893,3225,3148,2249,3310,2773,29,101,791,-0.223,-0.292,2.382,1.181,1.245,-1.112,2.064,-3.529,8.973,0.036,0.100,0.180,happy
4.96,0,0,0,0,994,0,908,2678,3403,3016,2167,3321,2001,9,9,667,2.761,5.033,14.868,2.046,-0.374,-0.146,1.336,-3.598,9.325,-0.546,0.141,-0.068,happy
4.97,0,413,0,0,1407,0,1495,3053,3547,2743,2247,3463,1243,5,3,535,-2.028,8.792,13.487,1.225,0.730,0.229,0.448,-3.263,10.135,-0.791,0.045,-0.119,happy
4.98,0,959,0,0,1823,0,1929,3243,3709,2709,2290,3501,787,40,2,436,-1.958,3.294,11.858,0.671,0.685,-0.068,1.662,-2.928,9.752,-1.126,0.225,-0.189,happy
4.99,0,1616,0,0,2029,0,2210,3335,3781,2459,2316,3511,41,3,1,303,1.247,3.383,10.036,0.486,0.161,-0.026,1.001,-3.081,10.199,-2.358,0.484,-0.338,happy
5.00,0,2025,0,0,2131,0,2479,3417,3791,2093,2326,3465,4,1,0,253,1.085,2.449,9.524,0.406,0.200,-0.070,2.145,-3.467,9.421,-2.844,0.760,-0.352,happy
5.01,0,2384,0,0,2371,0,2645,3497,3753,1255,2341,2983,0,0,0,137,0.998,2.758,9.483,0.311,0.095,-0.168,2.267,-3.800,10.467,-4.017,1.523,0.232,happy
5.02,0,2686,23,0,2523,0,2831,3579,3479,159,0,2024,0,19,0,141,1.010,2.861,9.436,0.354,-0.097,-0.267,3.014,-6.778,15.656,-4.366,1.616,1.912,happy
5.03,0,2878,432,0,2662,0,2864,3570,2869,0,0,333,0,0,0,83,0.948,2.950,9.380,0.354,-0.179,-0.204,3.352,-15.830,15.797,-4.366,1.474,2.826,happy
5.04,14,3136,1111,0,2837,0,3133,3665,2149,0,0,63,0,0,0,69,1.422,3.287,9.618,0.237,-0.071,-0.078,2.389,-9.831,11.964,-4.366,1.678,3.532,happy
5.05,138,3238,1645,0,2979,0,3189,3682,0,0,0,0,0,0,0,47,1.211,3.151,9.567,0.152,-0.002,-0.030,5.957,1.142,19.613,0.771,1.068,4.007,happy
5.06,244,3297,1801,13,3104,0,3247,3687,0,0,0,0,0,0,0,17,1.247,3.007,9.414,0.125,0.009,-0.037,8.765,4.839,16.173,0.685,-0.139,2.358,happy
5.07,336,3339,1936,85,3140,0,3233,3683,0,0,0,0,0,0,0,23,1.314,2.804,9.357,0.172,-0.006,-0.062,9.488,1.520,7.278,1.124,0.562,1.797,happy
5.08,439,3377,2133,227,3199,0,3263,3677,0,0,12,0,0,0,0,2,1.252,2.938,9.464,0.216,-0.049,-0.072,8.150,2.119,9.019,1.217,0.032,0.982,happy
5.09,502,3417,2304,436,3238,0,3255,3655,0,5,0,0,0,0,0,12,1.197,3.019,9.436,0.223,-0.083,-0.077,9.601,1.142,9.898,1.522,-0.512,0.009,happy
5.10,501,3322,2258,463,3042,0,3013,3426,0,0,0,0,47,0,0,0,1.135,3.129,9.476,0.231,-0.062,-0.069,9.376,-0.287,11.272,2.073,-0.751,-0.904,happy
5.11,688,3520,2672,806,3311,0,3181,3554,0,0,0,0,13,0,0,0,1.168,3.153,9.457,0.224,-0.040,-0.082,2.049,-0.848,9.354,3.045,-1.217,-1.848,happy
5.12,842,3583,2849,944,3345,0,3127,3457,0,0,0,0,0,0,0,0,1.171,3.120,9.402,0.257,-0.053,-0.088,-0.055,-0.967,8.487,3.230,-1.429,-1.650,happy
5.13,971,3646,2978,1231,3363,0,3058,3343,0,0,0,0,47,0,4,0,1.204,3.223,9.445,0.253,-0.070,-0.062,-1.087,-2.672,10.436,3.671,-1.435,-0.775,happy
5.14,1152,3700,3097,1613,3386,0,2992,3226,0,0,0,0,0,0,0,0,1.116,3.299,9.342,0.242,-0.080,-0.074,0.855,-4.496,11.243,3.977,-1.875,-0.386,happy
5.15,1299,3745,3231,1900,3414,0,2903,3067,0,0,0,0,0,0,0,0,1.192,3.347,9.333,0.212,-0.057,-0.080,2.052,-5.526,11.353,4.034,-2.012,-0.483,happy
5.16,1348,3753,3329,2112,3402,0,2768,2743,0,0,0,0,5,0,0,0,1.223,3.354,9.282,0.188,-0.039,-0.078,2.708,-6.467,13.724,3.888,-2.145,-1.056,happy
5.17,1300,3824,3377,2338,3473,0,2674,2393,0,0,0,0,0,0,0,0,1.267,3.419,9.201,0.154,-0.011,-0.056,-0.294,-7.147,16.041,3.200,-2.268,-1.472,happy
5.18,1439,3874,3479,2489,3499,0,2522,1872,0,0,0,0,0,0,0,0,1.298,3.316,9.273,0.120,0.014,-0.056,-1.092,-9.991,17.514,2.798,-2.558,-1.572,happy
5.19,1483,3891,3536,2609,3505,0,2275,1371,0,0,0,0,0,0,0,7,1.439,3.500,9.328,0.108,0.050,-0.063,-3.965,-11.061,19.613,1.460,-2.490,-2.440,happy
5.20,1626,3921,3571,2743,3488,61,1936,19,1588,2451,0,2495,2589,1673,1540,3113,1.401,3.304,9.448,0.135,0.078,-0.056,-8.203,-19.613,4.875,2.800,-0.464,-2.471,happy
5.21,1759,3956,3638,2874,3403,0,1449,0,1589,2569,0,2501,2591,1678,1578,3119,1.405,3.060,9.136,0.142,0.143,-0.040,-12.299,-19.613,-6.155,1.711,-0.902,-2.413,happy
5.22,1862,3968,3583,2958,3033,0,603,0,0,0,0,0,0,0,0,0,1.003,3.443,9.359,0.274,0.226,-0.020,-8.686,-19.613,-18.962,-2.287,1.077,-1.852,happy
5.23,2150,4004,3703,3105,2318,0,128,0,1083,0,0,19,2599,2013,2171,973,2.047,1.207,8.212,0.601,0.301,0.033,-11.298,4.896,19.613,-1.144,0.436,-0.410,happy
5.24,2304,4003,3744,3185,1791,0,0,0,0,0,0,0,0,0,0,1997,1.264,3.663,9.469,1.118,0.306,0.286,-9.596,5.207,-0.958,-3.983,-1.436,0.138,happy
5.25,2470,4001,3751,3236,1585,0,0,0,0,0,0,1,7,0,42,2527,1.106,3.709,9.366,1.306,0.364,0.304,1.051,-8.408,10.324,-2.648,0.101,0.799,happy
5.26,2559,3990,3755,3282,1235,0,0,0,7,13,0,0,0,0,651,2934,1.334,3.440,9.227,1.641,0.318,0.310,-0.565,-6.974,17.308,-2.338,-0.462,0.324,happy
5.27,2581,3733,3534,3269,861,0,0,0,11,0,0,55,0,0,1419,3423,2.816,2.320,9.730,2.519,0.495,0.485,7.070,-10.068,15.562,-0.660,1.921,1.697,happy
5.28,2963,3414,3563,3146,505,0,0,0,0,0,0,0,403,0,2131,3804,3.421,3.713,10.518,3.283,0.908,0.548,1.240,-4.683,13.305,-0.636,1.693,0.988,happy
5.29,3120,2658,3262,2295,3,0,0,0,38,159,0,119,662,0,2301,3903,-2.332,0.084,13.333,4.479,0.630,-0.128,-1.132,-6.493,12.826,-0.530,0.748,0.503,happy
5.30,3027,1513,1990,1777,0,0,0,0,55,532,0,667,969,5,2603,4053,-0.594,8.198,19.613,6.278,-0.176,-1.289,0.814,-3.397,10.199,-0.248,0.188,0.163,happy
5.31,2080,226,26,259,0,0,0,0,71,599,770,891,1309,68,2935,4095,2.176,10.353,13.719,7.637,-0.151,-2.087,1.369,-3.548,10.025,0.081,0.023,0.128,happy
5.32,510,0,0,0,0,0,0,0,87,556,1133,1035,1433,28,2975,4051,3.773,15.991,19.613,4.189,0.487,-2.008,1.475,-3.309,9.658,0.096,0.069,0.161,happy
5.33,0,0,0,0,0,0,0,0,149,664,1589,1343,1875,35,3255,4095,11.267,2.423,8.650,0.325,2.039,-1.388,1.535,-2.954,9.232,0.076,0.167,0.144,happy
5.34,0,0,0,0,0,0,0,0,199,748,1666,1349,2003,43,3223,4009,4.515,-7.831,11.387,-0.330,0.887,-0.661,1.444,-3.275,9.335,-0.025,0.068,0.089,happy
5.35,0,0,0,0,0,0,0,0,221,907,1878,1467,2251,55,3413,4095,3.802,-2.523,10.427,-0.948,-0.584,0.151,1.223,-3.474,9.352,-0.088,-0.112,0.110,happy
5.36,0,0,0,0,0,0,0,0,152,920,1922,1453,2291,31,3431,4095,4.657,-0.239,11.844,-2.417,-0.974,0.553,1.453,-3.122,9.512,0.005,0.105,0.137,happy
5.37,0,0,0,0,0,0,0,0,204,1018,2044,1677,2393,59,3456,4095,1.216,0.048,9.658,-3.550,-0.814,0.849,1.310,-3.151,9.369,0.011,0.131,0.130,happy
5.38,0,0,0,0,0,0,0,0,237,1092,2034,1839,2440,45,3448,4095,0.172,0.285,8.267,-3.866,-0.929,0.767,1.317,-3.086,9.385,-0.017,0.132,0.118,happy
5.39,0,0,0,0,0,0,0,0,267,1375,2034,1979,2461,45,3387,4095,0.469,2.042,9.093,-4.119,-0.790,0.492,0.984,-3.062,9.407,-0.083,0.088,0.112,happy
5.40,0,0,0,0,0,0,0,0,233,1468,2067,2087,2483,43,3347,4095,-0.694,3.780,10.932,-4.394,-0.715,0.190,1.132,-3.208,9.646,-0.082,0.138,0.145,happy
5.41,0,0,0,0,0,0,0,0,312,1527,2116,2216,2470,13,3227,4093,-0.340,5.162,11.358,-4.483,-0.892,0.070,1.243,-3.259,9.325,-0.055,0.168,0.173,happy
5.42,0,0,0,0,0,0,0,0,489,1701,2162,2524,2456,58,3111,4067,2.006,6.991,13.283,-4.445,-1.175,0.289,1.338,-3.242,9.234,-0.115,0.131,0.132,happy
5.43,0,0,0,0,0,0,0,0,679,1775,2167,2621,2423,50,3037,4031,2.174,9.445,15.383,-4.258,-1.244,1.092,1.245,-3.436,9.347,-0.094,0.118,0.121,happy
5.44,0,0,0,0,0,0,0,0,1149,2071,2267,2927,2575,47,2901,3991,-0.898,12.440,17.573,-3.867,-2.215,1.918,1.125,-3.397,9.419,-0.119,0.010,0.072,happy
5.45,0,0,0,0,0,0,0,0,1721,2287,2218,3030,2719,45,2595,3901,-2.610,17.423,19.613,-4.264,-1.404,1.810,1.063,-3.333,9.380,-0.123,0.043,0.059,happy
5.46,0,0,0,0,0,0,0,0,2005,2341,2201,3083,2729,0,2222,3845,-4.348,17.878,9.474,-4.081,-0.580,1.312,1.087,-3.541,9.594,-0.146,0.077,0.044,happy
5.47,0,0,0,0,0,0,0,0,2597,2500,2218,3248,2607,47,1676,3631,-7.149,17.763,1.372,-2.900,-1.430,0.380,1.211,-3.565,9.644,-0.163,0.173,0.070,happy
5.48,0,0,0,0,0,0,0,0,2954,2637,2216,3381,2249,46,969,3143,-4.460,19.613,-5.425,-1.483,-1.459,0.137,1.271,-3.364,8.923,-0.188,0.126,0.036,happy
5.49,0,0,0,0,0,0,0,0,3148,2681,2203,3428,2163,47,828,2761,-2.279,15.854,-5.880,0.654,0.745,-0.228,1.051,-3.804,9.297,-0.204,0.092,0.010,happy
5.50,0,0,0,0,0,0,0,0,3477,2739,2221,3547,1861,27,111,1635,8.116,4.324,7.855,1.570,0.441,-0.618,1.630,-4.372,9.823,-0.200,0.071,0.010,happy
5.51,0,0,0,0,120,0,0,0,3480,2671,2234,3555,1733,21,0,1517,2.626,-0.879,19.613,0.964,0.580,-0.269,1.298,-3.326,9.577,-0.484,0.121,-0.077,happy
5.52,0,0,0,0,297,0,160,1209,3543,2407,2147,3464,823,3,2,1035,1.027,-5.183,2.049,2.391,0.550,-0.435,1.173,-3.867,9.041,-0.564,0.097,-0.164,happy
5.53,0,0,0,0,530,0,628,2621,3627,2385,2096,3527,583,6,8,939,4.264,5.155,12.689,3.097,0.220,-0.436,0.613,-3.630,9.457,-0.745,0.091,-0.238,happy
5.54,0,0,0,0,897,0,1410,3146,3768,2245,2190,3645,92,5,3,711,3.077,4.982,12.819,2.462,0.501,-0.167,2.049,-2.796,10.209,-1.115,0.172,-0.453,happy
5.55,0,0,0,0,1095,0,2187,3357,3967,1892,2323,3832,0,0,0,533,-0.103,7.673,16.099,1.475,1.381,-0.382,3.704,-3.172,10.072,-2.466,0.601,-0.693,happy
5.56,0,530,0,0,1527,0,2559,3472,3999,1491,2393,3749,0,0,1,477,0.836,5.267,13.115,0.859,0.978,-0.397,4.987,-5.902,11.289,-2.788,1.328,-0.623,happy
5.57,0,1360,0,0,2032,0,2773,3551,3999,136,2198,2877,0,5,6,303,1.451,3.225,9.828,0.578,0.988,-0.413,2.983,-3.555,12.773,-4.366,2.348,0.668,happy
5.58,0,2005,0,0,2277,0,2944,3632,3628,0,0,1830,0,3,0,181,1.697,2.543,9.184,0.463,0.852,-0.452,2.931,-6.100,14.506,-4.366,2.375,3.387,happy
5.59,0,2302,0,0,2413,0,2882,3647,3555,0,0,1083,0,0,0,137,1.317,2.684,9.845,0.406,0.762,-0.427,2.990,-3.503,16.024,-4.366,2.451,4.366,happy
5.60,0,2533,0,0,2490,0,3082,3495,1528,2628,0,2591,2347,1885,1694,3167,0.426,3.239,10.839,0.399,0.398,-0.310,2.713,-12.373,12.641,-4.366,2.894,4.366,happy
5.61,18,3003,373,0,2672,0,3182,3686,1122,0,0,71,0,0,0,106,0.852,3.017,10.183,0.256,0.152,-0.145,0.824,-11.519,11.140,-3.517,3.158,4.366,happy
5.62,256,3216,1474,16,2799,0,3251,3701,0,0,0,0,0,0,0,146,1.542,2.689,9.632,0.273,0.173,-0.176,9.828,-14.837,19.613,0.495,-0.157,1.244,happy
5.63,499,3312,2066,432,2880,0,3270,3712,103,0,0,0,0,0,0,140,1.247,2.883,9.608,0.335,0.173,-0.216,7.786,2.878,6.701,1.202,-0.474,-1.001,happy
5.64,813,3392,2486,750,2956,0,3251,3680,0,0,0,17,0,0,0,139,0.998,3.055,9.759,0.355,0.169,-0.205,3.529,1.992,8.030,1.345,-0.915,-1.393,happy
5.65,1079,3472,2741,1126,2946,0,3197,3641,0,0,0,0,0,0,0,107,1.039,3.215,9.675,0.205,0.089,-0.130,-0.160,0.120,13.257,2.644,-1.213,-1.269,happy
5.66,1231,3523,2883,1604,2909,0,3117,3581,0,0,0,0,0,0,0,72,1.104,3.057,9.388,0.168,0.085,-0.099,-3.134,-0.196,9.244,3.726,-1.877,-0.377,happy
5.67,1411,3567,3054,2078,2826,0,3034,3509,0,0,0,0,17,0,0,51,1.053,3.043,9.591,0.132,0.165,-0.091,-2.294,-0.692,8.143,3.856,-1.959,0.011,happy
5.68,1487,3605,3177,2403,2545,0,2939,3434,0,0,0,0,0,0,0,0,0.958,3.275,9.455,0.078,0.177,-0.047,-0.759,-2.861,10.958,4.058,-2.177,0.234,happy
5.69,1535,3632,3264,2638,2507,0,2826,3377,0,0,0,0,0,25,0,3,0.962,3.041,9.383,0.093,0.180,-0.062,0.184,-4.245,11.964,4.259,-2.488,-0.287,happy
5.70,1654,3631,3361,2843,2458,0,2723,3314,0,0,0,0,0,5,0,0,0.931,3.136,9.474,0.064,0.184,-0.061,-0.175,-4.494,12.778,4.212,-2.613,-0.583,happy
5.71,1674,3607,3331,2951,2381,123,2542,3191,0,0,0,0,0,0,0,0,0.919,3.048,8.935,0.007,0.198,-0.063,0.579,-6.072,16.747,4.150,-2.483,-1.127,happy
5.72,1986,3657,3401,3098,2483,0,2433,3053,0,0,0,0,0,0,0,0,0.654,3.096,9.505,0.023,0.154,-0.038,-0.654,-8.701,19.613,3.928,-2.285,-1.959,happy
5.73,2283,3680,3542,3243,2519,197,2261,2810,0,0,0,0,0,0,0,0,0.749,2.954,9.342,0.062,0.064,-0.018,-3.194,-11.691,18.651,3.677,-2.568,-2.553,happy
5.74,2502,3728,3600,3328,2582,0,1826,2000,0,0,0,0,0,0,0,0,0.836,2.907,9.486,0.148,0.018,0.003,-4.137,-19.613,10.561,2.363,-2.088,-3.107,happy
5.75,2733,3785,3626,3399,2609,0,962,656,1577,2579,0,2521,2630,1748,1608,3128,0.917,2.677,9.680,0.233,-0.226,0.033,-12.706,-19.613,4.800,1.769,-1.084,-2.360,happy
5.76,2899,3846,3679,3433,2590,0,457,0,1623,2553,0,2493,2589,1683,1572,3142,0.883,2.964,9.383,0.348,-0.058,0.058,-14.863,-19.613,-1.207,1.379,-2.244,-1.497,happy
5.77,3038,3873,3720,3492,2017,0,0,0,1574,2551,0,2487,2578,1661,1547,3108,1.235,2.394,9.062,0.475,0.151,0.052,-7.199,-19.613,-17.607,-2.172,0.092,-0.764,happy
5.78,3181,3895,3727,3513,1461,0,0,0,1590,2611,0,2547,2629,1723,1620,3165,1.120,3.177,9.459,0.857,0.113,0.183,7.408,-1.238,19.613,-0.954,1.285,0.412,happy
5.79,3341,3879,3759,3558,1174,0,0,0,11,0,0,0,0,0,0,949,1.056,3.043,9.646,1.220,0.237,0.390,8.672,8.056,0.098,-2.959,-1.025,-0.523,happy
5.80,3419,3835,3758,3572,875,0,0,0,0,0,0,33,1,0,0,1831,1.116,3.079,9.807,1.480,0.339,0.511,0.474,-4.266,7.219,-3.287,0.161,-0.125,happy
5.81,3489,3666,3755,3567,835,0,0,0,0,9,0,0,0,0,11,2259,1.173,3.002,10.056,1.754,0.439,0.576,-9.469,-7.453,19.266,-2.626,0.230,0.161,happy
5.82,3548,3371,3718,3569,319,0,0,0,1,27,0,3,0,2,663,2809,1.774,3.239,10.379,2.139,0.513,0.646,-5.284,-0.553,13.618,-2.411,-0.033,0.744,happy
5.83,3639,3051,3600,3470,0,0,0,0,0,85,20,0,0,0,1207,3426,2.385,2.909,9.493,2.890,0.715,0.663,4.571,-5.638,11.432,-1.774,0.089,0.362,happy
5.84,3669,2687,3339,3100,0,0,0,0,0,0,0,0,0,0,1659,3678,2.157,2.875,9.246,3.350,1.166,0.402,1.070,-4.477,18.153,-1.245,1.596,1.120,happy
5.85,3702,2080,2629,2458,0,0,0,0,0,26,0,0,85,11,2203,3737,1.580,3.127,11.126,4.082,1.183,-0.227,2.239,-4.159,11.018,-0.885,1.458,0.814,happy
5.86,3669,1244,1589,2064,0,0,0,0,1597,2581,0,2519,2600,1699,1597,3095,1.817,3.031,13.194,6.248,0.835,-1.826,2.301,-3.843,10.053,-0.503,1.373,0.685,happy
5.87,3227,75,0,960,0,0,0,0,0,10,110,2,765,0,2733,4073,1.800,6.141,14.123,7.299,1.310,-3.006,-1.144,-3.263,12.747,-0.583,0.767,0.552,happy
5.88,2338,0,0,189,0,0,0,0,75,0,0,79,980,0,2875,4095,0.931,12.416,15.361,7.304,1.063,-3.136,1.267,-3.642,10.252,-0.505,0.530,0.477,happy
5.89,1245,0,0,0,0,0,0,0,75,0,0,294,1227,0,3021,4095,2.483,12.060,14.499,6.217,1.543,-3.552,0.050,-3.498,10.554,-0.367,0.314,0.343,happy
5.90,224,0,0,0,0,0,0,0,137,17,0,494,1558,0,3179,4095,-0.316,10.494,19.613,2.599,0.762,-2.925,1.425,-3.742,9.646,-0.200,0.147,0.286,happy
5.91,0,0,0,0,0,0,0,0,185,0,0,595,1933,0,3293,4095,11.775,5.926,19.613,0.712,0.193,-2.062,1.549,-3.306,9.596,-0.134,0.120,0.223,happy
5.92,0,0,0,0,0,0,0,0,252,0,0,726,2229,0,3417,4095,12.462,-4.946,11.765,-0.618,-0.688,-0.729,1.693,-3.369,9.337,-0.112,0.052,0.192,happy
5.93,0,0,0,0,0,0,0,0,279,401,1182,853,2403,36,3475,4095,7.805,-1.848,6.938,-0.731,-0.309,0.447,1.808,-3.347,9.167,-0.113,0.027,0.147,happy
5.94,0,0,0,0,0,0,0,0,313,439,1448,965,2605,51,3519,4095,3.232,-1.913,10.451,-1.109,-1.037,0.916,1.525,-3.577,9.522,-0.071,0.005,0.107,happy
5.95,0,0,0,0,0,0,0,0,330,867,1963,1163,2824,47,3593,4095,2.358,-0.529,12.349,-2.410,-1.834,1.231,1.267,-3.326,9.428,-0.013,-0.048,0.064,happy
5.96,0,0,0,0,0,0,0,0,410,1124,1998,1371,2991,47,3609,4095,-0.603,1.051,10.546,-3.676,-1.443,1.318,1.465,-3.390,9.567,-0.021,-0.028,0.045,happy
5.97,0,0,0,0,0,0,0,0,381,1246,2065,1404,3038,48,3610,4095,-1.537,1.738,7.491,-3.986,-1.718,1.069,1.389,-3.397,9.407,-0.022,-0.016,0.049,happy
5.98,0,0,0,0,0,0,0,0,292,1383,2080,1479,3119,45,3566,4088,-2.145,3.208,9.519,-4.088,-1.648,0.698,1.276,-3.263,9.383,-0.010,-0.007,0.061,happy
5.99,0,0,0,0,0,0,0,0,326,1485,2124,1781,3175,47,3501,4071,-1.030,5.236,10.999,-4.297,-1.681,0.397,1.132,-2.885,9.337,-0.096,0.020,0.141,happy
6.00,0,0,0,0,0,0,0,0,333,1555,2126,1938,3211,47,3446,4061,-0.156,6.570,11.339,-4.306,-1.611,0.690,0.836,-2.875,9.124,-0.088,0.088,0.171,happy
6.01,0,0,0,0,0,0,0,0,377,1933,2172,2121,3251,51,3355,4021,-0.658,8.169,13.180,-4.217,-1.767,1.126,1.164,-3.254,9.400,-0.078,0.074,0.169,happy
6.02,0,0,0,0,0,0,0,0,759,2152,2193,2297,3297,51,3209,3978,2.009,10.381,13.551,-3.696,-1.628,1.634,1.384,-3.388,9.313,-0.088,0.032,0.136,happy
6.03,0,0,0,0,0,0,0,0,1099,2299,2208,2529,3325,47,3061,3958,2.646,16.281,18.749,-3.230,-1.899,2.536,1.669,-3.357,9.088,-0.102,0.036,0.146,happy
6.04,0,0,0,0,0,0,0,0,1951,2463,2203,2671,3381,60,2671,3805,2.203,19.613,17.743,-3.932,-2.057,3.216,1.288,-3.378,9.452,-0.130,0.034,0.102,happy
6.05,0,0,0,0,0,0,0,0,2647,2631,2208,2891,3415,48,2391,3560,-2.875,18.888,3.783,-3.534,-0.747,3.255,1.836,-3.184,9.785,-0.446,-0.142,0.095,happy
6.06,0,0,0,0,192,0,0,0,2932,2728,2218,2984,3411,47,1991,3257,-9.953,17.174,0.134,-1.908,-1.072,1.953,1.425,-3.146,9.464,-0.289,0.038,0.046,happy
6.07,0,0,0,0,240,0,0,0,3341,2871,2398,3116,3263,87,1239,2274,-6.043,19.613,-3.321,-1.135,-1.109,0.268,1.458,-3.970,9.282,-0.354,0.095,-0.003,happy
6.08,0,0,0,0,225,0,0,0,3537,2975,2224,3244,2733,45,483,1598,-1.094,14.289,-3.661,0.722,0.164,-0.583,1.650,-4.772,9.220,-0.266,0.112,0.008,happy
6.09,0,0,0,0,268,0,0,0,3764,3021,2234,3335,2601,19,69,1007,10.051,5.413,15.936,1.180,0.790,-1.071,2.114,-1.111,10.348,-0.226,0.094,0.144,happy
6.10,0,0,0,0,261,0,212,581,3949,2875,2242,3406,1631,6,4,999,3.773,-5.499,2.430,1.924,0.229,-0.562,1.223,-3.663,9.261,-0.648,0.224,-0.110,happy
6.11,0,0,0,0,331,0,724,2172,4049,2540,2259,3545,729,3,3,683,3.414,3.357,11.107,3.241,-0.247,-0.141,1.516,-3.742,9.606,-0.826,0.317,-0.162,happy
6.12,0,0,0,0,682,0,1725,2866,4094,2393,2259,3577,381,5,3,649,1.867,4.673,12.878,2.414,-0.167,-0.143,0.826,-3.780,9.335,-1.254,0.374,-0.271,happy
6.13,0,79,0,0,1097,0,2398,3120,4095,1886,2354,3621,71,4,17,447,6.869,9.124,14.047,1.342,0.949,-0.209,2.904,-2.734,10.166,-2.538,0.478,-0.420,happy
6.14,0,903,0,0,1729,0,2734,3177,4095,1369,2467,3422,0,1,0,325,2.495,4.702,12.397,1.089,1.646,-0.464,4.994,-5.811,11.545,-3.689,1.354,-0.185,happy
6.15,0,1680,0,0,2062,0,2906,3399,4095,796,2372,2798,0,0,0,281,2.404,3.553,10.247,0.489,1.276,-0.455,3.179,-3.412,12.297,-4.366,1.851,0.462,happy
6.16,59,2045,0,0,2449,0,3056,3495,3925,25,0,1511,0,0,0,155,2.325,2.148,9.653,0.495,1.256,-0.492,3.091,-9.000,15.847,-4.366,1.734,2.761,happy
6.17,246,2559,0,0,2763,0,3152,3523,2965,0,0,260,0,0,0,35,1.312,3.000,10.144,0.435,1.037,-0.680,2.964,-13.005,19.082,-4.366,2.214,3.546,happy
6.18,455,2884,0,0,2941,0,3230,3541,1587,0,0,1,5,22,0,78,0.769,3.366,10.491,0.380,0.610,-0.432,1.776,-11.547,9.859,-4.366,2.270,4.066,happy
6.19,583,3029,110,0,3055,0,3273,3534,159,0,0,0,0,3,0,54,1.319,3.321,10.262,0.388,0.505,-0.239,-1.630,-7.295,16.769,-2.780,1.812,3.497,happy
6.20,656,3171,1069,0,3168,0,3312,3499,0,0,0,0,0,0,0,61,1.647,3.141,9.618,0.344,0.242,-0.059,10.036,3.718,19.613,0.570,-1.436,2.131,happy
6.21,783,3231,1535,0,3248,0,3317,3454,0,0,0,3,0,0,0,3,1.530,2.897,9.752,0.384,0.210,-0.108,10.163,0.136,6.644,1.351,-0.475,1.325,happy
6.22,833,3298,1898,0,3299,0,3311,3391,0,0,0,0,0,0,7,0,1.578,3.168,9.776,0.336,0.099,-0.153,6.883,2.387,7.159,1.556,-0.597,0.560,happy
6.23,881,3360,2123,0,3344,0,3291,3291,0,0,130,0,0,0,0,0,1.355,3.239,9.651,0.289,0.075,-0.171,6.950,-0.788,10.496,2.002,-1.104,-0.219,happy
6.24,970,3409,2294,0,3376,0,3266,3182,1590,2603,0,2539,2618,1719,1631,3159,1.456,3.349,9.536,0.280,0.013,-0.132,5.686,-0.692,11.241,2.746,-1.276,-0.846,happy
6.25,1103,3498,2543,194,3429,0,3207,3008,0,0,0,0,2,0,0,0,1.391,3.227,9.414,0.295,-0.003,-0.137,-0.745,-0.575,8.303,3.517,-1.889,-1.135,happy
6.26,1164,3549,2721,407,3429,0,3148,2793,0,0,0,0,0,0,0,0,1.348,3.208,9.421,0.256,0.007,-0.153,-1.223,-1.252,7.896,3.678,-1.973,-0.854,happy
6.27,1227,3619,2849,638,3459,0,3063,2557,3,0,0,0,0,0,0,0,1.346,3.239,9.385,0.236,0.062,-0.171,-1.391,-2.521,9.582,3.819,-1.856,-0.384,happy
6.28,1338,3691,2960,826,3482,0,2986,2287,0,0,0,0,0,0,0,0,1.437,3.419,9.407,0.197,0.003,-0.128,0.393,-4.058,11.164,4.016,-2.016,-0.490,happy
6.29,1392,3746,3110,1219,3487,0,2901,2064,0,0,0,0,0,0,0,0,1.504,3.302,9.110,0.137,0.051,-0.126,0.156,-4.415,11.471,4.013,-2.174,-0.762,happy
6.30,1355,3794,3237,1767,3493,0,2832,1968,0,0,0,0,0,0,12,0,1.604,3.275,9.134,0.111,0.041,-0.130,-0.091,-5.669,14.442,3.868,-2.392,-1.225,happy
6.31,1457,3824,3323,2162,3492,0,2717,1903,0,0,0,0,0,0,0,0,1.216,3.290,9.225,0.126,0.042,-0.087,-0.589,-6.931,17.624,3.657,-2.096,-1.552,happy
6.32,1522,3858,3431,2401,3518,0,2640,1618,0,0,0,0,0,0,0,31,1.240,3.440,9.469,0.122,0.054,-0.048,-0.831,-9.797,19.613,3.611,-2.012,-1.750,happy
6.33,1730,3888,3499,2543,3530,0,2389,225,0,0,0,0,0,0,0,0,1.422,3.285,9.436,0.178,0.079,-0.064,-5.883,-17.420,19.613,3.916,-2.049,-2.165,happy
6.34,1961,3920,3531,2719,3473,0,1983,0,1591,2595,0,2531,2607,1726,1597,3151,1.518,3.443,9.304,0.240,0.052,-0.059,-5.432,-19.613,2.435,2.901,-0.814,-2.170,happy
6.35,2256,3926,3596,2822,3323,0,1232,0,1591,2584,0,2520,2613,1703,1594,3128,1.214,3.445,9.270,0.329,0.043,-0.019,-11.566,-19.613,-2.849,1.974,-1.048,-1.877,happy
6.36,2558,3952,3639,2921,2774,0,390,0,2,0,0,0,0,0,0,0,0.907,3.575,9.227,0.346,0.167,-0.086,-7.685,-19.613,-5.097,-0.415,-1.248,-1.194,happy
6.37,2764,3967,3662,3024,2246,0,235,0,0,0,0,0,0,0,4,21,1.645,3.077,9.443,0.742,0.075,0.112,0.627,-7.432,12.141,-1.217,2.514,-0.059,happy
6.38,2855,3974,3682,3082,2081,0,79,0,0,0,0,0,0,0,0,533,1.456,3.797,9.412,0.923,0.068,0.227,1.645,6.314,19.613,-0.887,0.885,-0.260,happy
6.39,2974,3975,3701,3135,1757,0,0,0,0,0,0,0,0,0,0,1485,1.425,3.519,9.234,1.096,0.144,0.272,1.250,7.197,0.644,-2.892,-0.950,-0.212,happy
6.40,3093,3979,3710,3178,1647,0,0,0,31,0,0,0,0,0,0,2133,0.986,3.654,9.598,1.302,0.265,0.284,-2.155,-5.827,8.564,-2.955,0.213,0.122,happy
6.41,3191,3969,3711,3202,1452,0,0,0,0,0,0,3,0,0,0,2659,1.367,3.582,9.359,1.581,0.233,0.288,-6.795,-7.954,18.948,-2.387,-0.132,0.208,happy
6.42,3295,3949,3702,3209,1283,0,0,0,0,4,0,0,0,0,522,3004,1.439,3.103,9.227,1.977,0.310,0.348,-0.208,0.048,10.882,-2.420,-0.345,0.590,happy
6.43,3187,3873,3504,3165,1011,0,0,0,0,0,0,0,0,11,857,3343,2.840,3.144,9.220,2.461,0.413,0.412,7.061,-5.382,10.470,-2.256,-0.458,0.336,happy
6.44,3472,3653,3602,2603,715,0,0,0,0,0,0,0,0,0,1355,3597,2.586,3.713,10.077,3.357,0.568,0.436,3.639,-4.520,10.333,-1.940,-0.057,0.338,happy
6.45,3526,2741,3129,2090,93,0,0,0,0,0,0,0,111,0,2333,4007,3.417,5.128,14.267,4.766,-0.185,-0.221,3.132,-6.239,10.534,-1.251,1.229,0.644,happy
6.46,3376,1727,1666,1279,0,0,0,0,0,0,0,0,841,85,2712,4093,3.017,6.050,14.617,6.147,-0.579,-1.365,-0.541,-3.122,11.648,-0.863,0.836,0.582,happy
6.47,2066,400,0,198,0,0,0,0,83,0,0,0,1031,0,2873,4095,1.611,8.612,14.449,7.224,-0.286,-2.045,0.467,-3.541,10.274,-0.653,0.444,0.380,happy
6.48,1232,0,0,0,0,0,0,0,119,0,0,118,1279,0,3033,4095,3.165,11.684,11.904,6.997,-0.072,-2.469,1.147,-4.271,10.379,-0.507,0.264,0.260,happy
6.49,539,0,0,0,0,0,0,0,142,2,0,343,1635,0,3167,4095,2.808,16.226,19.613,4.734,-0.806,-1.783,1.044,-4.214,10.214,-0.189,0.138,0.178,happy
6.50,0,0,0,0,0,0,0,0,185,23,0,511,1854,0,3237,4095,6.263,3.907,19.613,1.169,0.029,-2.884,1.544,-3.249,9.452,-0.088,0.167,0.072,happy
6.51,0,0,0,0,0,0,0,0,173,310,0,583,2029,2,3357,4095,10.925,7.798,13.185,0.343,0.659,-1.845,1.489,-3.546,9.515,0.039,0.074,0.046,happy
6.52,0,0,0,0,0,0,0,0,143,467,0,731,2287,5,3429,4095,4.865,-4.999,11.791,-0.742,0.932,-1.924,1.444,-3.349,9.685,0.104,0.036,-0.018,happy
6.53,0,0,0,0,0,0,0,0,111,467,1062,869,2409,29,3507,4095,4.954,-2.234,7.269,-0.948,0.430,-1.235,1.607,-3.117,9.378,0.113,0.046,-0.021,happy
6.54,0,0,0,0,0,0,0,0,108,581,1195,890,2519,0,3544,4095,4.683,-1.331,9.699,-1.281,-0.245,-0.878,1.410,-2.471,8.662,-0.015,-0.086,-0.035,happy
6.55,0,0,0,0,0,0,0,0,88,681,1732,1017,2702,24,3604,4095,6.914,1.614,12.414,-2.573,-0.384,0.035,1.444,-3.397,9.586,0.049,0.030,0.073,happy
6.56,0,0,0,0,0,0,0,0,98,909,1916,1065,2776,26,3592,4095,5.162,2.160,10.661,-3.427,-0.189,0.563,1.487,-3.428,9.768,0.024,0.037,0.062,happy
6.57,0,0,0,0,0,0,0,0,107,972,1978,1050,2841,27,3614,4095,2.251,1.942,7.738,-3.824,-0.283,0.888,1.482,-3.172,9.390,-0.015,-0.001,0.048,happy
6.58,0,0,0,0,0,0,0,0,134,1127,2044,1299,2969,31,3577,4055,0.237,2.152,6.474,-3.863,-0.871,0.942,1.448,-3.249,9.392,-0.058,-0.014,0.056,happy
6.59,0,0,0,0,0,0,0,0,154,1245,2075,1403,3033,41,3553,4095,-0.462,4.068,9.953,-4.103,-1.056,0.740,1.379,-3.206,9.500,-0.047,-0.019,0.075,happy
6.60,0,0,0,0,0,0,0,0,162,1437,2126,1513,3123,37,3475,4088,-0.572,5.887,11.286,-4.494,-1.334,0.562,1.405,-3.077,9.304,-0.031,-0.006,0.106,happy
6.61,0,0,0,0,0,0,0,0,271,1645,2154,1763,3236,47,3435,4045,0.572,7.070,11.372,-4.584,-1.302,0.658,1.946,-3.721,9.787,-0.149,-0.041,0.146,happy
6.62,0,0,0,0,0,0,0,0,360,1973,2167,1884,3283,51,3380,4005,0.553,8.990,14.087,-4.567,-1.180,0.924,1.190,-3.168,9.294,-0.174,-0.003,0.167,happy
6.63,0,0,0,0,0,0,0,0,765,2275,2167,2173,3383,47,3123,3955,0.055,10.350,15.536,-4.482,-1.278,1.139,1.384,-3.297,9.493,-0.137,-0.012,0.138,happy
6.64,0,0,0,0,0,0,0,0,1491,2439,2216,2389,3465,59,2983,3847,1.872,12.967,15.481,-3.908,-0.975,1.118,1.480,-3.349,9.464,-0.170,-0.035,0.082,happy
6.65,0,0,0,0,0,0,0,0,1772,2516,2193,2467,3413,43,2873,3687,0.110,18.766,18.854,-4.007,-0.767,1.085,1.599,-3.565,9.663,-0.153,0.024,0.078,happy
6.66,0,0,0,0,0,0,0,0,2483,2731,2216,2706,3507,50,2533,3384,-0.974,19.015,8.078,-3.904,-1.147,1.223,1.537,-3.407,9.529,-0.199,0.094,0.043,happy
6.67,48,0,0,0,193,0,0,0,3031,2805,2224,2957,3389,47,1884,2679,-5.760,18.179,-0.476,-2.434,-1.877,1.300,1.453,-3.472,9.503,-0.345,0.053,0.010,happy
6.68,164,0,0,0,272,0,0,0,3235,2879,2229,2979,3419,45,1330,2279,-6.007,19.613,-8.684,-0.910,-0.695,1.380,1.525,-3.962,9.357,-0.338,0.034,0.024,happy
6.69,243,0,0,0,290,0,0,0,3507,3001,2229,3175,2858,51,509,1693,-4.702,14.583,-4.269,1.371,0.470,0.158,1.623,-4.480,9.201,-0.153,0.232,0.039,happy
6.70,0,0,0,0,285,0,0,0,3695,3007,2244,3325,2389,5,5,1255,3.522,6.191,19.613,1.422,1.164,0.246,1.448,-4.307,8.882,-0.673,0.252,-0.108,happy
6.71,0,0,0,0,262,0,97,0,3755,2813,2265,3417,1862,5,3,1069,2.461,-3.333,11.660,1.443,-0.018,0.779,1.310,-3.745,9.366,-0.505,0.236,-0.063,happy
6.72,0,0,0,0,169,0,605,2056,3820,2763,2257,3453,1419,5,2,939,-5.770,-3.747,9.809,3.279,-0.625,-0.425,1.748,-2.725,9.495,-0.643,0.168,-0.067,happy
6.73,0,0,0,0,434,0,1217,2933,3947,2637,2070,3469,619,1,3,721,1.034,9.043,15.907,2.518,-0.929,-0.284,1.128,-3.215,9.522,-0.915,0.157,-0.167,happy
6.74,0,0,0,0,752,0,2193,3225,4007,2317,2331,3611,84,4,0,573,4.827,4.005,10.532,1.894,-0.432,0.005,2.816,-2.806,9.529,-2.093,0.484,-0.337,happy
6.75,0,636,0,0,1617,0,2594,3335,4046,2011,2403,3605,124,0,1,533,4.120,4.228,9.421,1.137,1.431,-0.288,3.074,-3.010,10.956,-2.878,0.696,-0.429,happy
6.76,0,1330,0,0,2080,0,2819,3474,4060,1151,2439,3300,0,0,0,327,0.728,3.740,11.794,0.654,1.241,-0.377,2.509,-2.263,10.865,-4.041,1.529,0.218,happy
6.77,0,2025,0,0,2415,0,2943,3568,3963,61,63,2069,0,0,0,198,1.034,3.179,10.578,0.509,0.983,-0.415,2.672,-6.033,15.268,-4.366,1.245,2.330,happy
6.78,0,2471,0,0,2640,0,3070,3607,1651,0,0,921,2397,2223,7,125,1.269,3.764,10.451,0.435,0.987,-0.598,2.231,-4.961,15.560,-4.366,1.467,3.234,happy
6.79,325,2861,0,0,2799,0,3180,3630,2211,1,2,27,3,0,0,12,0.809,3.594,10.779,0.474,0.588,-0.589,1.805,-8.648,13.436,-4.366,1.344,3.983,happy
6.80,527,3007,256,0,2918,0,3218,3631,1039,0,0,0,0,0,0,182,1.283,3.704,10.683,0.375,0.249,-0.446,0.014,-11.382,12.196,-4.366,1.595,3.895,happy
6.81,719,3209,1535,0,3088,0,3280,3619,8,0,51,0,3,0,0,69,1.386,3.304,9.936,0.324,0.191,-0.062,1.812,-6.730,19.613,-0.256,-0.904,2.852,happy
6.82,768,3280,1936,0,3195,0,3250,3583,0,0,0,0,0,0,0,99,1.389,3.270,9.862,0.324,0.181,-0.047,9.369,3.718,10.901,1.128,-0.985,2.387,happy
6.83,886,3370,2256,131,3293,0,3318,3561,0,11,0,0,0,0,0,19,1.288,3.141,9.742,0.306,0.126,-0.070,8.447,2.849,5.715,1.482,-0.741,1.396,happy
6.84,942,3423,2489,336,3327,0,3287,3485,0,0,0,0,0,0,0,39,1.300,3.115,9.658,0.312,0.067,-0.092,7.355,0.737,6.883,1.593,-0.888,0.496,happy
6.85,978,3445,2637,464,3376,0,3273,3395,0,0,0,0,0,0,20,18,1.312,3.144,9.555,0.300,0.029,-0.112,7.369,-1.348,11.466,2.307,-0.950,-0.230,happy
6.86,1057,3520,2829,661,3413,0,3225,3222,1628,2597,0,2533,2612,1701,1599,3149,1.437,3.079,9.282,0.303,-0.043,-0.110,5.179,-1.389,12.081,3.114,-1.102,-0.955,happy
6.87,1247,3583,2961,966,3464,0,3165,3021,0,0,0,0,0,0,0,0,1.410,3.306,9.431,0.312,-0.063,-0.127,-1.489,-1.008,7.321,3.708,-1.941,-1.194,happy
6.88,1458,3663,3086,1279,3498,0,3071,2768,0,0,0,0,0,0,0,0,1.439,3.452,9.292,0.301,-0.002,-0.100,-1.403,-2.904,9.177,3.922,-1.626,-0.540,happy
6.89,1535,3511,3168,1584,3478,0,2960,2345,0,91,0,0,0,0,0,0,1.334,3.488,9.278,0.251,-0.012,-0.087,-1.767,-3.934,10.846,4.100,-1.676,-0.295,happy
6.90,1710,3750,3311,1936,3499,0,2914,2003,0,0,0,0,0,0,0,0,1.408,3.352,9.249,0.236,-0.033,-0.074,0.330,-5.076,10.824,4.201,-2.040,-0.390,happy
6.91,1825,3792,3360,2183,3531,0,2814,1675,0,0,0,0,0,0,0,0,1.336,3.524,9.278,0.193,-0.018,-0.069,-0.718,-5.866,13.329,4.161,-2.331,-0.855,happy
6.92,1978,3840,3451,2334,3552,0,2726,1170,0,0,0,0,0,0,27,5,1.535,3.452,9.313,0.160,0.003,-0.082,-2.715,-6.467,15.244,4.112,-2.554,-0.830,happy
6.93,2113,3865,3497,2478,3552,0,2633,279,51,0,0,0,0,0,0,0,1.494,3.589,9.357,0.163,-0.003,-0.069,-6.936,-8.406,19.099,4.313,-2.863,0.019,happy
6.94,2096,3685,3366,2397,3375,0,2293,0,0,3,0,0,0,0,0,0,1.346,3.570,9.282,0.189,0.008,-0.042,-9.843,-10.839,18.318,4.241,-3.457,1.017,happy
6.95,2350,3915,3582,2635,3551,0,2252,0,0,0,0,0,8,0,0,0,1.209,3.555,9.325,0.211,0.015,-0.034,-9.230,-11.928,16.874,4.076,-3.386,1.310,happy
6.96,2448,3918,3605,2701,3556,0,2059,0,0,9,0,5,0,0,0,0,1.317,3.553,9.275,0.226,0.004,-0.044,-7.542,-12.828,13.029,3.689,-3.009,1.319,happy
6.97,2559,3927,3631,2750,3499,0,1830,0,0,0,0,14,0,0,0,0,1.429,3.598,9.285,0.276,-0.021,-0.060,-6.812,-13.803,7.444,2.992,-2.594,1.080,happy
6.98,2709,3959,3647,2805,3357,0,1104,0,1590,2589,0,2525,2597,1709,1607,3135,1.453,3.701,9.203,0.362,-0.018,-0.066,-9.464,-19.613,-1.839,1.133,-2.440,0.528,happy
6.99,2853,3983,3675,2864,2890,0,369,0,1590,2580,0,2515,2605,1690,1588,3131,1.360,3.390,9.543,0.336,0.058,-0.105,-6.266,-19.613,-6.658,-0.150,-1.351,-0.368,happy
7.00,2979,3994,3717,2913,2366,0,240,0,0,0,0,0,0,0,25,0,2.066,3.543,8.981,0.673,0.109,0.079,3.182,-6.469,3.074,-2.180,2.470,-0.966,happy
7.01,3071,3998,3730,2969,2147,0,201,0,0,0,0,0,0,0,0,0,1.671,3.685,9.206,0.864,0.102,0.171,0.716,-1.460,19.613,-1.044,1.821,-1.185,happy
7.02,3153,3995,3743,3013,1985,0,80,0,0,0,0,0,0,0,0,233,1.638,4.104,9.222,0.915,0.108,0.168,4.623,5.533,8.401,-1.733,0.447,-1.417,happy
7.03,3245,3997,3754,3056,1771,0,0,0,0,0,0,0,0,0,0,1004,1.573,4.257,9.383,1.021,0.147,0.156,-1.075,4.958,6.680,-2.143,0.716,-0.553,happy
7.04,3313,4002,3757,3087,1622,0,0,0,0,0,0,0,10,0,0,1877,1.554,3.723,9.014,1.201,0.207,0.161,-7.307,-2.332,13.082,-2.717,0.340,-0.061,happy
7.05,3391,3987,3758,3111,1535,0,0,0,0,0,0,0,0,0,2,2537,1.444,3.632,9.330,1.389,0.170,0.153,-5.777,-1.623,12.024,-2.789,0.216,0.386,happy
7.06,3452,4003,3751,3087,1348,0,0,0,40,0,0,0,0,0,346,3051,1.623,3.713,9.237,1.768,0.271,0.209,2.650,-3.869,13.424,-2.715,0.075,0.663,happy
7.07,3490,3932,3717,2966,1159,0,0,0,75,4,0,1,0,0,839,3363,1.707,3.060,9.448,2.244,0.304,0.274,5.097,-5.507,11.334,-2.536,-0.046,0.284,happy
7.08,3536,3750,3601,2321,989,0,0,0,45,0,0,0,3,0,1939,3939,2.167,3.694,9.378,3.328,0.331,0.299,2.784,-4.329,10.338,-1.886,0.345,0.460,happy
7.09,3541,3198,3339,1857,682,0,0,0,133,0,0,0,167,0,2410,4045,0.642,1.896,11.796,3.818,0.250,0.155,5.248,-7.987,11.949,-0.814,1.444,0.611,happy
7.10,3437,2390,2290,827,0,0,0,0,103,0,0,0,341,0,2627,4095,-0.421,5.006,14.425,5.476,-1.045,-0.410,-0.558,-3.112,10.257,-0.357,1.513,0.657,happy
7.11,2557,1262,0,144,0,0,0,0,135,169,0,0,873,0,2991,4095,4.458,10.482,11.842,6.775,-0.374,-0.864,0.807,-3.433,10.578,-0.368,1.052,0.405,happy
7.12,1264,80,0,0,0,0,0,0,180,349,122,0,1471,0,3141,4095,4.132,11.942,11.428,6.326,0.241,-1.620,1.650,-3.689,10.271,-0.284,0.649,0.293,happy
7.13,96,0,0,0,0,0,0,0,179,394,0,0,1557,0,3273,4095,5.808,8.894,19.613,2.159,0.456,-1.470,1.611,-3.426,10.008,-0.179,0.582,0.265,happy
7.14,0,0,0,0,0,0,0,0,201,427,0,82,1532,1,3322,4095,6.795,5.169,16.316,0.512,1.934,-1.391,1.712,-3.390,9.876,-0.212,0.501,0.175,happy
7.15,0,0,0,0,0,0,0,0,253,407,2,45,1727,2,3418,4095,1.784,-5.567,11.935,-0.410,1.216,-0.833,1.302,-3.060,9.665,-0.238,0.359,0.130,happy
7.16,0,0,0,0,0,0,0,0,213,437,0,253,1803,0,3447,4095,1.319,-1.626,6.340,-0.521,1.168,-0.744,1.659,-3.464,9.656,-0.195,0.298,0.101,happy
7.17,0,0,0,0,0,0,0,0,191,475,2,363,1941,4,3502,4095,1.494,-0.773,9.531,-0.786,0.473,-0.786,1.257,-3.134,9.644,-0.152,0.238,0.131,happy
7.18,0,0,0,0,0,0,0,0,135,483,30,548,2002,5,3491,4095,4.192,0.986,10.707,-1.454,0.279,-0.578,1.583,-3.093,9.239,-0.124,0.239,0.152,happy
7.19,0,0,0,0,0,0,0,0,158,459,980,824,2035,37,3519,4095,4.482,1.243,10.673,-2.211,0.481,-0.314,1.494,-3.290,9.483,-0.149,0.192,0.155,happy
7.20,0,0,0,0,0,0,0,0,181,473,1428,969,2043,39,3532,4095,3.409,1.152,8.938,-2.811,0.579,-0.123,1.448,-3.278,9.498,-0.139,0.150,0.117,happy
7.21,0,0,0,0,0,0,0,0,205,610,1717,1118,2129,39,3560,4095,2.653,1.310,7.537,-3.155,0.408,0.038,1.422,-3.251,9.433,-0.157,0.102,0.089,happy
7.22,0,0,0,0,0,0,0,0,141,733,1771,1315,2167,34,3488,4095,3.050,1.992,7.094,-3.371,0.258,0.172,1.243,-3.103,9.419,-0.187,0.083,0.097,happy
7.23,0,0,0,0,0,0,0,0,142,905,1906,1427,2215,47,3516,4095,3.608,2.789,7.558,-3.563,0.200,0.291,1.398,-3.400,9.414,-0.174,0.075,0.100,happy
7.24,0,0,0,0,0,0,0,0,149,970,1950,1493,2293,59,3516,4095,3.836,3.721,8.260,-3.756,0.156,0.469,1.422,-3.268,9.309,-0.171,0.057,0.118,happy
7.25,0,0,0,0,0,0,0,0,205,1031,2021,1615,2402,33,3515,4095,3.740,4.575,9.170,-3.951,0.012,0.655,1.551,-3.450,9.512,-0.166,0.067,0.091,happy
7.26,0,0,0,0,0,0,0,0,295,1041,2044,1695,2470,23,3508,4095,4.738,5.947,9.687,-4.131,-0.192,0.856,1.358,-3.326,9.376,-0.178,0.035,0.100,happy
7.27,0,0,0,0,0,0,0,0,668,1287,2114,2021,2551,45,3513,4095,9.507,8.480,9.275,-4.228,0.026,1.624,1.446,-3.563,9.321,-0.114,0.081,0.004,happy
7.28,0,0,0,0,0,0,0,0,1111,1415,2096,2206,2521,47,3501,4095,10.317,10.214,9.055,-4.166,0.346,2.522,1.290,-3.594,9.392,-0.067,0.137,-0.004,happy
7.29,0,0,0,0,0,0,0,0,1781,1576,2178,2361,2284,47,3351,4095,8.107,13.060,9.354,-3.720,0.049,3.994,1.408,-3.570,9.493,0.010,0.222,-0.015,happy
7.30,0,0,0,0,0,0,0,0,1993,1579,2188,2475,2215,46,3277,4095,9.694,17.245,9.246,-2.951,0.438,5.021,1.310,-3.610,9.400,0.062,0.203,-0.023,happy
7.31,0,0,0,0,0,0,0,0,2279,1671,2190,2749,2253,46,3141,4084,8.250,18.093,5.239,-2.228,1.845,5.348,1.109,-3.517,9.452,0.018,0.105,-0.007,happy
7.32,0,0,0,0,0,0,0,0,2395,1803,2188,2873,2267,46,3089,4072,3.824,16.142,3.381,-1.175,1.427,4.896,1.168,-3.476,9.445,0.009,0.078,0.012,happy
7.33,0,0,0,0,0,0,0,0,2635,1893,2195,2975,2311,42,2873,4011,3.881,15.474,6.050,-0.027,0.235,4.514,1.180,-3.491,9.402,-0.007,0.050,0.023,happy
7.34,0,0,0,0,41,0,0,0,2821,2099,2203,3047,2459,48,2617,3940,4.887,15.711,6.084,-0.010,0.628,4.255,1.381,-3.457,9.476,-0.050,0.020,0.028,happy
7.35,0,0,0,0,194,0,0,0,2983,2297,2208,3129,2501,47,1743,3789,2.562,13.230,1.903,0.431,0.403,3.904,1.267,-3.249,9.263,-0.107,0.034,0.025,happy
7.36,0,0,0,0,215,0,0,0,3005,2357,2208,3135,2404,48,1607,3670,3.764,12.859,1.484,1.219,0.528,3.715,1.259,-3.488,9.426,-0.130,0.034,0.009,happy
7.37,0,0,0,0,212,0,0,0,3178,2405,2201,3207,2038,14,1223,3322,3.548,11.677,2.433,1.885,0.699,4.046,1.326,-3.670,9.512,-0.185,0.022,-0.004,happy
7.38,0,0,0,0,211,0,0,0,3272,2463,2224,3221,1901,47,812,2828,1.571,10.257,3.845,2.395,0.698,3.873,1.197,-3.634,9.347,-0.171,0.024,0.003,happy
7.39,0,919,0,0,646,0,0,0,3365,2411,2515,3273,1739,82,459,2573,-11.116,15.069,19.613,1.058,3.321,1.886,1.240,-3.838,9.249,-0.122,0.034,0.016,happy
7.40,0,1646,0,0,1068,0,0,0,3091,2219,2065,3068,1359,29,93,2004,-0.321,-7.221,7.882,-0.834,1.219,0.882,1.250,-3.524,9.201,-0.183,-0.050,-0.007,happy
7.41,0,2304,0,0,1291,0,469,0,3097,2063,2019,2805,1237,13,24,1544,2.337,5.253,8.930,0.600,-0.275,-0.361,1.755,-4.410,9.567,-0.111,-0.237,0.008,happy
7.42,13,2958,178,0,2027,0,1429,0,3526,2355,2208,3160,1063,4,2,1021,-0.591,1.188,10.266,0.238,-0.342,-0.461,1.568,-3.915,9.337,-0.134,-0.237,0.030,happy
7.43,275,3167,1011,0,2342,0,2084,865,3553,2024,2116,3038,621,0,3,1003,2.940,3.926,8.873,0.588,-0.270,-0.395,1.654,-2.928,9.256,-0.256,-0.116,-0.015,happy
7.44,506,3326,1714,22,2588,0,2365,1867,3389,1816,2208,2911,415,4,0,1049,0.747,4.082,9.814,0.382,-0.237,-0.215,0.383,-3.737,9.246,-0.279,-0.015,0.013,happy
7.45,763,3394,1965,90,2736,0,2657,2482,2813,1463,2198,2831,115,0,2,1041,0.441,3.694,9.802,0.153,-0.120,0.030,0.522,-3.881,10.058,-0.323,-0.058,0.193,happy
7.46,837,3398,2178,158,2863,0,2871,2768,3113,1391,2147,2815,0,0,0,971,1.448,3.326,9.234,0.147,-0.113,0.018,0.627,-4.860,8.578,-0.073,-0.248,1.035,happy
7.47,967,3439,2352,182,3021,0,2971,2896,3171,901,2108,2719,0,9,0,813,1.628,3.297,9.187,0.190,-0.177,-0.103,1.508,-4.446,9.256,0.268,-0.767,2.571,happy
7.48,1136,3534,2465,112,3148,0,3047,2952,1594,2554,1205,2485,2577,1672,1563,3101,1.628,3.474,9.230,0.192,-0.070,-0.038,0.905,-4.243,8.236,0.234,-1.028,3.167,happy
7.49,1242,3402,2587,182,3081,0,3066,2812,1595,2547,0,2485,2577,1699,1563,3113,1.377,3.663,9.335,0.103,0.000,-0.062,1.731,-4.243,7.920,0.402,-1.440,3.946,happy
7.50,1435,3634,2702,542,3280,0,3127,3023,1589,2548,0,2463,2577,1657,1562,3104,1.506,3.572,9.256,0.087,0.005,-0.036,1.132,-4.499,8.830,0.686,-1.602,4.324,happy
7.51,1507,3687,2774,751,3312,0,3158,3069,1589,2549,107,2487,2579,1683,1563,3103,1.276,3.534,9.388,0.048,0.037,0.023,1.168,-4.365,8.859,0.736,-1.670,4.366,happy
7.52,1578,3686,2844,827,3306,0,3184,3092,1197,0,0,541,0,0,0,381,1.358,3.452,9.301,0.027,0.056,0.030,0.108,-4.096,9.524,0.771,-1.692,4.345,happy
7.53,1616,3716,2889,1040,3340,25,3191,3124,243,0,0,93,0,0,35,311,1.365,3.555,9.268,-0.023,0.075,0.010,-0.699,-5.409,9.615,0.970,-1.571,4.273,happy
7.54,1680,3728,2919,1205,3345,42,3200,3153,98,0,0,0,0,0,0,325,1.386,3.388,9.234,-0.015,0.064,0.019,-1.860,-5.641,9.936,1.128,-1.560,4.061,happy
7.55,1734,3735,2975,1406,3354,48,3200,3171,103,0,0,0,0,0,0,201,1.276,3.464,9.337,0.019,0.049,0.024,-6.558,-6.203,11.497,1.572,-2.071,4.084,happy
7.56,1761,3744,3001,1535,3347,112,3215,3184,61,0,0,0,0,0,59,105,1.250,3.400,9.304,0.039,0.057,0.016,-5.923,-5.816,8.969,1.426,-1.484,4.353,happy
7.57,1840,3760,3023,1684,3332,143,3216,3193,39,0,0,1,0,0,0,37,1.310,3.445,9.239,0.035,0.071,0.006,-4.262,-5.890,8.916,1.342,-1.217,4.366,happy
7.58,1890,3769,3022,1808,3353,179,3217,3207,16,0,0,23,0,0,1,5,1.214,3.421,9.313,0.040,0.057,0.018,-1.793,-4.726,7.025,0.964,-0.422,3.957,happy
7.59,1927,3764,3053,1863,3353,181,3218,3247,0,0,0,0,0,0,0,0,1.219,3.436,9.313,0.054,0.054,0.007,-1.978,-4.573,8.298,0.421,-0.117,3.896,happy
7.60,1959,3771,3071,1951,3376,219,3214,3225,0,1,0,0,0,0,0,0,1.271,3.409,9.299,0.053,0.054,-0.005,-1.511,-5.205,9.819,0.447,-0.070,3.903,happy
7.61,2001,3778,3120,2026,3372,165,3216,3231,0,0,0,0,0,41,0,3,1.245,3.452,9.246,0.056,0.043,-0.008,-1.654,-5.619,9.859,0.635,-0.184,3.974,happy
7.62,2055,3774,3131,2080,3392,208,3209,3242,7,0,0,0,0,0,0,0,1.216,3.522,9.292,0.063,0.054,0.012,-2.310,-6.407,8.552,0.657,-0.588,4.366,happy
7.63,2087,3776,3150,2119,3348,171,3200,3235,4,0,0,0,0,28,0,0,1.295,3.417,9.301,0.056,0.065,0.003,-1.817,-6.972,8.337,0.637,-0.772,4.366,happy
7.64,2128,3773,3170,2195,3297,217,3189,3225,0,0,0,0,6,0,0,0,1.267,3.424,9.275,0.058,0.064,0.001,-0.886,-7.896,7.889,0.621,-1.066,4.366,happy
7.65,2180,3802,3180,2215,3253,236,3170,3220,0,0,0,0,0,0,0,0,1.223,3.496,9.266,0.034,0.082,0.026,1.264,-8.231,7.072,0.564,-1.071,4.366,happy
7.66,2224,3760,3197,2271,3152,225,3120,3216,0,0,0,0,0,0,0,0,1.176,3.405,9.409,0.020,0.086,0.017,2.476,-8.648,5.583,0.654,-0.869,4.366,happy
7.67,2260,3760,3214,2313,3131,455,3168,3216,0,0,0,0,0,0,0,0,1.238,3.393,9.239,0.017,0.095,0.014,3.998,-7.645,6.323,0.110,-0.803,4.220,happy
7.68,2289,3580,3237,2314,3006,477,3151,3039,0,0,0,1,0,0,0,0,1.221,3.412,9.333,-0.003,0.115,0.015,5.243,-6.297,10.046,0.171,-1.768,3.690,happy
7.69,2326,3759,3262,2448,3111,479,3120,3218,0,0,0,0,0,0,0,77,1.202,3.424,9.352,-0.023,0.126,0.015,9.079,-1.240,9.946,0.262,-1.293,3.414,happy
7.70,2352,3760,3280,2503,3071,493,3055,3201,0,0,0,0,0,0,0,1491,1.262,3.366,9.299,-0.027,0.123,0.026,19.613,0.572,5.727,-0.953,-1.178,1.052,happy
7.71,2331,3740,3291,2528,3039,423,2951,3107,0,0,0,0,0,0,0,2283,1.132,3.318,9.313,-0.011,0.127,0.024,19.613,-5.356,3.790,-0.968,-0.428,-0.499,happy
7.72,2289,3735,3310,2547,2958,0,2753,2704,1587,2549,0,2483,2579,1663,1567,3103,1.116,3.345,9.390,0.032,0.104,0.023,-9.845,-8.741,14.451,-1.283,-1.358,-0.376,happy
7.73,2174,3739,3153,2509,2911,0,2346,2000,5,0,0,0,0,0,680,3270,0.924,3.268,9.383,0.183,-0.015,0.020,1.448,-4.580,13.554,-0.759,-0.872,-0.424,happy
7.74,2017,3753,3364,2482,2867,0,1948,863,13,0,0,16,12,0,857,3499,1.120,3.249,9.325,0.353,-0.046,0.033,1.355,-4.480,11.080,-0.351,-0.965,-0.605,happy
7.75,1806,3760,3376,2398,2475,0,902,0,28,0,0,0,47,0,1295,3603,0.984,3.139,9.740,0.351,0.025,-0.042,1.245,-3.424,9.740,-0.049,-1.225,-0.801,happy
7.76,1229,3728,3378,2431,1081,0,81,0,36,0,0,0,227,0,2109,3755,1.125,2.938,9.993,0.760,0.268,-0.008,1.434,-2.569,8.823,0.124,-0.458,-0.220,happy
7.77,1018,3495,3296,2299,385,0,0,0,47,85,0,0,409,6,2431,3838,3.249,4.326,10.458,1.318,0.669,0.207,1.271,-3.031,9.201,0.115,-0.306,-0.187,happy
7.78,966,2586,2967,2064,0,0,0,0,0,187,0,2,764,0,2931,3959,3.074,4.556,11.037,1.035,1.579,0.212,1.609,-2.789,9.318,0.044,-0.084,-0.065,happy
7.79,666,787,1495,1311,0,0,0,0,0,244,0,5,999,0,3195,4041,6.005,4.934,10.494,0.751,2.623,0.065,1.882,-2.911,9.488,0.043,0.112,0.037,happy
7.80,0,156,0,528,0,0,0,0,0,207,0,0,1279,0,3359,4070,7.475,4.487,12.711,0.582,3.775,-0.510,2.076,-3.426,9.708,0.070,0.147,0.072,happy
7.81,0,0,0,6,0,0,0,0,0,186,0,4,1405,0,3410,4076,12.048,9.273,12.711,0.005,4.758,-0.369,1.630,-2.710,9.536,0.038,0.103,0.026,happy
7.82,0,0,0,0,0,0,0,0,0,147,0,16,1511,0,3483,4095,19.613,12.491,4.226,-0.022,3.665,2.058,1.659,-2.854,9.589,0.040,0.085,0.009,happy
7.83,0,0,0,0,0,0,0,0,0,109,0,30,1638,0,3515,4095,9.895,10.558,7.195,-0.430,3.539,3.588,1.549,-2.952,9.661,0.019,0.053,0.023,happy
7.84,0,0,0,0,0,0,0,0,0,77,2,0,1711,0,3543,4095,1.908,6.333,4.128,-0.086,3.033,3.817,1.609,-2.777,9.562,0.029,0.010,0.031,happy
7.85,0,0,0,0,0,0,0,0,1,0,0,21,1727,0,3555,4095,0.441,6.553,7.029,-0.044,2.039,3.424,1.626,-2.749,9.515,0.037,0.014,0.040,happy
7.86,0,0,0,0,0,0,0,0,0,0,0,7,1719,8,3559,4095,2.794,5.559,8.291,-0.070,1.465,2.921,1.587,-2.605,9.354,0.016,0.016,0.062,happy
7.87,0,0,0,0,0,0,0,0,0,0,0,0,1593,0,3559,4095,4.609,4.966,8.097,-0.117,1.329,2.732,1.657,-2.804,9.467,0.013,0.030,0.067,happy
7.88,0,0,0,0,0,0,0,0,3,0,0,0,1532,0,3573,4095,4.518,4.719,7.630,-0.245,0.969,2.677,1.616,-2.631,9.380,-0.001,0.070,0.077,happy
7.89,0,0,0,0,0,0,0,0,6,3,0,10,1395,0,3544,4095,4.302,4.575,7.740,-0.370,0.783,2.510,1.662,-2.866,9.433,0.000,0.105,0.098,happy
7.90,0,0,0,0,0,0,0,0,0,0,0,0,1356,0,3589,4095,4.365,4.183,7.525,-0.422,0.475,2.263,1.597,-2.761,9.369,0.003,0.124,0.099,happy
7.91,0,0,0,0,0,0,0,0,29,0,0,47,1317,0,3534,4095,4.774,4.065,7.946,-0.468,0.330,2.099,1.350,-2.964,9.467,-0.015,0.083,0.062,happy
7.92,0,0,0,0,0,0,0,0,0,0,94,9,1319,0,3546,4095,5.308,4.673,9.491,-0.597,0.153,2.054,1.075,-2.701,9.706,-0.007,0.135,0.113,happy
7.93,0,0,0,0,0,0,0,0,14,0,0,21,1418,0,3573,4095,6.340,4.920,9.807,-0.830,0.105,2.319,1.302,-2.777,9.471,-0.010,0.140,0.128,happy
7.94,0,0,0,0,0,0,0,0,26,0,0,23,1460,0,3556,4095,6.304,4.669,9.096,-1.008,0.154,2.620,1.070,-2.650,9.333,-0.029,0.201,0.142,happy
7.95,0,0,0,0,0,0,0,0,10,0,0,92,1643,1,3641,4095,6.412,4.578,8.756,-0.972,0.172,3.171,2.011,-2.971,9.606,-0.069,0.262,0.178,happy
7.96,0,0,0,0,0,0,0,0,29,0,0,183,1581,0,3663,4095,6.333,4.975,9.330,-0.989,0.086,3.639,1.927,-2.830,9.127,-0.025,0.351,0.216,happy
7.97,0,0,0,0,0,0,0,0,11,0,0,281,1624,0,3645,4093,5.878,5.363,9.220,-1.050,0.060,4.099,1.990,-2.418,9.017,-0.105,0.370,0.234,happy
7.98,0,0,0,0,0,0,0,0,43,0,0,462,1724,0,3635,4083,5.590,5.626,9.464,-1.065,0.171,4.512,1.949,-2.959,9.512,-0.143,0.289,0.248,happy
7.99,0,0,0,0,0,0,0,0,45,1,1133,739,1908,0,3619,4095,4.911,6.213,10.223,-1.090,0.206,4.869,1.812,-3.215,8.978,-0.134,0.261,0.224,happy
8.00,0,0,0,0,0,0,0,0,36,0,1405,823,1959,8,3629,4095,4.424,6.831,10.870,-1.170,0.208,5.153,1.714,-2.813,9.000,-0.118,0.179,0.191,happy
8.01,0,0,0,0,0,0,0,0,44,1,1451,867,2011,8,3601,4091,4.061,7.039,10.345,-1.239,0.362,5.333,1.664,-2.880,9.069,-0.088,0.109,0.154,happy
8.02,0,0,0,0,0,0,0,0,60,30,1333,979,2079,8,3549,4083,3.316,6.876,9.481,-1.183,0.553,5.421,2.045,-3.038,8.255,-0.069,0.079,0.120,happy
8.03,0,0,0,0,0,0,0,0,57,303,1776,959,2154,18,3511,4063,2.602,7.611,10.063,-1.074,0.566,5.422,1.209,-2.794,8.497,-0.000,0.073,0.139,happy
8.04,0,0,0,0,0,0,0,0,91,472,1955,1035,2275,36,3446,4063,2.535,8.679,11.849,-0.978,0.519,5.460,2.569,-4.178,10.494,-0.044,0.053,0.159,happy
8.05,0,0,0,0,0,0,0,0,109,649,1952,1205,2405,27,3385,4019,2.715,10.247,13.453,-1.118,0.499,5.462,0.163,-2.705,9.531,-0.129,-0.023,0.140,happy
8.06,0,0,0,0,0,0,0,0,206,922,2014,1211,2639,53,3352,3947,1.336,10.415,12.234,-1.371,0.414,5.250,1.135,-2.871,9.428,-0.136,-0.030,0.164,happy
8.07,0,0,0,0,0,0,0,0,268,1291,2080,1371,2714,46,3288,3805,-1.099,10.740,11.009,-1.600,0.240,4.560,1.331,-2.761,8.595,-0.147,0.021,0.187,happy
8.08,0,0,0,0,0,0,0,0,573,1355,2101,1774,2797,47,3087,3795,-6.235,9.409,8.732,-1.668,-0.741,3.256,1.290,-2.986,8.811,-0.204,0.023,0.207,happy
8.09,0,0,0,0,0,0,0,0,685,1620,2157,1934,2862,47,2992,3705,-5.423,10.099,5.533,-1.252,-0.711,2.037,0.757,-3.036,9.340,-0.153,0.015,0.103,happy
8.10,0,0,0,0,0,0,0,0,1482,1934,2188,2220,2931,47,2915,3389,-6.431,11.490,3.124,-0.789,-0.036,0.838,1.154,-3.235,9.438,-0.168,-0.009,0.093,happy
8.11,0,0,0,0,26,0,0,0,2259,2356,2208,2471,3013,45,2687,3371,-4.362,11.368,2.684,-0.008,-0.238,0.003,1.319,-3.464,9.658,-0.224,0.013,0.044,happy
8.12,0,0,0,0,0,0,0,0,2643,2456,2244,2709,3033,27,2327,3257,-1.221,9.699,4.164,0.508,0.020,-0.172,1.307,-3.426,9.378,-0.273,0.134,0.014,happy
8.13,0,0,0,0,6,0,0,0,3091,2677,2239,2943,2997,52,2211,3103,-0.474,7.039,5.871,1.549,0.925,-0.007,1.403,-3.546,9.498,-0.310,0.064,0.007,happy
8.14,0,0,0,0,48,0,0,0,3513,2843,2242,2997,2808,45,1211,2495,0.644,-1.583,13.204,0.972,0.262,0.441,1.279,-3.165,9.196,-0.446,0.153,-0.024,happy
8.15,0,0,0,0,97,0,279,1987,3803,2868,2224,3187,2585,79,269,1607,-2.526,-2.105,7.381,2.516,-0.625,-0.133,1.788,-4.915,9.658,-0.256,0.181,0.079,happy
8.16,0,0,0,0,320,0,848,2927,3899,2591,2249,3288,2301,18,70,1099,2.411,6.584,13.944,2.463,-1.120,-0.236,2.100,-4.561,9.170,-0.308,0.119,0.117,happy
8.17,0,0,0,0,590,0,1834,3248,4021,2391,2265,3397,1146,6,29,765,6.500,5.145,11.258,1.828,-0.780,0.078,0.929,-4.293,9.069,-0.717,0.083,-0.110,happy
8.18,0,573,0,0,1184,0,2387,3365,4095,2321,2270,3503,329,5,17,795,1.176,3.270,9.711,0.596,1.088,-0.215,1.192,-3.560,9.210,-0.840,-0.025,-0.256,happy
8.19,0,1369,0,0,1763,0,2641,3415,4095,2054,2290,3517,212,5,2,670,1.264,3.055,10.834,0.339,0.965,-0.255,1.611,-3.158,9.749,-1.105,0.118,-0.361,happy
8.20,0,1813,0,0,2032,0,2773,3465,4095,1561,2331,3484,13,1,0,402,1.025,3.704,11.380,0.185,0.632,-0.164,2.471,-4.125,10.829,-2.519,0.389,-0.209,happy
8.21,0,2035,0,0,2357,0,2879,3469,4095,535,2352,3030,0,1,0,212,1.583,2.516,9.697,0.189,0.578,-0.209,2.679,-3.797,10.113,-3.392,0.789,0.608,happy
8.22,0,2371,0,0,2554,0,2992,3504,3929,95,2044,2419,11,0,0,120,1.341,2.904,9.761,0.226,0.473,-0.273,0.397,-3.620,12.747,-3.892,0.214,1.422,happy
8.23,0,2718,0,0,2687,0,3132,3523,3621,0,12,879,0,44,0,101,1.271,3.041,10.195,0.213,0.306,-0.159,1.729,-5.538,11.842,-4.366,-0.615,2.902,happy
8.24,0,2910,16,0,2864,0,3248,3539,1605,2521,0,2485,2578,1659,1559,3099,1.348,2.796,9.555,0.173,0.068,-0.017,2.792,-9.203,13.563,-4.366,-0.939,3.659,happy
8.25,0,2865,352,0,2858,0,3139,3339,1583,2549,0,2485,2575,1657,1563,3109,1.946,2.679,9.234,0.243,0.101,-0.099,-0.759,-6.709,13.465,-3.664,-1.199,3.872,happy
8.26,0,3190,934,0,3191,0,3367,3497,1591,2572,0,2509,2555,1562,1583,3119,1.786,3.033,9.488,0.233,0.029,-0.135,2.303,-5.092,14.449,0.142,-0.016,4.366,happy
8.27,0,3245,1451,0,3306,0,3395,3422,0,0,0,0,0,0,12,0,1.726,3.019,9.527,0.217,-0.009,-0.057,8.301,0.227,6.615,0.703,-0.095,2.786,happy
8.28,0,3295,1665,0,3358,0,3391,3365,0,0,0,8,0,0,0,0,1.662,3.005,9.402,0.185,0.024,-0.038,7.860,1.573,8.100,0.934,-0.342,1.752,happy
8.29,0,3311,1850,0,3397,0,3387,3295,0,0,0,8,0,20,0,0,1.669,2.780,9.273,0.190,0.059,-0.046,7.774,0.541,9.821,1.218,-0.770,0.627,happy
8.30,0,3337,2012,0,3424,0,3377,3216,0,0,0,0,0,0,36,0,1.437,2.844,9.306,0.195,0.062,-0.051,6.766,-0.285,11.056,1.718,-1.142,-0.339,happy
8.31,0,3382,2156,0,3454,0,3365,3136,0,0,0,0,0,0,0,0,1.729,2.931,9.201,0.193,0.032,-0.041,4.748,-0.436,10.671,2.165,-1.324,-1.070,happy
8.32,0,3415,2320,0,3472,0,3344,3045,0,0,0,0,0,0,33,0,1.520,2.935,9.431,0.200,0.024,-0.043,1.906,-0.357,9.115,2.441,-1.345,-1.443,happy
8.33,0,3441,2490,0,3485,0,3322,2959,0,0,0,0,0,0,0,0,1.626,3.077,9.409,0.205,0.035,-0.043,-0.730,-0.764,9.347,2.684,-1.444,-1.415,happy
8.34,0,3452,2504,73,3447,0,3259,2814,0,0,0,0,0,0,0,0,1.322,3.134,9.586,0.188,0.008,-0.048,-1.346,-1.477,10.527,2.925,-1.458,-1.195,happy
8.35,12,3522,2667,135,3513,0,3291,2779,1,0,0,0,0,0,3,0,1.480,3.177,9.443,0.176,0.010,-0.048,-1.525,-2.073,11.083,3.215,-1.396,-0.927,happy
8.36,54,3559,2723,183,3536,0,3264,2650,1,0,0,0,0,0,0,0,1.499,2.971,9.328,0.172,0.011,-0.058,-1.779,-2.373,11.133,3.409,-1.448,-0.702,happy
8.37,66,3600,2786,294,3540,0,3248,2544,0,0,0,0,0,0,0,0,1.592,3.093,9.335,0.162,0.009,-0.059,-0.943,-3.067,11.162,3.520,-1.574,-0.578,happy
8.38,105,3632,2845,379,3552,0,3231,2384,0,0,0,0,0,0,0,0,1.499,3.081,9.282,0.160,0.004,-0.063,-0.943,-3.067,11.162,3.520,-1.574,-0.567,happy
8.39,179,3673,2938,624,3581,0,3198,2197,0,0,0,0,0,0,0,0,1.453,3.199,9.407,0.137,0.006,-0.061,0.536,-4.597,11.940,3.730,-1.809,-0.618,happy
8.40,223,3699,2992,690,3609,0,3170,2090,0,0,0,0,0,0,0,0,1.437,3.211,9.416,0.131,0.004,-0.062,0.311,-4.925,13.774,3.646,-1.963,-0.750,happy
8.41,267,3715,3034,747,3626,0,3146,1989,0,0,0,0,0,25,12,0,1.422,3.206,9.388,0.123,0.002,-0.063,-0.103,-5.076,13.896,3.597,-1.897,-0.754,happy
8.42,375,3709,3138,806,3502,0,2957,1773,0,10,0,0,0,0,0,0,1.422,3.112,9.390,0.130,0.006,-0.084,-1.970,-6.510,15.869,3.272,-2.024,-0.496,happy
