timestamp,L1,L2,L3,L4,L5,L6,L7,L8,R1,R2,R3,R4,R5,R6,R7,R8,acc_x_left,acc_y_left,acc_z_left,gyro_x_left,gyro_y_left,gyro_z_left,acc_x_right,acc_y_right,acc_z_right,gyro_x_right,gyro_y_right,gyro_z_right,mood
0,3463,4026,3565,2898,3505,0,2928,2453,3045,0,0,213,0,0,0,0,1.128,4.02,9.139,0.053,0.044,0.003,-0.251,-5.626,8.279,-0.044,-0.002,0.017,happy
0.01,3472,4035,3563,2912,3501,0,2923,2442,3049,0,0,215,0,3,5,0,1.015,3.974,9.103,0.042,0.039,0,-0.117,-5.643,8.382,-0.033,0.007,0.015,happy
0.02,3482,4030,3568,2922,3501,0,2927,2449,3015,0,0,219,0,0,0,0,1.099,3.924,9.074,0.04,0.034,0,-0.318,-5.607,8.289,-0.038,0.006,0.021,happy
0.03,3489,3959,3568,2780,3499,0,2922,2350,3055,1,0,427,0,0,0,0,1.101,4.003,9.108,0.046,0.032,-0.008,-0.22,-5.691,8.42,-0.059,0.015,0.01,happy
0.04,3366,3885,3517,2814,3357,0,2791,2337,3066,0,0,381,0,0,0,0,1.109,4.044,9.045,0.047,0.019,-0.005,-0.373,-5.66,8.38,-0.043,0.018,0.023,happy
0.05,3499,3986,3569,2922,3489,0,2906,2387,3080,0,0,375,0,0,0,6,1.08,3.977,9.084,0.047,0.029,-0.007,-0.352,-5.593,8.279,-0.038,0.057,0.017,happy
0.06,3511,3930,3579,2846,3484,0,2896,2302,3091,0,0,315,0,0,0,0,1.056,3.946,9.12,0.055,0.028,-0.007,-0.342,-5.636,8.243,-0.037,0.067,-0.001,happy
0.07,3511,4034,3573,2955,3482,0,2877,2335,3104,0,0,296,0,0,0,0,0.998,3.982,9.127,0.055,0.031,-0.009,-0.194,-5.681,8.32,-0.046,0.058,-0.013,happy
0.08,3514,4034,3578,2960,3477,0,2860,2309,3113,5,0,71,0,0,0,0,1.125,3.986,9.108,0.052,0.014,-0.006,-0.192,-5.784,8.305,-0.021,0.043,0.016,happy
0.09,3526,3957,3581,2832,3489,0,2862,2186,3134,0,0,304,27,0,0,0,1.063,3.917,9.16,0.05,0.028,-0.01,-0.235,-5.691,8.303,0.002,0.017,0.03,happy
0.1,3520,4041,3579,2967,3477,0,2852,2271,3149,0,0,204,23,0,0,0,1.101,3.996,9.079,0.054,0.011,-0.006,-0.28,-5.748,8.231,0.018,0.014,0.03,happy
0.11,3520,4038,3583,2970,3483,0,2851,2256,3169,0,0,184,0,0,0,0,1.087,3.97,9.067,0.052,0.009,-0.003,-0.263,-5.753,8.344,0.039,0.019,0.034,happy
0.12,3530,3949,3582,2829,3494,0,2859,2112,3174,0,0,261,0,0,0,0,1.113,3.984,9.069,0.052,0.021,-0.01,-0.335,-5.725,8.346,0.058,0.02,0.023,happy
0.13,3531,4042,3583,2983,3493,0,2855,2225,3183,0,0,228,0,0,0,0,1.152,3.967,9.117,0.044,0.032,-0.005,-0.431,-5.578,8.358,0.056,-0.009,0.028,happy
0.14,3541,4033,3598,2989,3495,0,2861,2243,3171,0,0,221,0,0,0,0,1.154,3.934,9.117,0.05,0.027,-0.009,-0.103,-5.248,8.329,-0.023,-0.099,-0.062,happy
0.15,3537,3959,3622,2865,3489,0,2864,2139,3219,0,0,329,0,0,0,0,1.056,4.001,9.148,0.047,0.026,-0.013,-0.271,-5.657,8.42,-0.051,-0.035,-0.095,happy
0.16,3545,4037,3600,2992,3489,0,2861,2263,3253,0,48,249,0,0,0,0,1.077,3.977,9.093,0.042,0.031,-0.011,-0.184,-5.686,8.303,-0.056,-0.022,-0.115,happy
0.17,3545,4047,3614,2998,3458,0,2862,2292,3247,0,0,311,0,0,0,0,1.08,3.972,9.11,0.036,0.028,-0.01,-0.153,-5.758,8.377,-0.037,0.018,-0.11,happy
0.18,3553,3974,3610,2871,3501,0,2865,2214,3259,0,0,261,0,0,0,0,1.106,3.984,9.072,0.033,0.04,-0.011,-0.139,-5.696,8.42,-0.04,0.007,-0.099,happy
0.19,3551,4048,3605,3005,3503,0,2876,2375,3271,0,0,213,0,0,0,0,1.063,3.967,9.124,0.037,0.033,-0.007,-0.113,-5.629,8.375,-0.057,-0.016,-0.081,happy
0.2,3555,4043,3613,3007,3505,0,2891,2442,3287,0,0,174,0,0,0,0,1.111,3.996,9.017,0.022,0.031,-0.01,-0.28,-5.562,8.471,-0.127,-0.138,-0.047,happy
0.21,3563,3952,3617,2911,3509,0,2915,2375,3258,7,0,0,0,30,0,0,1.068,3.953,9.091,0.02,0.007,-0.004,-0.649,-5.473,8.349,-0.226,-0.737,0.024,happy
0.22,3557,4045,3618,3002,3523,0,2949,2559,3210,0,0,22,0,0,0,0,0.984,3.965,9.155,0.043,-0.08,-0.003,-0.383,-5.555,8.389,-0.269,-0.782,-0.07,happy
0.23,3551,4048,3614,2977,3547,0,3013,2608,3005,0,0,0,0,0,0,19,1.111,3.946,9.167,0.068,-0.102,-0.023,1.171,-5.988,9.026,-0.459,-0.371,-0.356,happy
0.24,3558,3953,3614,2805,3568,0,3055,2482,2425,0,0,0,0,0,0,0,1.211,3.998,9.017,0.052,-0.037,-0.012,0.299,-5.818,8.722,-0.67,0.393,-0.778,happy
0.25,3554,4044,3634,2928,3568,0,3082,2631,1878,33,0,9,16,4,1,10,1.231,3.948,9.079,0.058,-0.015,-0.008,-0.005,-5.782,8.543,-0.733,0.641,-0.957,happy
0.26,3559,4034,3600,2925,3568,0,3095,2662,1387,0,0,0,0,0,0,0,1.14,4.051,9.215,0.039,-0.018,0.002,0.352,-6.263,9.043,-0.744,0.925,-1.132,happy
0.27,3557,3940,3583,2786,3581,0,3118,2559,680,0,0,0,0,0,0,0,1.12,4.025,9.129,0.04,0.002,-0.014,-0.347,-5.94,8.933,-0.676,0.848,-1.174,happy
0.28,3547,4027,3578,2857,3575,0,3134,2745,293,0,2,0,0,0,0,0,1.156,3.943,9.091,0.041,-0.021,-0.031,-1.161,-5.112,9.85,-0.492,0.752,-1.069,happy
0.29,3546,4023,3614,2864,3571,0,3141,2771,57,0,0,0,0,0,0,0,1.18,3.898,9.141,0.04,0.02,-0.015,-1.484,-2.825,9.603,-0.098,0.728,-0.397,happy
0.3,3536,3951,3568,2699,3561,0,3152,2642,1,0,0,0,0,0,0,0,1.085,3.874,9.062,0.055,0.018,-0.027,-2.059,-2.643,11.102,0.415,0.788,0.421,happy
0.31,3534,4016,3562,2814,3542,0,3152,2790,0,0,0,0,0,0,0,0,1.195,4.077,8.964,0.015,0.018,-0.026,-0.651,-3.12,10.853,0.634,0.937,0.668,happy
0.32,3524,4016,3563,2809,3545,0,3162,2847,0,5,0,0,0,0,0,0,1.097,3.874,9.177,0.001,0.037,-0.014,2.346,-2.665,9.711,1.148,1.04,0.207,happy
0.33,3520,4011,3556,2805,3542,588,3175,2903,0,0,0,0,0,0,0,0,1.152,4.01,9.105,0.003,0.035,-0.027,3.223,-2.825,8.629,1.179,0.986,-0.207,happy
0.34,3530,3918,3553,2673,3554,880,3207,2817,0,0,145,0,0,0,0,0,1.183,3.917,9.143,0.034,0.012,-0.058,3.323,-3.084,8.128,1.104,0.813,-1.087,happy
0.35,3525,4016,3552,2787,3539,785,3213,2990,0,9,0,0,0,0,0,0,1.051,4.02,9.026,0.064,0.017,-0.029,3.048,-3.436,7.961,1.043,0.751,-1.477,happy
0.36,3531,4022,3558,2768,3532,1231,3221,3029,0,0,0,0,0,0,0,0,1.274,4.051,8.971,0.035,-0.023,-0.023,1.693,-4.24,8.487,0.987,0.73,-1.997,happy
0.37,3542,3870,3563,2662,3536,1954,3263,2960,0,0,0,0,0,0,0,0,1.25,3.893,9.16,0.049,-0.003,-0.032,-0.314,-4.779,9.541,1.152,0.475,-2.12,happy
0.38,3535,4016,3556,2733,3526,1808,3271,3119,0,0,0,0,0,0,0,0,1.097,3.965,9.194,0.033,-0.004,-0.082,-0.534,-5.227,9.67,1.233,0.365,-1.982,happy
0.39,3537,4009,3559,2701,3495,1776,3278,3134,0,0,0,0,0,0,0,0,1.276,3.982,9.026,0.032,0.02,-0.033,-0.761,-6.397,10.027,1.442,0.303,-1.697,happy
0.4,3537,3919,3553,2549,3450,1990,3296,3024,0,0,0,0,0,0,0,0,1.286,4.008,9.091,0.035,0.03,-0.012,-0.034,-6.529,8.004,1.342,0.542,-1.398,happy
0.41,3535,3984,3545,2663,3375,2064,3312,3202,0,0,0,0,0,0,0,0,1.104,3.955,9.127,0.056,0.063,-0.022,1.013,-7.175,8.176,1.164,0.547,-1.389,happy
0.42,3493,3942,3531,2601,3248,1817,3312,3200,0,0,0,0,0,0,0,41,1.219,3.9,9.048,0.055,0.055,-0.064,2.373,-8.171,6.902,0.945,0.654,-1.75,happy
0.43,3536,3870,3535,2501,3179,1856,3317,3086,111,0,0,0,0,0,0,0,1.202,3.91,9.112,0.059,0.076,-0.036,1.255,-8.054,3.807,0.212,0.916,-2.112,happy
0.44,3539,3912,3527,2627,3168,1760,3314,3216,0,0,0,0,0,0,0,0,1.132,3.958,9.093,0.078,0.08,-0.021,0.828,-8.696,3.654,-0.236,0.847,-2.167,happy
0.45,3541,3914,3517,2631,3150,1471,3311,3187,0,0,0,0,0,0,0,0,1.058,4.053,9.148,0.073,0.071,-0.038,-0.026,-9.373,2.164,-1.142,0.693,-1.915,happy
0.46,3550,3810,3501,2471,3067,1199,3278,2960,73,0,58,62,0,0,6,0,1.132,4.001,9.108,0.091,0.092,-0.047,10.743,-4.362,7.242,0.394,-0.045,-2.1,happy
0.47,3549,3888,3456,2638,3021,556,3190,2906,157,8,0,153,0,0,2,0,1.171,4.015,9.134,0.091,0.127,-0.045,0.721,-0.266,10.216,1.267,0.47,-1.462,happy
0.48,3553,3888,3393,2636,2995,0,3062,2384,370,0,1653,907,163,0,294,0,1.245,4.02,9.052,0.083,0.141,-0.079,0.73,-1.844,12.481,0.046,-0.15,0.026,happy
0.49,3554,3793,3349,2522,2999,0,2698,1459,1149,3,1942,1370,404,1,1117,760,1.281,4.12,9.091,0.092,0.192,-0.096,0.821,-3.381,9.041,-0.174,0.061,0.156,happy
0.5,3526,3891,3310,2559,2907,0,2128,883,1325,7,2103,1487,443,3,1079,1301,0.939,3.974,9.143,0.136,0.22,-0.107,0.139,-3.74,9.402,-0.26,0.075,0.13,happy
0.51,3466,3875,3248,2345,2674,0,1492,0,2030,696,2152,1899,757,45,1419,1943,0.627,3.967,9.208,0.169,0.171,-0.118,0.742,-3.261,9.474,0.006,-0.137,0,happy
0.52,3329,3723,3134,1836,2000,0,686,0,2479,1211,2160,2075,1558,43,1695,2568,1.123,3.78,8.957,0.207,0.185,-0.212,1.168,-3.977,9.656,0.008,-0.214,-0.018,happy
0.53,3055,3702,2876,1317,1796,0,238,0,2687,1387,2178,2036,1897,47,1769,2779,2.021,3.953,9.136,0.166,0.281,-0.455,1.104,-3.725,9.663,0.024,-0.169,-0.016,happy
0.54,2512,3389,2288,743,1216,0,0,0,2969,1745,2231,2333,2445,52,2387,3116,-5.045,4.752,11.87,0.075,0.084,-1.265,1.286,-3.235,9.369,0.001,-0.14,0.016,happy
0.55,2192,2549,685,15,839,0,0,0,3212,2163,2244,2389,2749,51,2645,3279,0.204,5.272,9.256,-0.271,-0.641,-3.257,1.207,-3.433,9.488,0.017,-0.129,-0.018,happy
0.56,1204,1630,0,0,461,0,0,0,3248,2199,2259,2392,2879,53,2733,3336,-1.063,9.364,7.314,-0.411,-1.557,-4.677,1.281,-3.515,9.431,0.03,-0.111,0.007,happy
0.57,320,484,0,0,326,0,0,0,3273,2379,2252,2393,3025,23,2825,3399,-2.722,14.116,4.456,-0.383,-2.446,-5.29,1.338,-3.426,9.383,-0.031,-0.023,0.013,happy
0.58,178,0,0,0,27,0,0,0,3291,2458,2252,2344,3089,51,2891,3439,2.049,16.185,3.711,-0.742,-3.176,-5.278,1.331,-3.431,9.402,-0.055,0.079,0.026,happy
0.59,106,0,0,0,0,0,0,0,3256,2501,2275,2387,3087,51,2889,3452,3.792,13.012,3.412,-0.968,-2.799,-4.72,1.188,-3.575,9.443,-0.042,0.116,0.022,happy
0.6,48,0,0,0,0,0,0,0,3384,2429,2234,2425,3059,51,2797,3494,5.885,10.139,3.67,-0.422,-1.221,-3.859,1.037,-3.555,9.462,-0.001,0.077,0.003,happy
0.61,64,0,0,0,0,0,0,0,3317,2358,2267,2293,3035,47,2911,3555,3.268,7.594,6.424,0.046,-1.438,-2.625,1.094,-3.496,9.448,0.042,0.036,-0.005,happy
0.62,18,0,0,0,227,0,0,0,3271,2287,2224,2205,3029,5,2917,3560,1.484,4.381,8.921,-0.191,-1.239,-1.473,1.073,-3.385,9.404,0.044,0.021,-0.012,happy
0.63,0,0,0,0,1,0,0,0,3173,2153,2203,1990,3039,47,2919,3566,-1.381,3.227,8.677,0.034,-0.845,-0.987,1.281,-3.527,9.098,0.028,-0.013,-0.031,happy
0.64,0,0,0,0,91,0,0,0,3079,2029,2193,1821,3033,55,2927,3616,-2.631,2.526,8.571,0.325,-0.727,-0.987,1.24,-3.373,9.471,0.018,0.045,0.01,happy
0.65,0,0,0,0,76,0,0,0,3054,1989,2195,1839,3035,47,2951,3632,-3.158,1.982,10.051,0.367,-0.623,-1.574,1.216,-3.357,9.301,-0.003,0.035,0.005,happy
0.66,0,0,0,0,285,0,0,0,3037,2015,2178,1919,3004,45,2961,3676,-2.629,1.441,10.848,0.359,-0.567,-2.167,1.104,-3.397,9.318,-0.005,0.05,-0.003,happy
0.67,0,0,0,0,302,0,0,0,2971,2029,2259,1919,2955,50,3019,3732,-1.484,0.208,10.879,0.452,-0.478,-2.702,1.132,-3.347,9.409,-0.002,0.051,-0.001,happy
0.68,0,0,0,0,263,0,0,0,2892,2021,2178,1942,2908,12,3047,3752,0.527,-0.603,11.574,0.33,-0.539,-2.955,1.164,-3.419,9.462,-0.001,0.057,-0.007,happy
0.69,0,0,0,0,256,0,0,0,2779,1999,2183,1975,2821,51,3096,3786,2.124,-0.898,12.234,0.01,-0.662,-2.832,1.118,-3.378,9.335,0.004,0.073,0.001,happy
0.7,0,0,0,0,187,0,0,0,2759,2066,2193,2005,2706,39,3129,3815,2.801,-1.312,11.274,-0.211,-0.822,-2.479,1.183,-3.383,9.297,-0.008,0.078,0.003,happy
0.71,7,0,0,0,231,0,0,0,2681,2011,2183,2072,2647,47,3087,3823,3.84,-0.517,11.03,-0.407,-0.902,-2.073,1.211,-3.436,9.39,-0.034,0.09,0.004,happy
0.72,10,0,0,0,211,0,0,0,2747,1945,2198,2223,2502,46,3033,3831,2.375,-0.467,10.3,-0.548,-0.614,-1.837,1.137,-3.407,9.445,-0.07,0.138,0.025,happy
0.73,1,0,0,0,194,0,0,0,2940,1883,2178,2363,2479,48,2979,3818,1.7,1.221,11.401,-0.725,-0.782,-1.783,0.934,-3.493,9.45,-0.07,0.135,0.017,happy
0.74,0,0,0,0,192,0,0,0,2990,1893,2152,2442,2446,51,2904,3823,0.517,1.968,10.606,-0.831,-0.774,-1.894,1.01,-3.448,9.369,-0.062,0.145,0.013,happy
0.75,0,0,0,0,112,0,0,0,3115,1933,2083,2581,2295,0,2720,3921,0.488,3.206,9.503,-0.808,-1.024,-2.14,0.974,-3.515,9.467,-0.064,0.171,0.024,happy
0.76,0,0,0,0,69,0,0,0,3231,1958,2142,2681,2198,47,2645,3815,1.496,4.068,8.38,-0.64,-1.275,-2.332,0.905,-3.428,9.445,-0.084,0.155,0.014,happy
0.77,0,0,0,0,0,0,0,0,3259,1913,2142,2719,2137,47,2631,3813,2.756,5.411,7.982,-0.56,-1.474,-2.347,0.804,-3.472,9.301,-0.079,0.153,0.018,happy
0.78,0,0,0,0,0,0,0,0,3335,1891,2162,2838,2120,47,2601,3801,4.111,5.703,7.259,-0.397,-1.343,-2.171,0.781,-3.548,9.443,-0.069,0.152,0.026,happy
0.79,0,0,0,0,0,0,0,0,3387,1823,2160,2906,1994,47,2551,3789,3.457,7.154,1.269,0.482,-0.961,-1.818,0.84,-3.575,9.409,-0.068,0.193,0.041,happy
0.8,0,23,0,0,187,0,0,0,3420,1844,2162,2936,1879,82,2589,3776,19.613,16.352,6.486,1.98,-0.753,-1.743,0.761,-3.589,9.359,-0.084,0.191,0.04,happy
0.81,0,1102,0,0,631,0,0,0,3451,1823,2167,3003,1479,24,2455,3741,5.646,-3.915,-4.046,-0.365,1.201,-0.503,0.718,-3.56,9.335,-0.074,0.234,0.059,happy
0.82,0,1713,0,0,1054,0,618,803,3368,1807,2111,3045,987,47,2120,3623,-2.825,4.843,13.218,0.06,-0.236,0.066,0.678,-3.646,9.51,-0.089,0.241,0.082,happy
0.83,144,2319,0,0,1374,0,1198,1769,3207,1687,2162,3000,809,46,1983,3533,-0.725,5.176,10.491,-0.035,-0.241,0.05,0.541,-3.663,9.541,-0.063,0.268,0.103,happy
0.84,355,2747,743,0,1720,0,1616,2304,3193,1383,2147,2764,299,51,1621,3255,0.323,4.022,9.555,0.069,-0.083,0.166,0.73,-3.677,9.534,-0.066,0.233,0.109,happy
0.85,645,2987,1622,129,2113,0,2177,2611,3247,1259,2024,2749,3,5,1051,2716,0.704,3.318,9.527,0.037,-0.093,0.099,0.776,-4.056,9.515,-0.093,0.308,0.154,happy
0.86,816,3201,2141,455,2439,0,2591,2998,3197,1171,1942,2781,5,55,821,2319,0.718,3.421,9.404,0.137,-0.195,0.022,1.111,-3.39,9.768,-0.055,0.422,0.189,happy
0.87,1037,3361,2499,720,2647,0,2951,3227,3295,87,1059,2693,0,1,0,951,1.073,3.701,9.263,0.12,-0.123,-0.01,1.166,-7.283,8.191,1.011,1.281,-0.184,happy
0.88,1273,3382,2738,977,2816,0,3152,3277,2987,0,7,2555,0,0,0,764,1.068,3.486,9.299,0.109,-0.142,-0.03,4.99,-4.389,11.36,0.064,2.029,0.474,happy
0.89,1642,3583,2907,1251,2928,0,3250,3472,2347,6,0,2153,0,0,0,685,0.977,3.596,9.438,0.122,-0.158,-0.004,2.09,-3.984,8.712,0.022,2.147,0.905,happy
0.9,1863,3680,3017,1423,3084,0,3311,3538,471,0,0,693,0,0,0,635,1.068,3.675,9.438,0.141,-0.117,0.027,10.41,-8.55,13.549,0.085,3.422,2.795,happy
0.91,2032,3653,3101,1450,3213,0,3354,3398,0,0,0,0,0,0,0,487,1.147,3.634,9.282,0.133,-0.039,0.006,19.613,-8.971,4.858,0.182,4.277,-0.454,happy
0.92,2158,3775,3131,1508,3285,0,3363,3565,0,0,0,0,0,0,0,647,1.092,3.613,9.311,0.118,-0.043,-0.032,19.613,-18.081,10.946,-0.696,1.194,-5.024,happy
0.93,2237,3803,3146,1398,3345,0,3354,3530,1578,2549,0,2489,2549,1658,1563,3102,0.953,3.651,9.304,0.126,-0.029,-0.014,-0.034,-7.602,8.641,-1.141,1.182,-6.997,happy
0.94,2256,3745,3155,1124,3376,0,3341,3312,0,0,0,0,0,0,0,639,1.018,3.723,9.21,0.125,-0.029,-0.034,-0.955,-1.659,12.526,-1.302,-0.579,-5.43,happy
0.95,2279,3830,3151,1063,3405,0,3317,3411,0,0,0,0,0,0,0,623,1.211,3.713,9.163,0.086,-0.016,-0.043,-0.874,-1.3,13.932,-0.629,-0.32,-4.379,happy
0.96,2285,3857,3139,1011,3422,0,3290,3355,0,0,0,0,0,0,0,594,1.113,3.704,9.131,0.098,-0.014,-0.046,-1.197,0.91,12.735,0.693,-0.31,-2.641,happy
0.97,2261,3787,3178,1012,3438,0,3270,3159,0,0,0,0,0,0,0,489,1.116,3.673,9.187,0.111,0.037,-0.044,2.308,-0.01,10.666,1.531,-0.452,-1.907,happy
0.98,2198,3871,3195,1215,3433,0,3237,3251,0,0,0,0,0,0,0,411,1.331,3.661,8.99,0.094,0.026,-0.049,3.709,-1.154,9.869,1.707,-0.498,-1.865,happy
0.99,2215,3899,3238,1495,3433,0,3211,3209,0,0,0,0,0,0,0,293,1.053,3.752,9.158,0.086,-0.004,-0.024,4.841,-2.737,9.831,1.676,-0.69,-2.196,happy
1,2301,3804,3296,1664,3440,0,3188,2937,0,0,0,0,0,0,0,246,1.216,3.687,9.088,0.116,-0.018,-0.013,4.999,-4.044,8.973,1.549,-0.49,-2.898,happy
1.01,2401,3921,3371,1968,3472,0,3146,2865,0,0,0,0,0,0,0,219,1.025,3.706,9.163,0.159,-0.064,-0.012,4.063,-4.81,9.68,1.387,-0.31,-3.212,happy
1.02,2533,3951,3440,2131,3491,405,3088,2559,0,0,0,0,0,0,0,139,1.305,3.757,9.108,0.183,0.014,-0.02,2.399,-7.616,13.041,1.213,-0.023,-3.709,happy
1.03,2552,3899,3511,2197,3509,454,2902,2160,0,0,0,4,0,0,0,139,1.154,3.666,9.103,0.21,0.007,-0.035,-3.941,-10.147,13.618,1.452,-0.553,-3.916,happy
1.04,2682,4011,3569,2498,3501,481,2511,1783,0,0,0,0,0,0,0,140,1.18,3.857,9.12,0.268,-0.017,-0.021,-3.417,-12.028,12.675,1.431,-0.325,-3.636,happy
1.05,2834,4048,3644,2659,3473,0,2240,971,0,0,0,0,8,39,0,111,1.219,3.869,9.232,0.301,-0.012,-0.045,-7.592,-16.63,9.029,1.903,0.44,-2.693,happy
1.06,3010,4022,3703,2626,3426,0,1878,0,0,0,46,0,0,0,0,109,1.408,4.302,9.029,0.264,0.044,-0.082,-8.959,-16.036,-2.792,0.948,0.234,-1.6,happy
1.07,3173,4095,3755,2909,3237,0,1073,0,0,0,0,0,0,0,0,89,0.986,3.824,9.026,0.308,0.09,-0.107,-8.602,-15.167,-3.795,-0.047,0.292,-1.167,happy
1.08,3327,4095,3791,2995,2599,0,384,0,0,0,94,0,0,0,0,19,1.348,3.661,9.005,0.389,0.137,-0.156,-8.456,-13.012,-3.79,-2.075,1.022,-0.054,happy
1.09,3454,4062,3826,2931,2224,0,128,0,0,0,0,0,0,0,0,469,1.573,3.96,8.921,0.649,0.245,0.023,1.52,-5.116,19.613,-1.197,1.154,0.687,happy
1.1,3519,4066,3831,2991,2012,0,0,0,0,0,0,0,0,0,0,1125,1.221,4.228,9.201,0.807,0.273,0.069,5.626,2.662,3.917,-2.04,-0.22,0.204,happy
1.11,3578,4032,3845,3060,1799,0,0,0,0,0,0,0,0,0,0,1493,1.202,4.187,9.297,1.011,0.377,0.136,1.896,-5.188,11.344,-2.506,0.296,0.607,happy
1.12,3646,4022,3841,3071,1645,0,0,0,0,0,0,0,0,0,424,2183,1.061,4.123,9.117,1.288,0.484,0.242,-6.433,-14.945,19.613,-1.183,-0.052,0.411,happy
1.13,3711,4061,3819,3193,1158,0,0,0,0,0,0,0,0,0,914,2607,1.865,3.989,9.831,1.657,0.747,0.461,-1.815,-2.421,10.341,-0.818,-0.5,0.206,happy
1.14,3765,3523,3655,2859,618,0,0,0,0,0,0,0,0,0,1554,3221,1.657,3.247,10.446,2.406,0.933,0.446,7.582,-10.774,11.325,-0.687,-0.546,0.002,happy
1.15,3789,2853,2945,1714,56,0,0,0,11,0,0,0,571,0,2473,3631,0.575,1.729,11.858,3.478,0.898,-0.372,-0.014,-4.338,10.803,-0.282,0.067,0.156,happy
1.16,3674,1934,892,837,0,0,0,0,55,0,0,0,973,0,2713,3749,3.165,4.58,14.087,5.1,0.925,-1.518,1.223,-4.429,10.226,-0.195,-0.037,0.052,happy
1.17,2832,538,0,0,0,0,0,0,89,0,0,0,1733,0,2999,3894,1.422,5.363,10.147,6.187,0.788,-2.652,1.377,-3.46,9.948,-0.1,-0.201,-0.092,happy
1.18,2064,39,0,0,0,0,0,0,63,0,74,0,2099,0,3183,3951,0.213,6.606,9.84,6.631,0.261,-2.85,2.093,-3.354,9.565,0.051,-0.108,-0.042,happy
1.19,1466,0,0,0,0,0,0,0,84,0,0,0,2311,0,3315,3964,0.879,9.093,8.961,6.482,0.056,-3.153,1.748,-2.954,9.335,0.013,-0.05,0.042,happy
1.2,912,0,0,0,0,0,0,0,89,0,0,0,2463,0,3452,4004,-1.731,13.443,14.478,5.272,-0.521,-2.85,1.453,-2.919,9.392,0.018,0.039,0.085,happy
1.21,43,0,0,0,0,0,0,0,41,22,0,35,2619,0,3544,4012,2.219,9.606,19.613,2.674,-0.951,-3.174,1.602,-3.314,9.445,0.02,0.061,0.109,happy
1.22,0,0,0,0,0,0,0,0,51,75,0,0,2793,0,3589,4020,12.345,11.942,19.134,0.667,-0.714,-2.057,1.561,-2.95,9.462,-0.059,-0.003,0.041,happy
1.23,0,0,0,0,0,0,0,0,40,391,1046,199,2943,0,3638,4029,7.76,-1.393,12.993,-0.81,-0.553,-1.407,1.475,-3.077,9.313,-0.088,-0.092,0.034,happy
1.24,0,0,0,0,0,0,0,0,55,1151,1512,202,3139,18,3704,4009,4.511,-1.863,5.231,-1.16,-0.984,0.212,1.678,-3.287,9.428,-0.053,-0.022,0.094,happy
1.25,0,0,0,0,0,0,0,0,81,1293,1568,185,3147,25,3675,3865,3.871,1.705,10.728,-1.762,-1.298,0.935,1.791,-3.529,9.486,-0.027,-0.05,0.087,happy
1.26,0,0,0,0,0,0,0,0,85,1571,1789,179,3351,22,3744,3891,0.639,2.085,10.532,-3.04,-0.814,1.263,1.566,-3.426,9.646,-0.033,-0.089,0.011,happy
1.27,0,0,0,0,0,0,0,0,89,1911,1937,82,3383,13,3657,3663,-0.917,1.946,7.805,-3.396,-1.393,1.348,1.662,-3.306,9.469,-0.001,-0.034,0.006,happy
1.28,0,0,0,0,0,0,0,0,115,1980,1727,84,3401,19,3605,3563,-0.608,2.988,8.346,-3.588,-1.375,1.247,1.714,-3.203,9.328,0.032,0.003,0.024,happy
1.29,0,0,0,0,0,0,0,0,88,2103,1993,74,3420,19,3561,3451,-0.699,4.338,9.155,-3.79,-1.215,1.186,1.822,-3.211,9.23,0.028,0.01,0.017,happy
1.3,0,0,0,0,0,0,0,0,110,2262,2042,71,3545,20,3641,3433,-0.618,5.033,9.376,-3.946,-1.051,1.208,1.887,-3.199,9.086,0.019,0.041,0.043,happy
1.31,0,0,0,0,0,0,0,0,102,2205,2029,46,3491,11,3529,3291,-1.35,5.962,10.039,-4.033,-1.031,1.293,1.772,-3.158,9.246,-0.025,0.087,0.081,happy
1.32,0,0,0,0,0,0,0,0,90,2311,2070,83,3513,13,3486,3245,-1.743,7.58,10.906,-4.004,-1.194,1.329,1.693,-3.249,9.493,-0.052,0.01,0.091,happy
1.33,0,0,0,0,0,0,0,0,50,2379,2085,55,3561,11,3498,3258,-1.635,9.208,11.976,-3.998,-1.059,1.308,1.628,-2.981,8.902,-0.015,0.09,0.098,happy
1.34,0,0,0,0,0,0,0,0,91,2451,2398,271,3605,25,3499,3272,-1.896,10.671,12.771,-4.044,-0.881,1.265,1.726,-3.345,9.313,-0.072,0.055,0.13,happy
1.35,0,0,0,0,0,0,0,0,54,2526,2147,344,3641,16,3543,3321,-1.915,12.167,12.277,-3.938,-0.698,1.086,1.815,-3.244,9.546,-0.041,0.047,0.155,happy
1.36,0,0,0,0,0,0,0,0,150,2596,2208,433,3683,37,3551,3374,-2.195,13.257,11.447,-3.503,-0.545,0.839,2.049,-3.189,9.007,-0.101,0.114,0.246,happy
1.37,0,0,0,0,0,0,0,0,234,2693,2265,785,3741,45,3575,3397,-1.753,12.163,8.734,-2.88,-0.641,0.589,1.757,-3.5,9.287,-0.12,0.095,0.201,happy
1.38,0,0,0,0,0,0,0,0,873,2803,2308,1247,3813,48,3513,3385,-1.379,12.536,7.997,-2.202,-0.426,0.422,1.362,-3.766,9.524,-0.083,0.015,0.079,happy
1.39,0,0,0,0,0,0,0,0,1583,2925,2326,1701,3834,51,3304,3178,-4.817,13.63,7.391,-1.89,-0.846,0.172,1.927,-3.768,9.292,-0.101,0.192,0.102,happy
1.4,0,0,0,0,36,0,0,0,1933,3043,2341,2072,3837,51,3020,2939,-4.183,13.951,1.693,-1.391,-0.935,-0.018,1.848,-3.433,9.359,-0.149,0.258,0.1,happy
1.41,0,0,0,0,48,0,0,0,2279,3179,2346,2403,3789,47,2509,2255,-3.175,13.118,-1.571,-0.237,0.058,-0.124,1.448,-3.378,9.618,-0.202,0.346,0.126,happy
1.42,0,0,0,0,0,0,0,0,2662,3302,2357,2769,3475,47,1694,1548,-3.701,11.526,1.537,0.75,1.121,-0.411,1.484,-3.548,9.634,-0.249,0.34,0.063,happy
1.43,0,0,0,0,0,0,0,0,2872,3324,2357,2904,3143,47,919,1323,-1.032,2.617,8.303,1.184,0.969,-0.787,1.405,-4.209,9.412,-0.24,0.333,0.037,happy
1.44,0,0,0,0,0,0,0,0,3235,3347,2362,3127,2777,23,48,781,3.132,-1.745,14.442,0.877,0.239,-0.424,1.956,-2.174,9.44,-0.689,0.205,-0.14,happy
1.45,0,0,0,0,176,0,0,480,3481,3174,2367,3271,2073,5,5,711,4.01,-0.673,4.262,1.871,0.44,-0.4,1.104,-3.898,9.309,-0.547,0.179,-0.119,happy
1.46,0,0,0,0,674,0,905,2166,3573,2982,2372,3321,1533,5,3,622,1.472,4.104,11.08,2.5,0.169,-0.293,1.228,-4.092,9.297,-0.729,0.279,-0.182,happy
1.47,0,0,0,0,1303,0,1690,2843,3743,2758,2385,3435,737,5,3,457,1.374,16.707,19.613,2.475,0.869,-0.487,1.355,-3.065,9.912,-1.52,0.281,-0.211,happy
1.48,189,1488,0,0,1727,0,2365,3021,3886,2387,2577,3555,85,1,0,245,-0.903,4.494,13.879,0.908,1.11,-0.505,1.695,-2.617,9.309,-2.697,0.529,-0.34,happy
1.49,502,2559,0,0,2147,0,2521,3378,3923,1892,2482,3256,18,6,29,165,1.037,5.909,13.022,0.966,-0.156,-0.081,2.854,-2.43,9.256,-3.206,0.854,-0.373,happy
1.5,897,3034,791,0,2397,0,2732,3517,3933,728,2180,2680,5,2,1,135,0.57,3.522,9.261,0.381,0.03,-0.097,1.101,-3.136,13.578,-4.398,1.201,0.746,happy
1.51,1239,3162,1710,397,2602,0,2944,3479,3725,0,0,695,0,0,0,0,1.065,4.14,9.646,0.299,-0.048,-0.141,2.564,-4.532,15.376,-6.001,1.39,2.441,happy
1.52,1674,3356,2290,1083,2757,0,3063,3677,3211,0,0,277,0,0,0,0,0.572,3.941,9.787,0.239,-0.208,-0.042,3.608,-5.358,14.071,-6.638,1.46,2.952,happy
1.53,2001,3440,2643,1494,2835,0,3149,3706,1605,0,0,0,0,0,0,0,0.833,3.85,9.421,0.153,-0.087,0.061,-0.658,-14.715,13.762,-5.545,0.87,3.413,happy
1.54,2290,3434,2852,1808,2897,0,3211,3557,0,1,0,0,0,0,0,0,0.967,3.723,9.515,0.133,-0.026,0.046,7.475,-12.165,19.613,0.777,-0.445,2.72,happy
1.55,2464,3582,2955,1936,2963,0,3230,3687,0,0,0,0,0,0,0,0,1.039,3.637,9.34,0.143,-0.019,0.008,9.033,5.895,9.397,1.568,0.227,2.265,happy
1.56,2533,3627,3008,2070,2976,0,3226,3696,0,0,0,0,0,0,0,0,0.934,3.697,9.187,0.141,-0.03,0.004,7.796,4.092,10.333,1.773,-0.162,1.306,happy
1.57,2602,3655,3049,2128,3003,0,3205,3671,0,0,0,9,0,1,0,0,0.948,3.68,9.357,0.115,-0.013,-0.001,8.945,2.136,10.015,2.143,-0.935,0.251,happy
1.58,2633,3695,3107,2208,3019,0,3170,3607,0,0,0,0,0,0,0,0,0.974,3.761,9.292,0.095,0.022,-0.007,5.296,1.166,10.044,3.109,-1.362,-1.492,happy
1.59,2704,3616,3138,2127,3056,0,3129,3352,0,37,7,0,0,0,0,0,1.113,3.771,9.304,0.061,0.039,-0.036,-0.747,-0.472,9.129,3.923,-1.819,-1.44,happy
1.6,2722,3742,3151,2271,3067,0,3085,3500,0,0,0,0,0,0,0,1,0.871,3.658,9.263,0.046,0.032,-0.015,-0.996,-1.29,9.014,4.148,-1.68,-1.028,happy
1.61,2727,3738,3066,2275,3071,0,3038,3475,0,0,0,0,0,0,0,0,0.917,3.668,9.266,0.035,0.029,-0.032,-0.608,-3.96,11.899,4.606,-1.606,-0.461,happy
1.62,2757,3648,3163,2144,3120,0,3071,3344,2,0,28,2,0,0,0,0,0.893,3.594,9.165,0.021,0.036,-0.054,2.239,-5.689,12.146,4.637,-1.755,-0.827,happy
1.63,2767,3776,3186,2269,3139,0,3091,3475,0,0,0,0,0,109,0,0,0.881,3.685,9.184,0.017,-0.025,-0.031,1.987,-6.045,13.542,4.395,-1.823,-1.238,happy
1.64,2777,3810,3245,2351,3184,0,3120,3471,0,0,0,0,5,0,0,0,0.915,3.51,9.254,0.063,-0.064,0.01,5.255,-10.523,17.011,3.921,-1.109,-2.194,happy
1.65,2833,3742,3315,2334,3259,0,3138,3275,0,0,0,0,0,0,0,0,1.027,3.349,9.167,0.132,-0.165,-0.001,-4.434,-19.345,18.11,2.993,-2.392,-3.208,happy
1.66,2890,3902,3403,2535,3331,834,3099,3248,0,0,2,0,0,0,0,0,0.996,3.519,9.177,0.212,-0.203,0.023,-0.8,-19.613,14.284,2.623,-2.3,-3.111,happy
1.67,2960,3959,3509,2655,3419,812,2941,2755,0,0,0,6,0,0,0,0,1.204,3.689,9.246,0.242,-0.187,0.04,-7.42,-19.613,-3.311,1.829,-0.794,-3.062,happy
1.68,3086,3903,3601,2661,3462,0,2687,1505,0,0,0,0,0,0,0,0,1.178,3.508,9.234,0.271,-0.119,0.026,-10.046,-19.613,-5.399,-0.202,-0.595,-1.709,happy
1.69,3167,4062,3674,2835,3397,0,2115,0,0,0,0,0,0,0,0,0,1.144,3.596,9.361,0.262,-0.018,0.017,-10.082,-18.957,-5.875,-1.592,0.013,-1.122,happy
1.7,3251,4095,3727,2897,3039,0,1183,0,0,0,0,0,31,0,0,0,1.053,3.172,9.426,0.439,0.055,-0.005,4.652,-0.534,19.613,-1.191,1.57,0.296,happy
1.71,3311,4095,3749,2909,2458,0,418,0,0,0,0,0,0,0,0,359,1.097,3.979,9.029,0.621,0.12,-0.016,2.093,10.331,13.202,-1.847,-0.65,-0.315,happy
1.72,3386,3994,3792,2837,1969,0,158,0,0,0,0,0,0,16,264,1710,1.741,4.118,9.467,1.047,0.21,0.139,-7.542,-12.737,19.613,-3.037,-0.628,0.418,happy
1.73,3492,4095,3791,2870,1485,0,0,0,0,0,0,0,0,0,757,2570,2.114,2.682,9.941,1.734,0.393,0.253,-3.907,-4.161,12.842,-1.87,-0.352,0.531,happy
1.74,3574,3982,3729,2639,976,0,0,0,0,0,0,12,10,0,2157,3431,3.989,2.923,10.314,2.686,0.933,0.396,8.942,-12.625,10.173,-0.703,0.535,0.178,happy
1.75,3739,3152,3537,2131,239,0,0,0,59,0,0,0,536,0,2599,3747,1.068,1.437,10.882,3.985,0.942,0.236,1.884,-2.784,8.492,-0.092,0.981,0.539,happy
1.76,3714,2498,2045,1670,0,0,0,0,31,0,0,0,883,0,2742,3820,1.652,4.932,18.725,5.616,0.195,-1.238,1.942,-4.173,10.594,-0.238,0.847,0.4,happy
1.77,2683,1334,0,86,0,0,0,0,38,0,0,0,1689,0,3021,3919,2.569,4.822,15.871,6.753,0.942,-2.562,0.757,-4.93,11.971,-0.135,0.381,0.148,happy
1.78,1951,278,0,0,0,0,0,0,84,39,0,0,1937,0,3129,3967,2.672,9.057,13.352,7.263,0.91,-2.731,1.185,-3.472,9.285,-0.087,0.142,0.119,happy
1.79,1283,0,0,0,0,0,0,0,45,79,0,0,2136,0,3257,3998,1.271,14.322,19.563,5.598,1.696,-2.878,0.948,-3.294,10.063,0.061,0.28,0.128,happy
1.8,110,0,0,0,0,0,0,0,55,47,0,0,2311,0,3368,4041,1.233,6.254,19.613,1.648,0.94,-2.999,1.439,-3.385,9.706,0.064,0.275,0.1,happy
1.81,0,0,0,0,0,0,0,0,84,157,25,0,2585,0,3437,4095,11.997,5.93,12.435,0.145,-0.758,-1.284,1.63,-3.021,9.515,-0.006,0.168,0.057,happy
1.82,0,0,0,0,0,0,0,0,101,329,0,1,2547,0,3499,4095,7.585,-3.718,9.792,-0.412,-0.414,-1.216,1.762,-3.048,9.23,-0.018,0.206,0.075,happy
1.83,0,0,0,0,0,0,0,0,99,418,0,0,2601,37,3527,4067,5.49,-3.34,10.625,-0.928,-0.613,-0.663,1.556,-3.282,9.404,-0.058,0.144,0.072,happy
1.84,0,0,0,0,0,0,0,0,132,475,5,17,2621,0,3557,4059,5.547,-1.551,10.039,-1.455,-1.098,-0.259,1.372,-3.033,9.385,-0.062,0.149,0.054,happy
1.85,0,0,0,0,0,0,0,0,117,483,5,1,2659,0,3533,4031,3.579,-3.294,10.491,-2.048,-1.549,-0.019,1.539,-2.938,8.746,-0.077,0.235,0.14,happy
1.86,0,0,0,0,0,0,0,0,163,371,1251,312,2669,0,3503,4047,2.282,-1.666,10.525,-2.637,-1.783,0.285,1.463,-2.887,9.148,-0.097,0.31,0.16,happy
1.87,0,0,0,0,0,0,0,0,171,789,1446,399,2677,39,3481,4059,0.575,-0.833,10.384,-3.118,-1.879,0.499,1.362,-3.117,9.424,-0.153,0.328,0.19,happy
1.88,0,0,0,0,0,0,0,0,213,1187,1991,915,2685,42,3405,3977,-0.848,0.907,10.319,-3.725,-1.827,0.58,1.003,-3.089,9.603,-0.167,0.225,0.221,happy
1.89,0,0,0,0,0,0,0,0,247,1414,2108,1277,2693,46,3363,3941,-1.465,3.263,11.04,-4.128,-1.706,0.406,1.221,-2.947,9.246,-0.149,0.206,0.223,happy
1.9,0,0,0,0,0,0,0,0,405,1399,2121,1817,2487,47,3219,3897,-0.788,5.571,12.337,-4.411,-1.42,0.494,1.154,-3.685,9.572,-0.08,0.232,0.213,happy
1.91,0,0,0,0,0,0,0,0,852,1675,2183,2155,2221,48,2998,3802,-0.429,7.379,13.836,-4.43,-1.301,1.028,1.128,-3.627,9.637,-0.031,0.211,0.131,happy
1.92,0,0,0,0,0,0,0,0,1113,1881,2201,2477,2253,47,2873,3751,-1.516,9.38,17.241,-4.668,-0.402,1.581,1.075,-3.433,9.555,-0.039,0.188,0.099,happy
1.93,0,0,0,0,0,0,0,0,1763,2293,2178,2780,2447,61,2455,3627,-6.175,11.538,19.613,-4.816,-0.082,1.516,1.065,-3.529,9.618,-0.089,0.171,0.074,happy
1.94,0,0,0,0,0,0,0,0,2396,2531,2285,3061,2567,51,2076,3383,-8.339,15.213,18.38,-4.615,-0.428,0.936,0.974,-3.158,9.943,-0.279,0.137,0.017,happy
1.95,0,0,0,0,0,0,0,0,2617,2642,2259,3144,2575,147,1647,3096,-6.357,19.613,12.692,-4.318,-0.247,0.2,1.202,-3.8,9.835,-0.205,0.126,0.022,happy
1.96,119,0,0,0,422,0,0,0,3033,2744,2275,3279,2479,56,745,1679,-12.304,19.613,-6.486,-2.75,-1.012,-0.857,1.07,-3.342,9.452,-0.236,0.151,-0.008,happy
1.97,230,0,0,0,359,0,0,0,3342,2790,2280,3437,2253,25,151,997,2.076,19.613,-11.234,-0.708,-2.339,-0.178,0.481,-4.573,9.67,-0.257,0.094,-0.032,happy
1.98,232,0,0,0,368,0,0,0,3492,2795,2288,3487,2073,5,4,991,-2.037,18.196,-5.859,1.288,1.119,0.311,0.939,-3.903,9.352,-0.444,0.121,-0.136,happy
1.99,0,0,0,0,209,0,0,0,3743,2651,2311,3577,1161,4,3,549,12.962,5.737,19.534,1.732,0.748,-0.1,1.36,-2.885,9.601,-0.737,0.019,-0.225,happy
2,17,0,0,0,89,0,369,1263,3939,2425,2305,3635,391,19,3,373,1.786,-11.976,-2.073,2.872,-1.164,-0.119,1.082,-3.625,8.839,-0.78,-0.187,-0.382,happy
2.01,4,0,0,0,673,0,1093,2958,3946,2345,2316,3645,109,5,4,296,-4.963,8.911,16.834,4.083,-0.234,-0.07,1.08,-3.565,9.936,-1.248,0.028,-0.528,happy
2.02,281,0,0,0,1107,0,2160,3437,4019,1933,2410,3549,7,1,0,155,5.234,6.517,12.428,2.919,-0.351,-0.121,3.213,-2.952,10.927,-2.494,0.749,-0.592,happy
2.03,316,78,0,0,1713,0,2807,3504,4039,789,2326,2868,0,1,0,157,-1.693,9.498,10.896,1.573,1.641,-0.498,4.135,-2.828,12.771,-3.703,1.984,-0.027,happy
2.04,489,1535,0,0,2133,0,2909,3574,4011,357,1236,2535,0,0,0,209,0.613,5.15,12.905,0.707,1.214,-0.451,3.127,-1.944,13.276,-5.069,2.413,1.011,happy
2.05,731,2521,0,0,2471,0,3088,3778,3669,0,0,1082,0,0,0,37,-0.074,4.537,11.586,0.641,0.67,-0.177,2.416,-5.653,17.233,-6.908,2.419,3.926,happy
2.06,942,3030,0,0,2710,0,3179,3661,2119,0,12,0,0,0,0,0,1.123,3.819,10.87,0.496,0.359,-0.331,2.217,-4.561,15.692,-6.752,2.604,5.011,happy
2.07,1058,3327,749,0,2759,0,3227,3692,463,0,0,0,0,0,0,37,0.409,3.689,10.216,0.355,0.04,-0.317,-1.3,-13.326,16.635,-4.391,3.243,4.461,happy
2.08,1258,3506,1995,0,2917,0,3285,3803,0,0,0,0,0,6,0,0,0.776,3.522,9.685,0.412,-0.159,-0.069,6.012,-2.116,19.613,-0.758,0.99,4.279,happy
2.09,1355,3583,2354,240,3011,0,3298,3792,0,0,0,0,0,0,0,0,1.413,3.73,9.627,0.374,-0.074,0.03,18.991,-1.741,19.613,0.83,-1.408,1.399,happy
2.1,1680,3680,2746,592,3176,0,3295,3713,0,0,0,0,1,0,0,0,1.269,3.529,9.199,0.262,-0.006,0.063,5.99,3.807,4.843,1.545,-0.596,-0.768,happy
2.11,1806,3741,2912,783,3263,0,3267,3600,0,0,0,0,0,0,0,0,1.252,3.579,9.325,0.252,-0.006,0.012,3.694,1.508,7.484,1.537,-1.634,-1.299,happy
2.12,1908,3781,3025,955,3312,0,3225,3409,0,0,0,0,0,0,0,0,1.046,3.488,9.462,0.243,-0.063,0.022,4.058,0.311,9.328,1.977,-1.818,-1.44,happy
2.13,2030,3770,3120,1234,3280,0,3141,3120,0,0,0,0,0,0,0,0,1.14,3.824,9.395,0.245,-0.09,0.023,1.714,-0.206,10.372,2.626,-1.636,-1.391,happy
2.14,2218,3791,3278,1465,3402,0,3036,2629,0,0,0,0,0,0,1,0,1.286,3.677,9.215,0.223,-0.086,0.003,-1.602,-1.386,8.552,3.613,-2.013,-0.838,happy
2.15,2368,3933,3385,1733,3411,0,2896,2517,0,0,0,0,0,0,0,0,1.154,3.709,9.34,0.207,-0.082,-0.014,-0.292,-1.973,7.733,3.736,-2.052,-0.636,happy
2.16,2526,3969,3470,1880,3427,0,2736,2160,5,0,0,0,0,0,0,0,1.298,3.721,9.093,0.171,0.044,-0.013,0.855,-4.427,10.74,3.924,-2.23,-0.891,happy
2.17,2672,3925,3557,1959,3419,0,2518,1664,0,0,0,0,0,0,0,0,1.276,3.757,9.096,0.134,0.078,-0.032,0.05,-5.449,11.928,4.074,-2.411,-1.68,happy
2.18,2859,4034,3614,2330,3391,0,2283,1476,2,0,0,0,0,103,0,0,1.044,3.84,9.141,0.115,0.035,-0.042,-1.417,-5.72,13.276,4.084,-2.369,-1.862,happy
2.19,3037,4074,3671,2481,3381,0,2113,993,0,0,0,0,0,9,0,0,1.063,3.754,9.165,0.139,-0.01,-0.038,-2.703,-7.228,17.516,4.217,-2.114,-1.617,happy
2.2,3222,4069,3728,2545,3382,0,1817,48,0,0,0,0,0,0,0,0,1.269,3.728,9.27,0.188,-0.017,-0.04,-4.099,-11.394,19.613,4.484,-1.975,-1.3,happy
2.21,3365,4095,3748,2751,3363,0,1488,0,0,0,0,0,0,0,0,0,1.176,3.804,9.136,0.242,-0.027,-0.055,-5.564,-14.169,18.888,4.357,-2.285,-1.388,happy
2.22,3487,4095,3782,2854,3246,0,990,0,0,0,0,0,45,0,0,0,1.192,3.847,9.014,0.313,0.004,-0.041,-4.448,-19.12,10.767,3.588,-1.797,-1.592,happy
2.23,3583,4023,3824,2847,2743,0,458,0,40,0,0,0,0,0,0,0,1.453,3.776,9.043,0.27,0.068,-0.161,-11.25,-19.175,-0.603,2.116,-1.307,-1.2,happy
2.24,3686,4095,3856,3003,2384,0,103,0,0,0,0,0,0,0,0,0,1.305,4.039,8.947,0.553,0.097,0.025,-11.037,-19.613,-1.812,0.874,-1.222,-1.285,happy
2.25,3739,4095,3869,3045,2224,0,0,0,3,0,0,0,0,0,0,0,1.336,3.876,9.031,0.673,0.14,0.09,-9.658,-19.613,-4.666,-0.163,-0.225,-1.439,happy
2.26,3782,4095,3888,3088,2109,0,0,0,0,9,0,0,0,0,0,0,1.338,3.955,9.194,0.803,0.166,0.127,-13.578,-19.24,-12.177,-2.091,1.167,-0.833,happy
2.27,3824,4095,3881,3126,1895,0,0,0,0,0,0,0,0,0,0,0,1.393,3.9,9.098,0.963,0.229,0.143,0.359,-8.344,8.504,-2.283,2.991,0.164,happy
2.28,3863,4095,3892,3126,1715,0,0,0,0,0,0,0,0,0,0,25,1.381,4.161,8.993,1.072,0.309,0.184,2.066,2.002,19.613,-1.536,1.312,0.383,happy
2.29,3888,4095,3913,3121,1424,0,0,0,0,0,0,9,0,0,0,711,1.061,4.204,9.17,1.355,0.4,0.288,8.095,6.524,0.002,-2.966,0.117,0.41,happy
2.3,3914,4095,3886,3062,1369,0,0,0,43,0,10,0,0,0,0,1180,1.386,3.773,9.225,1.633,0.489,0.354,-1.623,-6.256,11.933,-3.601,0.884,0.487,happy
2.31,3926,4095,3873,2879,1299,0,0,0,79,0,0,0,0,0,7,1964,1.319,3.486,9.266,1.996,0.572,0.414,-9.579,-9.182,18.938,-2.988,0.288,0.249,happy
2.32,3924,4069,3824,2657,842,0,0,0,74,0,0,0,0,0,347,2391,1.362,2.837,9.029,2.554,0.492,0.428,-2.756,-1.583,11.399,-2.587,0.321,0.656,happy
2.33,3889,3730,3751,2352,464,0,0,0,58,0,0,5,0,0,917,2932,2.442,3.263,10.992,3.096,0.695,0.385,4.252,-6.182,12.107,-2.464,-0.272,0.212,happy
2.34,3886,3221,3314,2033,0,0,0,0,39,0,0,0,181,0,2087,3599,2.674,5.679,15.148,4.744,-0.102,-0.411,5.26,-10.508,15.62,-1.128,0.666,0.601,happy
2.35,3292,2517,1553,922,0,0,0,0,105,0,0,0,894,0,2732,3929,3.098,4.851,16.508,6.658,-0.653,-1.58,-1.374,-3.34,10.487,-0.513,0.951,0.535,happy
2.36,1964,1210,0,0,0,0,0,0,89,0,12,0,1501,0,2876,4007,2.093,10.659,14.394,8.013,-0.309,-2.544,0.883,-4.549,11.183,-0.459,0.427,0.257,happy
2.37,1264,176,0,0,0,0,0,0,103,0,0,0,1951,0,3051,4040,0.242,15.639,19.613,6.429,0.196,-2.503,0.836,-4.724,11.145,-0.452,0.127,0.099,happy
2.38,0,0,0,0,0,0,0,0,95,175,0,0,2212,0,3227,4073,3.259,3.457,19.613,1.83,0.284,-3.404,0.608,-3.754,10.245,-0.317,0.024,0.066,happy
2.39,0,0,0,0,0,0,0,0,141,350,0,93,2396,1,3311,4095,10.721,6.342,13.961,0.139,0.812,-2.55,1.166,-3.505,9.859,-0.217,0.038,0.057,happy
2.4,0,0,0,0,0,0,0,0,124,437,2,300,2585,3,3428,4089,8.574,-6.677,14.193,-0.818,0.89,-2.307,1.269,-3.735,9.797,-0.147,-0.025,-0.008,happy
2.41,0,0,0,0,0,0,0,0,147,829,1174,612,2731,36,3511,4095,9.924,-2.842,10.412,-1.321,0.768,-1.337,1.413,-3.922,9.799,-0.135,-0.001,0,happy
2.42,0,0,0,0,0,0,0,0,173,1172,1510,1001,2966,45,3597,4095,8.911,-1.592,11.229,-2.121,-0.107,0.172,1.08,-3.546,9.639,-0.096,0.065,0.01,happy
2.43,0,0,0,0,0,0,0,0,219,1322,1986,1145,3033,43,3513,4072,5.626,-0.345,10.597,-3.104,-0.32,1.313,1.319,-3.596,9.61,0.019,0.091,0.009,happy
2.44,0,0,0,0,0,0,0,0,287,1359,2034,1144,3065,39,3451,4041,1.896,1.463,9.675,-3.818,-0.476,1.718,1.207,-3.615,9.471,0.087,0.072,0.021,happy
2.45,0,0,0,0,0,0,0,0,269,1385,2080,1143,3091,45,3367,4012,0.646,2.512,9.524,-4.11,-0.652,1.589,1.226,-3.654,9.445,0.093,0.079,0.001,happy
2.46,0,0,0,0,0,0,0,0,250,1426,2098,1400,3051,72,3336,3981,0.852,3.941,10.302,-4.332,-0.758,1.365,1.223,-3.582,9.416,0.097,0.074,-0.018,happy
2.47,0,0,0,0,0,0,0,0,309,1563,2101,1517,3045,47,3164,3903,0.565,6.663,11.574,-4.65,-0.717,0.967,1.279,-3.433,9.433,0.134,0.067,-0.019,happy
2.48,0,0,0,0,0,0,0,0,441,1607,2142,1771,3051,47,2983,3885,0.484,8.72,12.119,-4.758,-1.029,0.836,1.24,-3.39,9.345,0.105,0.011,-0.02,happy
2.49,0,0,0,0,0,0,0,0,456,1751,2175,1850,3089,51,2927,3787,3.28,11.736,13.915,-4.773,-0.946,1.098,1.293,-3.347,9.33,0.074,-0.015,-0.003,happy
2.5,0,0,0,0,0,0,0,0,851,2201,2085,2067,3207,86,2879,3725,1.827,12.763,14.569,-4.598,-0.89,1.779,1.269,-3.081,9.151,-0.038,-0.085,0.011,happy
2.51,0,0,0,0,0,0,0,0,1445,2551,2236,2250,3338,46,2719,3573,0.206,16.582,15.649,-4.238,-1.112,1.952,1.384,-3.697,9.723,-0.062,-0.015,0.03,happy
2.52,0,0,0,0,0,0,0,0,1553,2565,2249,2411,3372,47,2631,3447,-1.518,18.155,11.729,-3.964,-1.012,1.745,1.413,-3.328,9.455,-0.122,0.007,0.019,happy
2.53,0,0,0,0,0,0,0,0,2171,2741,2272,2699,3363,51,2141,2927,-2.751,16.613,4.192,-3.087,-0.848,1.334,1.283,-3.479,9.316,-0.176,0.146,0.018,happy
2.54,0,0,0,0,148,0,0,0,2603,2808,2270,2950,3098,47,1459,2249,-6.069,17.48,1.264,-1.945,-0.999,0.726,1.731,-4.899,7.709,-0.279,0.323,0.027,happy
2.55,0,0,0,0,215,0,0,0,2787,2843,2262,3103,2868,85,741,1814,-4.357,17.459,-4.065,-0.713,-0.426,0.247,1.542,-4.01,9.029,-0.343,0.284,0.001,happy
2.56,26,0,0,0,189,0,0,0,3213,2718,2293,3334,2475,16,35,1489,-1.999,14.327,-0.328,0.755,0.366,-0.137,1.264,-4.278,9.991,-0.009,0.124,0.069,happy
2.57,0,0,0,0,0,0,0,0,3577,2597,2290,3451,1562,4,1,919,0.043,12.574,-1.587,2.57,0.782,0.092,1.396,-3.644,8.978,-0.465,0.176,-0.114,happy
2.58,0,0,0,0,0,0,0,0,3732,2521,2339,3474,1000,4,4,811,3.929,8.121,19.35,1.836,1.073,0.08,0.711,-3.847,8.631,-0.693,0.064,-0.142,happy
2.59,0,0,0,0,89,0,207,1105,3816,2423,2311,3537,495,5,2,806,-1.796,-6.189,14.119,1.838,-0.236,0.077,0.747,-3.124,8.413,-0.628,-0.133,-0.14,happy
2.6,0,0,0,0,416,0,963,2961,3879,2233,2318,3539,361,6,3,711,-5.26,7.817,14.097,3.914,-0.71,-0.676,1.544,-3.948,9.179,-0.81,0.063,-0.245,happy
2.61,0,0,0,0,1052,0,1996,3430,3959,1819,2369,3623,91,3,1,444,8.241,6.663,10.961,1.773,-0.447,-0.238,3.249,-3.093,12.005,-2.371,0.505,-0.526,happy
2.62,0,0,0,0,1472,0,2631,3611,3996,564,2441,3403,6,3,0,299,5.052,11.322,16.266,1.214,0.733,-0.383,1.707,-0.132,10.518,-3.92,1.417,-0.02,happy
2.63,36,1285,0,0,2100,0,2926,3715,3965,107,2183,2833,0,0,0,163,0.658,4.068,11.423,0.574,1.007,-0.35,2.504,-1.762,12.763,-5.109,1.708,0.947,happy
2.64,120,2251,0,0,2350,0,3065,3767,3684,0,0,1141,0,0,0,101,1.089,3.359,10.618,0.617,1.122,-0.342,2.097,-7.271,18.074,-7.058,1.838,3.575,happy
2.65,277,2827,0,0,2631,0,3177,3741,1976,0,0,0,0,0,0,41,0.84,3.168,10.381,0.493,0.998,-0.529,1.147,-4.152,19.371,-7.267,1.571,4.478,happy
2.66,479,2939,0,0,2697,0,3213,3677,973,0,0,0,0,0,0,0,0.235,4.204,10.942,0.426,0.546,-0.412,-0.388,-17.123,14.346,-5.406,1.331,4.165,happy
2.67,640,3206,270,0,2800,0,3267,3726,0,0,0,0,0,0,0,0,1.068,3.512,10.048,0.513,0.364,-0.388,0.079,-8.236,19.613,-1.974,0.289,4.179,happy
2.68,752,3303,1191,0,2892,0,3287,3670,0,0,0,0,0,0,0,0,1.104,4.022,10.238,0.352,0.028,-0.191,7.309,-7.242,19.613,0.907,-1.462,2.574,happy
2.69,890,3410,1806,0,2993,0,3309,3661,0,0,0,0,0,0,116,0,1.372,3.364,9.622,0.357,0.018,-0.103,14.471,3.06,3.706,1.559,-0.356,1.799,happy
2.7,966,3445,2222,63,3071,0,3293,3617,0,0,0,0,0,0,0,0,1.233,3.785,9.838,0.375,0.03,-0.043,8.44,4.946,6.206,1.502,-0.382,0.609,happy
2.71,1162,3521,2493,239,3155,0,3299,3568,0,0,0,0,0,0,0,0,1.3,3.452,9.464,0.296,0.073,-0.031,6.938,1.583,9.589,1.61,-1.507,-0.585,happy
2.72,1320,3603,2707,478,3190,0,3287,3506,0,0,0,5,0,0,0,0,1.152,3.448,9.452,0.268,0.106,-0.097,7.606,0.215,10.963,2.214,-1.784,-1.419,happy
2.73,1408,3620,2866,720,3234,0,3264,3414,0,0,0,0,0,0,0,0,1.006,3.419,9.562,0.242,0.071,-0.068,4.235,-0.165,10.925,2.925,-1.502,-1.856,happy
2.74,1584,3805,3017,987,3300,0,3174,3321,0,0,0,0,0,0,0,0,1.135,3.622,9.44,0.222,-0.049,-0.021,-1.032,-0.713,10.173,3.447,-1.644,-1.816,happy
2.75,1762,3859,3153,1330,3341,0,3107,3015,0,0,0,0,0,10,0,0,1.116,3.352,9.354,0.217,-0.079,-0.011,-2.061,-1.504,8.631,3.842,-1.714,-1.013,happy
2.76,1946,3787,3269,1520,3394,0,3039,2635,0,0,0,0,0,0,0,0,1.144,3.512,9.337,0.227,-0.079,-0.009,-1.111,-4.025,11.502,4.174,-1.787,-0.683,happy
2.77,2109,3935,3358,1808,3410,0,2939,2613,0,0,0,0,111,0,26,0,1.195,3.606,9.234,0.193,-0.083,-0.008,-0.599,-4.791,12,4.325,-1.946,-0.831,happy
2.78,2250,3966,3430,1968,3443,0,2827,2285,0,0,0,0,0,0,0,0,1.24,3.62,9.203,0.203,-0.094,-0.019,-1.911,-5.988,14.073,4.466,-2.195,-1.137,happy
2.79,2419,3881,3504,2058,3472,0,2763,1901,0,22,0,0,0,0,0,61,1.209,3.591,9.246,0.188,-0.07,-0.027,-2.871,-8.473,19.613,4.707,-2.32,-0.922,happy
2.8,2593,4045,3577,2272,3504,0,2636,1680,0,0,0,0,0,0,0,1,1.147,3.579,9.282,0.213,-0.073,-0.039,-3.211,-10.185,19.613,4.809,-2.506,-0.775,happy
2.81,2814,4078,3642,2407,3535,0,2470,665,0,0,0,0,0,0,0,0,1.099,3.649,9.345,0.265,-0.113,-0.039,-4.144,-14.564,16.676,4.419,-3.045,-0.713,happy
2.82,2964,4095,3551,2533,3557,0,2064,0,0,0,0,20,52,0,0,0,1.183,3.663,9.234,0.319,-0.106,-0.045,-2.351,-19.613,9.754,3.076,-2.564,-1.03,happy
2.83,3145,4095,3746,2627,3472,0,1439,0,0,0,0,0,0,0,0,0,1.235,3.637,8.875,0.358,0.007,-0.041,-5.265,-19.613,4.695,2.615,-2.114,-1.276,happy
2.84,3216,4095,3770,2672,3331,0,964,0,0,0,0,0,0,0,0,0,1.796,3.991,9.057,0.35,0.085,-0.029,-11.04,-19.613,-2.011,1.888,-1.968,-1.354,happy
2.85,3349,4095,3805,2777,2621,0,405,0,29,0,0,0,0,0,0,0,1.458,2.557,9.383,0.365,0.156,-0.112,-9.673,-19.613,-8.672,-0.756,0.311,-0.915,happy
2.86,3491,4082,3853,2719,2303,0,235,0,0,0,0,0,0,0,0,0,1.779,3.907,9.122,0.87,0.12,0.126,1.925,-3.108,8.181,-1.88,1.747,-0.325,happy
2.87,3570,4077,3870,2811,2123,0,32,0,0,0,0,0,0,0,0,0,1.393,3.859,8.95,0.951,0.184,0.13,5.562,-0.239,19.613,-1.157,1.484,-0.546,happy
2.88,3644,4077,3885,2832,2029,0,0,0,0,0,0,0,0,0,0,17,0.943,4.626,9.072,1.104,0.211,0.089,4.812,5.811,4.798,-1.897,0.232,-0.622,happy
2.89,3717,4066,3893,2836,1766,0,0,0,0,0,0,3,0,0,0,667,1.238,3.546,9.11,1.27,0.311,0.141,-1.743,2.84,5.088,-2.933,0.912,0.256,happy
2.9,3760,4083,3892,2818,1682,0,0,0,19,23,0,0,0,0,0,1181,2.198,3.531,9.562,1.548,0.381,0.176,-5.851,-6.862,17.545,-2.594,0.675,0.389,happy
2.91,3805,4047,3885,2771,1535,0,0,0,17,0,69,1,0,0,39,2143,1.894,3.847,9.412,1.882,0.483,0.238,-7.645,-3.536,14.765,-2.069,0.285,0.681,happy
2.92,3838,4076,3818,2489,897,0,0,0,45,0,0,0,0,0,437,2764,0.45,2.919,9.51,2.746,0.782,0.466,1.027,-4.468,13.692,-2.148,-0.077,0.744,happy
2.93,3815,3782,3575,2285,528,0,0,0,29,0,0,0,0,0,1013,3245,3.029,3.493,10.072,3.407,0.737,0.409,4.164,-5.59,10.716,-1.974,-0.331,0.323,happy
2.94,3838,3173,3117,1835,0,0,0,0,31,0,0,22,19,0,2269,3796,2.784,6.395,15.028,4.998,0.068,-0.145,2.358,-9.886,17.327,-1.319,0.902,0.732,happy
2.95,3374,2230,959,464,0,0,0,0,23,0,0,0,788,0,2778,3999,3.086,5.349,13.853,6.504,-0.18,-1.38,0.895,-3.776,10.896,-0.626,0.815,0.436,happy
2.96,2181,1049,0,0,0,0,0,0,45,0,0,41,1300,0,2955,4063,2.018,7.551,12.069,7.55,0.022,-2.31,2.452,-4.199,10.326,-0.522,0.854,0.386,happy
2.97,1535,111,0,0,0,0,0,0,47,0,0,0,1747,0,3090,4079,1.599,11.729,12.981,7.265,0.126,-2.524,0.622,-3.63,10.748,-0.362,0.747,0.358,happy
2.98,960,0,0,0,0,0,0,0,45,0,0,0,1933,0,3222,4095,-0.132,14.437,19.613,4.096,-0.717,-2.136,1.032,-3.663,9.965,-0.295,0.53,0.254,happy
2.99,0,0,0,0,0,0,0,0,30,0,17,0,2155,0,3341,4095,5.614,2.313,19.613,0.479,0.019,-3.141,1.049,-3.462,10.022,-0.245,0.356,0.225,happy
3,0,0,0,0,0,0,0,0,71,0,0,0,2269,0,3411,4095,8.181,2.717,14.988,-1.182,0.234,-1.955,1.451,-3.73,9.895,-0.143,0.352,0.169,happy
3.01,0,0,0,0,0,0,0,0,105,0,0,9,2413,0,3481,4095,5.6,-0.388,7.377,-0.92,0.776,-1.483,1.437,-3.546,9.835,-0.097,0.213,0.083,happy
3.02,0,0,0,0,0,0,0,0,125,0,0,0,2511,26,3763,4095,4.192,-2.045,7.673,-1.357,0.304,-1.189,1.542,-2.971,9.558,-0.076,0.164,0.06,happy
3.03,0,0,0,0,0,0,0,0,125,0,0,1,2616,0,3595,4095,5.55,-0.548,8.222,-1.586,-0.414,-0.6,1.748,-3.112,9.294,-0.141,0.143,0.056,happy
3.04,0,0,0,0,0,0,0,0,88,108,0,23,2709,0,3603,4095,6.776,0.723,9.613,-2.108,-0.464,-0.02,1.578,-3.393,9.658,-0.133,0.139,0.067,happy
3.05,0,0,0,0,0,0,0,0,77,467,0,251,2771,0,3627,4095,5.942,2.105,11.186,-2.789,-0.346,0.618,1.523,-3.385,9.268,-0.087,0.149,0.109,happy
3.06,0,0,0,0,0,0,0,0,111,569,0,275,2843,2,3609,4095,3.804,2.607,10.479,-3.506,-0.338,1.005,1.573,-3.311,9.22,-0.105,0.174,0.084,happy
3.07,0,0,0,0,0,0,0,0,156,555,1208,441,2893,21,3567,4095,1.743,2.595,8.104,-3.949,-0.552,1.129,1.358,-3.464,9.675,-0.093,0.176,0.08,happy
3.08,0,0,0,0,0,0,0,0,147,635,1440,601,2925,37,3550,4060,0.85,2.717,6.812,-4.059,-0.752,1.042,1.377,-3.438,9.598,-0.062,0.163,0.06,happy
3.09,0,0,0,0,0,0,0,0,140,686,1492,479,2955,36,3529,4063,0.462,3.651,7.824,-4.095,-0.784,0.866,1.674,-3.333,9.323,-0.082,0.12,0.061,happy
3.1,0,0,0,0,0,0,0,0,133,775,1661,699,3031,30,3498,4095,0.156,5.143,9.653,-4.21,-0.841,0.713,1.381,-3.239,9.285,-0.063,0.094,0.086,happy
3.11,0,0,0,0,0,0,0,0,141,994,1904,862,2985,24,3491,4060,1.288,6.488,10.508,-4.418,-0.92,0.634,1.324,-3.452,9.45,-0.046,0.056,0.085,happy
3.12,0,0,0,0,0,0,0,0,109,1187,1952,1095,3047,38,3485,4007,2.327,7.53,10.432,-4.52,-0.994,0.762,1.386,-3.369,9.469,-0.068,0.024,0.088,happy
3.13,0,0,0,0,0,0,0,0,209,1593,2121,1423,3164,28,3443,3957,2.84,9.266,11.159,-4.411,-1.007,1.389,1.489,-3.242,9.4,-0.067,0.035,0.109,happy
3.14,0,0,0,0,0,0,0,0,489,1790,2157,1679,3275,48,3384,3891,1.961,10.726,12.993,-4.14,-0.953,2.053,1.362,-3.452,9.335,-0.042,-0.015,0.051,happy
3.15,0,0,0,0,0,0,0,0,623,1877,2188,1901,3327,48,3319,3880,0.922,13.036,15.201,-3.895,-0.841,2.357,1.42,-3.268,9.397,-0.06,-0.02,0.023,happy
3.16,0,0,0,0,0,0,0,0,1099,2399,2218,2261,3417,51,3113,3666,0.713,16.082,15.251,-3.825,-0.626,2.249,1.417,-3.505,9.493,-0.111,-0.039,0.008,happy
3.17,0,0,0,0,0,0,0,0,1509,2611,2249,2539,3473,51,2842,3597,-0.237,16.374,10.192,-3.555,-0.687,1.759,1.42,-3.476,9.249,-0.18,-0.041,-0.004,happy
3.18,0,0,0,0,0,0,0,0,1763,2662,2252,2633,3539,46,2669,3399,-1.549,14.356,4.077,-2.594,-0.851,1.201,1.508,-3.527,9.385,-0.203,-0.01,-0.005,happy
3.19,0,0,0,0,99,0,0,0,2280,2810,2265,2763,3571,51,2220,2603,-2.325,15.991,2.593,-1.694,-1.274,0.852,1.556,-3.675,9.292,-0.178,0.089,-0.002,happy
3.2,0,0,0,0,156,0,0,0,2671,2966,2280,2913,3520,47,1022,1479,-1.015,15.581,-3.668,-0.648,-0.314,0.864,1.216,-4.017,9.471,-0.274,0.153,-0.049,happy
3.21,12,0,0,0,206,0,0,0,2855,3061,2280,3015,3345,69,669,1327,-1.001,12.756,-1.413,0.895,0.16,0.745,1.523,-3.768,8.952,-0.264,0.183,-0.024,happy
3.22,26,0,0,0,91,0,0,0,3112,3166,2290,3115,2715,5,11,1067,3.136,14.25,3.776,1.893,0.199,1.719,1.693,-3.208,9.634,0.029,0.238,0.139,happy
3.23,0,0,0,0,0,0,0,0,3243,3183,2290,3243,2409,7,0,819,4.362,7.027,7.14,2.462,0.916,1.349,1.109,-4.377,9.036,-0.479,0.25,-0.09,happy
3.24,0,0,0,0,0,0,0,0,3351,3155,2311,3269,2008,6,4,701,1.963,2.751,18.624,1.722,0.749,1.498,1.235,-3.974,9.287,-0.379,0.218,-0.08,happy
3.25,0,0,0,0,206,0,304,752,3455,3020,2308,3317,1547,0,4,600,-4.252,-6.314,7.075,2.047,0.368,1.01,1.381,-3.833,9.297,-0.366,0.209,-0.072,happy
3.26,0,0,0,0,671,0,1131,2602,3611,2675,2362,3422,699,0,3,521,-9.05,4.271,14.368,3.493,-0.731,-0.463,1.525,-3.68,9.785,-0.717,0.128,-0.144,happy
3.27,78,0,0,0,1226,0,2197,3260,3703,2587,2311,3438,288,5,4,383,10.422,7.082,13.357,2.02,-1.142,-0.566,1.954,-2.78,9.718,-1.084,0.202,-0.203,happy
3.28,386,873,0,0,1921,0,2768,3537,3853,1983,2313,3347,55,0,2,219,3.56,4.484,11.545,1.028,1.355,-0.58,3.764,-2.557,10.999,-2.483,0.527,-0.439,happy
3.29,584,1872,0,0,2290,0,3003,3463,3731,713,2262,2894,0,0,0,168,1.209,2.804,9.689,0.635,1.107,-0.544,2.306,-1.662,10.228,-3.739,1.265,0.217,happy
3.3,743,2619,0,0,2607,0,3152,3711,3559,7,1614,2394,0,0,0,159,1.219,3.072,9.773,0.544,0.908,-0.461,1.702,-2.495,15.148,-4.615,0.992,1.114,happy
3.31,832,3171,0,0,2896,0,3215,3739,2126,0,0,871,103,103,0,27,1.312,3.582,9.78,0.445,0.777,-0.316,2.84,-6.27,14.473,-5.132,0.536,3.219,happy
3.32,882,3270,0,0,2996,0,3314,3616,1172,12,12,0,0,0,0,0,1.025,3.56,9.402,0.332,0.26,-0.231,-3.864,-6.596,12.057,-4.39,-0.231,4.157,happy
3.33,1062,3467,660,0,3154,0,3376,3749,217,0,0,0,0,0,0,0,1.444,3.685,9.409,0.24,0.053,-0.056,-3.093,-4.293,19.613,-2.019,-1.023,4.882,happy
3.34,1182,3543,1584,0,3242,0,3407,3721,0,0,0,0,0,0,37,0,1.358,3.536,9.237,0.18,0.168,-0.051,9.11,3.053,13.266,1.032,-0.884,4.357,happy
3.35,1251,3583,1908,0,3307,0,3408,3696,0,0,2,0,0,0,0,0,1.022,3.73,9.783,0.146,0.153,-0.051,9.644,2.184,6.421,1.272,-0.986,3.046,happy
3.36,1393,3605,2134,22,3344,0,3382,3664,0,0,0,0,0,0,0,0,1.063,3.582,9.534,0.161,0.107,-0.062,8.423,2.428,7.094,1.265,-1.968,1.526,happy
3.37,1438,3648,2290,91,3376,0,3379,3615,0,0,0,0,0,0,0,0,1.063,3.601,9.558,0.174,0.042,-0.06,8.226,1.647,7.439,1.432,-2.392,0.302,happy
3.38,1568,3682,2441,115,3407,0,3356,3539,0,0,0,0,0,0,0,11,1.092,3.563,9.397,0.165,0.009,-0.054,4.616,0.625,9.323,1.785,-2.303,-0.424,happy
3.39,1649,3709,2559,219,3437,0,3344,3475,0,0,0,0,0,0,0,0,1.178,3.603,9.378,0.159,-0.025,-0.048,0.488,-0.041,10.161,2.312,-2.191,-0.573,happy
3.4,1830,3760,2659,366,3493,0,3325,3367,0,0,0,0,0,44,0,0,1.13,3.541,9.143,0.125,-0.027,-0.008,-1.896,-1.118,9.974,2.938,-2.265,-0.152,happy
3.41,1990,3793,2813,471,3515,0,3305,3269,0,0,0,0,0,0,0,0,1.159,3.529,9.27,0.12,-0.038,-0.008,-2.109,-2.449,10.693,3.123,-2.465,0.064,happy
3.42,2182,3834,2906,617,3548,0,3296,3184,0,0,2,0,0,0,0,0,1.125,3.632,9.337,0.114,-0.046,-0.02,-3.867,-4.743,12.251,3.45,-2.821,0.458,happy
3.43,2288,3744,3007,720,3583,0,3293,2960,0,0,0,0,0,35,0,0,1.18,3.598,9.242,0.113,-0.052,-0.021,-9.273,-5.32,12.835,3.403,-3.774,1.482,happy
3.44,2401,3886,3089,897,3609,0,3291,3115,0,0,0,0,0,0,0,0,1.192,3.632,9.275,0.131,-0.053,-0.029,-10.654,-7.286,13.724,3.335,-4.005,2.368,happy
3.45,2510,3910,3166,1092,3637,0,3284,3100,0,23,0,0,0,0,0,0,1.271,3.701,9.187,0.137,-0.067,-0.021,-12.325,-11.672,12.548,3.358,-4.274,3.879,happy
3.46,2636,3876,3246,1160,3679,0,3279,2917,0,0,0,0,0,0,0,0,1.262,3.694,9.17,0.12,-0.075,-0.011,-13.041,-12.112,6.905,2.186,-4.398,4.264,happy
3.47,2743,3973,3305,1338,3696,0,3232,2942,0,0,0,0,0,0,0,0,1.353,3.62,9.199,0.12,-0.066,-0.018,-11.293,-10.817,4.827,1.366,-3.831,4.007,happy
3.48,2832,3994,3379,1487,3696,0,3141,2672,0,0,79,0,33,0,0,0,1.305,3.682,9.189,0.157,-0.052,-0.003,-4.156,-12.847,-0.151,-1.068,0.29,1.229,happy
3.49,2928,4016,3439,1529,3696,0,2997,2000,0,0,12,0,43,0,0,0,1.523,3.716,9.098,0.175,-0.03,0.009,-12.974,-5.605,18.289,0.754,4.846,1.104,happy
3.5,3009,4042,3475,1794,3627,0,2721,656,0,0,0,0,205,0,239,0,1.662,3.953,9.17,0.183,0.038,-0.016,-9.392,-12.701,19.613,1.021,0.771,-0.029,happy
3.51,3088,4049,3515,1850,3423,0,2019,0,0,348,0,0,806,0,1039,942,1.226,3.869,9.424,0.192,0.094,-0.026,-0.352,4.741,8.112,-0.581,1.749,0.875,happy
3.52,3133,3920,3535,1760,2646,0,570,0,35,795,0,59,1190,0,1491,2229,1.243,3.16,9.251,0.398,0.171,-0.047,1.104,-5.842,11.739,-0.46,-0.066,0.448,happy
3.53,3179,4003,3536,1577,1808,0,0,0,79,1000,0,243,1394,3,1898,2731,2.672,3.792,9.579,1.223,0.186,0.249,0.869,-3.474,9.155,-0.626,-0.067,0.404,happy
3.54,3217,3888,3458,1209,958,0,0,0,266,1659,1671,1183,1557,45,2317,3339,1.209,2.423,10.657,2.058,0.451,0.403,1.08,-4.688,9.785,-0.268,0.072,0.116,happy
3.55,3152,3160,2845,447,226,0,0,0,605,1735,1794,1647,1763,79,2746,3691,2.021,2.832,12.579,3.325,0.513,0.344,1.353,-3.34,9.199,-0.162,0.117,-0.021,happy
3.56,2755,1579,101,0,0,0,0,0,901,1844,1916,1743,1908,47,2805,3733,4.271,6.869,14.382,4.401,0.467,-0.283,0.821,-3.644,9.404,-0.181,-0.009,-0.073,happy
3.57,2168,182,0,0,0,0,0,0,1003,2041,2014,2117,2185,50,2940,3815,5.059,6.148,12.412,4.332,2.726,-0.55,1.288,-3.881,9.481,-0.063,0.081,0.018,happy
3.58,767,0,0,0,0,0,0,0,1437,2167,2075,2309,2267,47,3093,3854,7.896,-2.555,17.018,1.465,2.619,0.396,1.233,-3.747,9.282,-0.035,0.144,0.014,happy
3.59,235,0,0,0,0,0,0,0,1573,2159,2075,2396,2195,55,3115,3815,4.932,-4.434,13.513,0.269,2.306,2.184,1.489,-3.826,9.395,-0.047,0.15,0.001,happy
3.6,214,0,0,0,138,0,0,0,1735,2195,2121,2484,2088,33,3078,3875,2.126,-3.826,11.413,-0.522,1.985,2.674,1.245,-3.819,9.335,0.007,0.187,0.043,happy
3.61,196,0,0,0,128,0,0,0,1829,2183,2144,2669,1817,46,2957,3838,3.005,-2.176,10.58,-1.382,1.839,2.476,1.049,-3.709,9.268,0.03,0.15,0.05,happy
3.62,178,0,0,0,144,0,0,0,1851,2141,2144,2666,1779,47,2891,3820,5.069,-0.347,9.507,-2.048,1.941,2.397,1.24,-3.768,9.385,0.031,0.144,0.055,happy
3.63,206,0,0,0,89,0,0,0,1967,1956,2188,2711,1587,47,2765,3788,7.365,1.915,9.328,-2.445,1.997,2.635,1.235,-3.742,9.299,0.042,0.13,0.063,happy
3.64,139,0,0,0,41,0,0,0,1929,1757,2144,2701,1434,47,2657,3786,9.768,4.549,8.763,-2.504,2.083,3.326,1.123,-3.73,9.258,0.041,0.102,0.065,happy
3.65,139,0,0,0,53,0,0,0,1981,1520,2142,2707,1418,51,2617,3789,13.618,8.32,9.78,-2.393,2.197,4.465,1.046,-3.742,9.143,0.029,0.065,0.087,happy
3.66,144,0,0,0,237,0,0,0,1993,1579,2147,2748,1407,55,2711,3769,14.664,11.258,7.511,-2.263,2.927,5.76,0.828,-3.625,9.275,0.013,0.038,0.07,happy
3.67,145,0,0,0,233,0,0,0,1951,1438,2098,2629,1455,103,2814,3821,12.129,12.598,4.159,-1.722,3.011,6.741,1.041,-3.737,9.347,0.017,0.045,0.079,happy
3.68,29,0,0,0,207,0,0,0,2047,1429,2101,2670,1459,53,2806,3829,8.902,12.512,2.866,-0.726,2.549,7.075,1.219,-3.728,9.342,0.026,0.056,0.078,happy
3.69,0,0,0,0,267,0,0,0,1939,1371,2149,2669,1467,50,2748,3846,6.122,13.719,6.096,0.122,2.084,6.143,1.049,-3.565,9.258,0.016,0.035,0.066,happy
3.7,0,0,0,0,265,0,0,0,2087,1565,2111,2743,1527,47,2668,3853,-1.791,13.793,9.115,0.244,-0.166,4.091,0.922,-3.649,9.273,0.034,0.027,0.055,happy
3.71,0,0,0,0,284,0,0,0,2069,1597,2149,2728,1619,46,2619,3859,4.978,15.043,5.459,-0.402,-0.242,2.361,1.037,-3.699,9.287,0.049,-0.012,0.043,happy
3.72,28,0,0,0,390,0,0,0,2199,1615,2147,2727,1895,47,2572,3855,7.369,11.533,-1.58,-0.018,0.533,1.351,1.171,-3.713,9.323,0.021,-0.05,0.04,happy
3.73,94,0,0,0,365,0,0,0,2213,1721,2121,2715,2095,83,2601,3819,11.303,12.922,-1.152,0.901,0.348,1.629,1.123,-3.606,9.237,0.034,-0.163,0.035,happy
3.74,0,130,0,0,533,0,0,0,2314,1743,2121,2639,2298,47,2677,3740,-6.086,19.613,19.613,-1.735,6.196,2.285,1.015,-3.709,9.522,0.075,-0.241,0.029,happy
3.75,484,2034,0,0,1377,0,0,0,2295,1887,2121,2639,2547,47,2741,3755,-13.23,9.759,14.061,-0.453,1.589,1.203,1.231,-3.711,9.316,0.057,-0.202,0.046,happy
3.76,597,2697,0,0,1815,0,674,0,1721,1463,1789,2031,2247,153,2219,3089,-5.171,1.951,12.842,0.707,0.367,-0.339,1.216,-3.761,9.414,0.054,-0.136,0.074,happy
3.77,830,3174,539,0,2326,0,1644,1488,1684,1337,1791,1583,2203,136,2151,3069,2.485,4.022,9.522,0.038,0.005,-0.423,1.36,-3.639,9.318,0.044,-0.131,0.081,happy
3.78,999,3375,1254,0,2559,0,2307,2081,1331,2573,1607,2550,2667,264,2147,3497,3.448,5.696,10.137,-0.359,-0.763,-1.316,1.331,-3.503,9.515,-0.009,-0.094,0.099,happy
3.79,1066,3485,1783,0,2677,0,2657,2507,1587,2567,261,2508,2617,1739,1593,3113,1.3,3.148,9.163,0.199,-0.136,0.03,0.955,-3.306,9.51,-0.03,-0.035,0.082,happy
3.8,1285,3658,2082,5,2862,0,2949,2848,1639,2543,99,2488,2569,1651,1558,3119,1.013,3.646,9.474,0.24,-0.082,0.343,1.204,-3.804,9.143,-0.032,0.009,0.051,happy
3.81,1456,3686,2303,63,3056,0,3119,3032,1573,2549,10,2492,2569,1657,1563,3100,1.319,4.094,9.56,0.051,0.031,0.174,1.322,-3.584,9.57,-0.028,0.047,0.144,happy
3.82,1517,3613,2416,9,3147,0,3217,2994,383,2725,0,2644,2697,38,2027,3256,1.331,3.706,9.129,0.019,-0.05,0.056,-10.793,0.254,14.832,0.442,-0.907,2.886,happy
3.83,1535,3765,2527,0,3235,0,3293,3221,109,0,0,0,4,0,90,1305,1.257,4.276,8.861,-0.046,-0.189,-0.167,-6.321,-2.423,11.969,0.803,-1.62,5.251,happy
3.84,1613,3824,2668,51,3316,0,3344,3267,57,0,0,0,9,0,0,1117,1.501,3.524,9.134,-0.081,0.095,0.015,-9.969,-11.162,8.693,0.809,-2.892,7.482,happy
3.85,1652,3730,2801,161,3357,0,3370,3134,25,0,0,25,0,0,0,1125,1.231,3.658,9.222,-0.003,0.052,0.078,3.22,-14.387,7.76,2.716,-1.166,7.21,happy
3.86,1694,3874,2846,350,3338,0,3378,3325,30,0,0,0,0,0,5,987,1.279,3.457,9.12,0.034,0.062,0.138,5.602,-9.263,0.445,1.976,-1.493,5.653,happy
3.87,1695,3879,2891,594,3348,0,3383,3337,70,0,0,0,0,0,0,783,1.094,3.632,9.256,-0.014,0.077,0.052,4.432,-6.668,5.681,0.291,-1.398,2.413,happy
3.88,1635,3763,2932,635,3374,0,3403,3216,30,0,0,0,0,0,0,639,1.199,3.613,9.306,-0.003,0.058,-0.02,-3.859,-3.338,8.361,-0.292,-1.138,1.41,happy
3.89,1620,3891,2931,752,3363,0,3398,3364,16,0,0,0,0,0,0,551,1.123,3.591,9.285,-0.011,0.076,0.002,-5.823,-3.508,11.193,-0.221,-0.771,1.673,happy
3.9,1568,3895,2969,745,3378,0,3397,3376,0,0,0,0,0,0,0,410,1.128,3.615,9.261,0.017,0.081,0.028,-7.745,-3.007,11.748,0.444,-0.516,2.963,happy
3.91,1568,3776,2976,862,3389,0,3405,3250,0,0,0,0,0,0,0,285,1.07,3.639,9.301,0.002,0.091,0.028,-3.821,-3.728,9.45,0.719,-0.484,4.013,happy
3.92,1555,3888,2973,912,3373,0,3404,3408,0,0,0,0,0,0,0,249,1.089,3.551,9.254,0.017,0.063,-0.012,-2.274,-4.202,8.918,0.739,-0.508,4.268,happy
3.93,1613,3884,2975,1013,3383,0,3406,3419,0,0,0,0,0,0,29,184,1.149,3.575,9.21,0.027,0.067,-0.018,-0.182,-4.887,8.705,0.488,-0.648,4.413,happy
3.94,1649,3775,2995,1023,3345,0,3411,3282,0,0,0,0,0,0,29,187,1.068,3.527,9.266,0.009,0.084,-0.015,1.865,-6.876,9.464,0.746,-1.173,4.148,happy
3.95,1706,3910,2985,1136,3345,0,3409,3446,0,0,0,0,0,0,3,159,1.034,3.57,9.325,0.013,0.075,-0.01,2.423,-6.381,7.355,0.761,-1.264,4.007,happy
3.96,1729,3885,3007,1215,3301,0,3408,3458,4,0,0,0,0,0,0,158,1.015,3.484,9.266,0.015,0.08,-0.016,3.256,-6.948,7.365,0.594,-1.233,3.803,happy
3.97,1739,3850,2894,1275,3158,0,3280,3472,0,0,0,0,0,0,0,91,1.001,3.455,9.249,0.035,0.059,-0.029,3.452,-6.316,6.098,0.444,-1.247,3.682,happy
3.98,1984,3898,3066,1441,3255,60,3408,3475,0,0,0,0,0,0,0,99,1.003,3.462,9.261,0.066,0.056,-0.033,4.798,-6.644,6.146,0.337,-1.117,3.571,happy
3.99,2111,3909,3117,1687,3218,41,3398,3457,0,0,0,0,0,0,0,166,0.984,3.51,9.342,0.086,0.065,-0.047,14.564,-3.955,6.603,-0.485,-1.699,2.81,happy
4,2198,3809,3159,1792,3194,108,3361,3244,0,0,0,0,0,0,0,1146,1.073,3.424,9.306,0.123,0.061,-0.063,19.613,-1.472,0.97,-1.29,-1.55,-0.095,happy
4.01,2253,3935,3199,1919,3153,0,3262,3213,0,0,0,0,26,0,111,1637,1.018,3.565,9.452,0.14,0.076,-0.081,13.922,-4.614,2.792,-1.613,-0.58,-0.507,happy
4.02,2250,3937,3221,1868,3124,0,3024,2559,0,0,0,4,29,0,919,2523,0.737,3.481,9.455,0.188,0.047,-0.108,5.179,1.856,7.008,0.047,0.952,0.475,happy
4.03,2128,3823,3231,1535,2985,0,2497,986,20,0,0,281,311,3,1438,3117,1.164,3.728,9.328,0.217,0.156,-0.106,1.664,-4.944,10.135,-0.286,-0.067,-0.021,happy
4.04,1706,3903,3198,1406,2046,0,1352,0,33,141,5,312,495,0,1684,3337,1.566,3.663,9.498,0.238,0.291,-0.18,0.618,-4.041,10.046,-0.156,0.091,0.045,happy
4.05,1499,3744,3099,1271,1168,0,206,0,47,344,898,717,871,12,2535,3653,1.468,3.668,9.625,0.663,0.292,-0.101,0.967,-3.689,9.634,-0.079,-0.221,-0.09,happy
4.06,1254,2979,2613,650,374,0,0,0,26,391,1246,740,1389,11,2891,3800,5.595,5.148,10.982,0.573,1.398,-0.485,1.195,-3.666,9.491,0.091,-0.137,-0.033,happy
4.07,1094,1387,69,16,0,0,0,0,13,469,1353,783,1751,6,3113,3864,4.015,8.921,12.287,0.611,1.509,-1.608,1.027,-3.625,9.57,0.093,-0.148,-0.067,happy
4.08,0,0,0,0,12,0,0,0,19,580,1402,738,2344,7,3399,3947,14.415,11.435,9.067,0.593,2.838,-1.389,1.207,-3.424,9.483,0.065,-0.15,-0.059,happy
4.09,0,0,0,0,33,0,0,0,5,598,1425,509,2473,3,3481,3951,16.915,12.771,8.272,0.132,2.015,0.573,1.228,-3.512,9.598,0.124,-0.16,-0.061,happy
4.1,0,0,0,0,0,0,0,0,7,663,1330,263,2572,4,3531,3963,13.455,6.821,5.569,0.078,2.236,1.524,1.358,-3.347,9.376,0.132,-0.184,-0.081,happy
4.11,0,0,0,0,0,0,0,0,17,778,1463,291,2685,5,3593,3967,9.108,6.124,4.64,0.427,2.12,2.148,1.314,-3.292,9.459,0.124,-0.198,-0.075,happy
4.12,0,0,0,0,0,0,0,0,4,793,1463,253,2763,1,3619,3957,6.979,5.203,6.043,0.792,1.677,2.695,1.223,-3.273,9.28,0.121,-0.201,-0.076,happy
4.13,0,0,0,0,0,0,0,0,4,825,1453,227,2809,4,3647,3959,7.23,5.052,7.611,0.942,1.385,3.144,1.216,-3.242,9.431,0.144,-0.134,-0.056,happy
4.14,0,0,0,0,0,0,0,0,2,822,1451,143,2859,1,3673,3941,6.335,4.635,8.988,0.966,1.116,3.515,1.355,-3.361,9.428,0.122,-0.142,-0.059,happy
4.15,0,0,0,0,0,0,0,0,3,813,1463,143,2895,1,3695,3910,5.416,4.235,9.431,0.834,0.949,3.841,1.233,-3.419,9.522,0.11,-0.159,-0.068,happy
4.16,0,0,0,0,0,0,0,0,0,903,1545,45,2903,0,3707,3884,3.991,3.294,9.323,0.743,0.732,4.029,1.334,-3.223,9.421,0.115,-0.154,-0.068,happy
4.17,0,0,0,0,0,0,0,0,0,1076,1502,0,2924,0,3727,3856,2.298,2.71,9.764,0.606,0.505,3.949,1.35,-3.134,9.294,0.096,-0.143,-0.034,happy
4.18,0,0,0,0,0,0,0,0,0,1079,1486,0,2956,0,3694,3788,1.384,2.246,9.95,0.414,0.382,3.715,1.238,-3.177,9.392,0.078,-0.126,-0.003,happy
4.19,0,0,0,0,0,0,0,0,4,1229,1492,0,3031,0,3725,3789,1.228,2.095,10.183,0.162,0.391,3.394,1.427,-3.117,9.268,0.035,-0.094,0.005,happy
4.2,0,0,0,0,0,0,0,0,0,1404,1456,8,3097,0,3731,3753,1.621,1.956,10.534,-0.122,0.443,3.091,1.432,-3.455,9.515,0.053,-0.108,0.004,happy
4.21,0,0,0,0,0,0,0,0,0,1495,1461,0,3181,0,3727,3707,2.342,2.253,10.858,-0.418,0.431,2.879,1.245,-3.136,9.548,0.038,-0.103,0.002,happy
4.22,0,0,0,0,0,0,0,0,0,1528,1451,0,3239,0,3729,3687,3.39,2.562,10.64,-0.706,0.332,2.808,1.233,-3.086,9.311,0.001,-0.094,0.014,happy
4.23,0,0,0,0,0,0,0,0,0,1573,1456,51,3299,0,3723,3564,4.341,3.141,10.556,-0.936,0.247,2.836,1.592,-2.875,9.598,-0.012,-0.074,0.002,happy
4.24,0,0,0,0,0,0,0,0,0,1597,1497,0,3371,0,3741,3453,4.817,3.836,10.817,-1.142,0.175,2.962,1.535,-3.045,9.543,-0.003,-0.142,0.041,happy
4.25,0,0,0,0,0,0,0,0,0,1767,1466,0,3433,0,3731,3448,4.831,4.453,10.534,-1.363,0.087,3.09,1.401,-3.421,10.12,-0.006,-0.146,0.069,happy
4.26,0,0,0,0,0,0,0,0,0,1881,1550,0,3499,0,3734,3485,4.587,4.812,10.106,-1.459,0.025,3.21,1.765,-3.235,9.555,-0.051,-0.009,0.103,happy
4.27,0,0,0,0,0,0,0,0,5,2174,1661,0,3549,0,3735,3487,4.367,5.605,10.19,-1.516,-0.002,3.299,1.664,-3.019,8.873,-0.038,0.032,0.123,happy
4.28,0,0,0,0,0,0,0,0,13,2271,1794,0,3589,0,3705,3499,4.041,6.065,10.209,-1.554,0.012,3.349,1.879,-2.883,9,-0.083,0.045,0.148,happy
4.29,0,0,0,0,0,0,0,0,43,2355,1965,0,3627,1,3739,3493,3.692,6.73,10.321,-1.575,0.025,3.377,1.745,-2.954,9.201,-0.131,0.106,0.202,happy
4.3,0,0,0,0,0,0,0,0,12,2446,2042,1,3675,0,3711,3475,3.345,6.919,10.245,-1.575,0.111,3.353,1.834,-2.947,8.899,-0.187,0.19,0.256,happy
4.31,0,0,0,0,0,0,0,0,24,2536,2070,152,3704,9,3669,3476,2.792,7.688,10.865,-1.561,0.151,3.311,1.844,-2.998,8.72,-0.198,0.288,0.315,happy
4.32,0,0,0,0,0,0,0,0,79,2523,2106,262,3667,85,3551,3435,2.243,8.691,11.468,-1.591,0.156,3.224,1.961,-3.821,9.316,-0.219,0.27,0.342,happy
4.33,0,0,0,0,0,0,0,0,60,2601,2183,389,3675,17,3468,3401,-2.265,8.681,11.384,-1.652,-0.043,3.236,1.298,-3.63,10.108,-0.159,0.25,0.269,happy
4.34,0,0,0,0,0,0,0,0,405,2665,2234,1178,3640,47,3224,3447,-2.547,9.641,11.025,-1.546,-0.73,2.807,1.255,-4.082,10.142,-0.241,0.261,0.106,happy
4.35,0,0,0,0,0,0,0,0,1001,2697,2285,1721,3591,73,3039,3433,-5.418,9.862,8.346,-1.615,0.07,2.037,1.298,-3.45,9.74,-0.167,0.265,0.151,happy
4.36,0,0,0,0,55,0,0,0,1743,2774,2275,2333,3369,47,2696,3283,-6.498,9.572,4.618,-1.083,-0.003,0.995,1.381,-3.292,9.127,-0.204,0.286,0.101,happy
4.37,0,0,0,0,93,0,0,0,2519,2805,2282,2739,3127,51,2140,2855,-5.289,10.324,4.235,-0.742,0.306,0.298,1.259,-3.673,9.182,-0.239,0.281,0.059,happy
4.38,0,0,0,0,250,0,0,0,2816,2857,2288,2915,3117,50,1607,2587,-5.528,8.65,2.746,0.093,0.919,-0.019,1.097,-3.479,8.65,-0.014,0.193,0.089,happy
4.39,0,0,0,0,0,0,0,0,3179,2847,2288,3164,3005,47,288,2091,-6.163,10.408,0.891,1.367,1.273,-0.523,1.104,-3.749,8.985,-0.055,-0.029,0.183,happy
4.4,0,0,0,0,0,0,0,0,3499,2735,2311,3303,2278,3,9,1175,1.346,5.89,13.901,1.301,1.103,-1.144,1.13,-3.39,10.027,-0.371,0.056,-0.002,happy
4.41,0,0,0,0,0,0,0,54,3615,2697,2305,3401,1833,5,1,1202,2.234,0.249,14.823,1.137,0.27,-0.723,0.91,-3.898,8.978,-0.48,0.059,-0.118,happy
4.42,0,0,0,0,303,0,448,1317,3695,2685,2308,3483,1659,7,0,1109,5.234,-3.907,3.766,2.225,0.06,-0.686,0.867,-3.656,9.242,-0.451,0.005,-0.172,happy
4.43,0,0,0,0,416,0,1136,2673,3796,2661,2313,3535,1163,5,3,989,2.868,8.03,15.179,2.507,-0.064,-1.218,1.405,-3.361,9.67,-0.418,-0.013,-0.231,happy
4.44,0,0,0,0,976,0,1950,3071,3893,2619,2323,3611,492,5,3,907,5.1,8.045,16.029,1.94,1.424,-0.555,1.528,-2.375,9.337,-1.025,-0.069,-0.341,happy
4.45,0,400,0,0,1669,0,2391,3198,3951,2173,2382,3563,185,7,0,553,-1.506,3.795,11.504,0.638,1.422,-0.224,1.714,-2.727,9.881,-2.286,0.282,-0.37,happy
4.46,0,1707,0,0,2105,0,2701,3477,3932,1838,2436,3439,101,6,2,533,1.427,3.768,10.003,0.493,0.984,-0.178,2.315,-2.468,9.306,-2.904,0.755,-0.381,happy
4.47,0,2430,0,0,2422,0,2891,3555,3932,1191,2398,2909,117,5,4,239,1.049,3.314,9.907,0.354,0.71,-0.156,2.011,-3.747,12.572,-3.968,1.107,0.356,happy
4.48,155,2817,0,0,2710,0,3024,3497,3190,91,0,792,11,1,0,101,1.197,2.986,9.649,0.322,0.23,-0.232,0.151,-7.614,15.265,-5.97,0.408,1.803,happy
4.49,336,3235,997,0,2896,0,3179,3699,3397,46,0,273,0,5,0,107,0.443,3.426,9.984,0.238,-0.135,-0.243,2.892,-7.863,14.614,-6.349,0.404,2.589,happy
4.5,637,3393,1779,0,3042,0,3306,3739,1775,0,0,0,0,0,0,2,1.025,3.311,9.685,0.166,-0.047,-0.044,0.565,-15.232,17.09,-7.336,-0.544,3.069,happy
4.51,674,3378,2217,112,3198,0,3408,3603,0,0,0,0,0,0,0,0,1.314,3.417,9.632,0.208,-0.058,0.004,3.596,2.394,19.613,-0.305,-0.278,3.979,happy
4.52,718,3420,2402,217,3297,0,3445,3582,0,0,0,0,0,0,0,0,1.36,3.328,9.524,0.185,-0.032,0.014,7.812,1.233,19.613,0.916,-0.107,3.027,happy
4.53,795,3466,2550,299,3375,0,3461,3562,0,0,0,0,0,3,0,0,1.142,3.201,9.409,0.202,-0.022,0.026,8.959,1.776,5.023,1.231,0.747,2.666,happy
4.54,801,3497,2662,315,3455,0,3453,3481,0,0,0,0,7,0,0,0,1.085,3.237,9.349,0.186,-0.069,0.005,7.865,4.836,9.515,1.503,0.441,1.532,happy
4.55,879,3549,2747,381,3503,0,3445,3392,0,0,0,0,0,0,0,0,1.075,3.314,9.488,0.208,-0.078,-0.035,10.496,1.911,10.013,1.877,-0.228,0.23,happy
4.56,890,3615,2806,388,3536,0,3427,3217,0,0,63,0,0,0,0,0,1.053,3.259,9.464,0.208,-0.081,-0.05,10.185,1.259,11.332,2.506,-0.533,-1.031,happy
4.57,985,3746,2899,489,3570,0,3371,3046,0,0,0,0,0,0,0,0,1.223,3.191,9.263,0.218,-0.07,-0.076,7.171,-0.144,10.937,3.216,-0.637,-1.995,happy
4.58,1004,3789,2960,565,3607,0,3297,2861,0,0,0,0,0,0,0,0,1.305,3.309,9.256,0.275,-0.053,-0.06,-1.116,-1.039,8.571,4.032,-0.972,-2.171,happy
4.59,1106,3718,3035,561,3627,0,3215,2507,0,0,0,0,0,0,0,0,1.358,3.335,9.141,0.296,-0.05,-0.09,-2.064,-3.01,9.823,4.502,-0.993,-1.066,happy
4.6,1216,3888,3120,720,3632,0,3098,2467,0,0,0,0,0,0,0,0,1.267,3.316,9.139,0.311,-0.029,-0.163,-1.815,-4.307,11.497,4.778,-0.953,-0.548,happy
4.61,1344,3950,3248,927,3638,0,2993,2387,0,0,0,0,0,0,0,0,1.951,3.646,9.005,0.266,-0.019,-0.156,0.113,-6.421,13.345,5.114,-1.353,-0.145,happy
4.62,1647,3943,3376,1520,3600,0,2850,2240,0,0,0,0,0,0,0,0,1.204,3.498,9.294,0.228,-0.036,-0.094,2.763,-8.65,15.72,5.054,-1.612,-0.468,happy
4.63,2022,4031,3502,1911,3686,0,2730,2128,0,0,33,0,0,0,0,0,1.053,3.644,9.39,0.275,-0.047,-0.066,2.964,-10.013,17.652,4.949,-1.486,-0.765,happy
4.64,2409,4073,3583,2137,3710,0,2607,1520,0,0,0,0,0,0,0,0,1.286,3.601,9.194,0.27,-0.072,-0.076,-3.105,-15.977,19.513,4.4,-2.349,-1.173,happy
4.65,2701,3951,3666,2253,3718,0,2368,0,0,0,0,0,0,0,0,0,1.398,3.938,9.218,0.342,-0.042,-0.066,-3.725,-19.613,13.242,3.594,-3.09,-1.395,happy
4.66,2961,4095,3719,2495,3631,0,1823,0,0,0,0,0,0,0,0,0,1.168,3.821,9.21,0.385,0.027,-0.047,-4.609,-19.613,3.057,2.84,-2.451,-1.905,happy
4.67,2923,4027,3583,2447,3455,0,1262,0,0,0,0,0,0,0,0,0,0.979,3.883,9.043,0.438,0.071,-0.076,-9.905,-19.613,-6.874,1.854,-1.629,-2.122,happy
4.68,3262,4095,3802,2720,2758,0,534,0,0,0,0,0,0,0,0,0,1.25,2.65,8.887,0.472,0.239,-0.159,-11.705,-19.613,-6.776,-0.293,-0.51,-1.041,happy
4.69,3414,4095,3840,2754,2427,0,320,0,0,0,0,0,0,0,0,0,1.719,3.771,9.335,0.86,0.228,0.107,4.501,-6.122,7.429,-2.196,2.251,0.468,happy
4.7,3511,4083,3861,2796,2224,0,93,0,0,0,0,0,0,0,0,0,1.635,4.211,8.995,1.065,0.229,0.187,3.196,3.543,19.613,-1.167,1.222,0.765,happy
4.71,3602,4071,3885,2907,2062,0,0,0,0,0,0,0,0,0,0,364,1.381,4.214,9.184,1.189,0.224,0.172,8.964,4.602,0.402,-2.24,-0.192,0.234,happy
4.72,3681,4095,3891,2921,1989,0,0,0,0,0,0,0,0,0,0,1017,1.188,3.974,8.911,1.443,0.309,0.193,3.809,-1.688,3.543,-3.053,0.667,0.547,happy
4.73,3616,4033,3738,2907,1725,0,0,0,0,0,0,0,0,0,19,1471,1.025,3.335,8.792,1.759,0.386,0.263,-6.005,-9.931,19.613,-2.499,0.373,0.197,happy
4.74,3802,4042,3874,2915,1401,0,0,0,0,0,0,0,0,0,552,2328,1.592,3.498,9.495,2.063,0.499,0.322,-5.804,-0.974,11.847,-2.374,0.413,0.64,happy
4.75,3851,3973,3833,2723,1274,0,0,0,0,0,0,0,5,0,991,2927,2.303,3.627,10.331,2.627,0.652,0.432,2.655,-4.513,12.744,-2.37,0.064,0.569,happy
4.76,3870,3725,3740,2273,1040,0,0,0,0,0,0,0,0,4,1663,3422,1.738,3.409,10.388,3.295,0.609,0.367,19.613,-15.275,12.816,-2.783,2.499,0.481,happy
4.77,3867,3056,3085,1854,293,0,0,0,0,0,0,0,308,0,2333,3732,2.112,7.566,15.732,5.056,-0.048,-0.117,1.559,-7.118,10.563,-1.122,1.092,0.436,happy
4.78,3687,2063,925,560,0,0,0,0,14,0,0,0,891,0,2578,3899,1.563,3.859,14.528,6.626,-0.07,-1.676,-0.687,-3.697,11.837,-0.757,0.722,0.501,happy
4.79,2448,478,0,0,0,0,0,0,51,291,0,7,1605,0,3008,4012,1.743,6.634,14.064,8.327,-0.407,-2.648,1.29,-3.615,10.041,-0.325,0.086,0.08,happy
4.8,1376,0,0,0,0,0,0,0,44,344,0,297,2043,1,3127,4053,1.336,12.955,14.104,8.179,-0.386,-2.881,0.575,-4.039,10.599,-0.025,0.056,0.064,happy
4.81,492,0,0,0,0,0,0,0,36,471,2,431,2238,1,3135,4071,-0.29,17.14,19.613,4.027,-1.953,-2.534,1.106,-3.326,9.689,0.074,-0.007,0.035,happy
4.82,0,0,0,0,0,0,0,0,39,595,1164,483,2411,12,3352,4072,10.755,-2.866,19.613,0.169,-0.345,-4.312,1.489,-2.516,9.287,-0.021,-0.017,-0.011,happy
4.83,0,0,0,0,0,0,0,0,59,1113,1446,606,2628,19,3450,4095,7.822,-3.182,9.596,-0.791,0.77,-2.316,1.501,-3.244,9.476,-0.027,-0.035,0.061,happy
4.84,0,0,0,0,0,0,0,0,58,1303,1963,804,2955,19,3481,4084,6.924,-1.116,9.227,-1.422,-0.665,-0.973,1.616,-3.314,9.725,-0.051,0.045,0.037,happy
4.85,0,0,0,0,0,0,0,0,73,1501,2067,1147,3093,31,3563,4095,8.995,-0.187,9.766,-2.513,-1.066,0.398,1.393,-3.488,9.946,-0.072,0.017,0.082,happy
4.86,0,0,0,0,0,0,0,0,79,1653,2111,1289,3089,24,3527,4015,4.662,1.235,9.938,-3.451,-0.68,1.581,1.355,-3.436,9.651,-0.019,0.02,0.091,happy
4.87,0,0,0,0,0,0,0,0,89,1677,2167,1229,3119,26,3496,3989,2.195,1.97,9.026,-3.86,-0.9,1.88,1.326,-3.304,9.5,-0.01,0.018,0.091,happy
4.88,0,0,0,0,0,0,0,0,105,1688,2108,1207,3144,27,3429,3861,0.946,2.581,8.408,-4.13,-1.07,1.904,1.355,-3.266,9.433,-0.011,0.053,0.093,happy
4.89,0,0,0,0,0,0,0,0,79,1834,2121,1339,3183,23,3354,3879,-0.56,4.276,9.766,-4.369,-1.07,1.743,1.362,-3.139,9.443,-0.081,0.031,0.095,happy
4.9,0,0,0,0,0,0,0,0,110,1890,2175,1661,3221,29,3187,3830,-0.591,6.735,12.385,-4.734,-1.106,1.447,1.331,-3.254,9.428,-0.09,0.114,0.182,happy
4.91,0,0,0,0,0,0,0,0,153,1995,2185,1901,3227,38,3080,3767,-0.182,8.581,13.005,-4.975,-0.858,1.379,1.384,-3.831,9.469,-0.069,0.119,0.171,happy
4.92,0,0,0,0,0,0,0,0,327,2255,2221,2035,3257,43,2839,3708,0.251,10.683,15.854,-5.033,-0.669,1.521,1.413,-3.251,9.57,-0.099,0.085,0.109,happy
4.93,0,0,0,0,0,0,0,0,863,2523,2229,2427,3304,51,2760,3558,-0.699,12.972,17.329,-5.033,-0.474,1.546,1.343,-3.282,9.388,-0.093,0.169,0.088,happy
4.94,0,0,0,0,0,0,0,0,1172,2587,2244,2645,3301,51,2652,3465,-3.208,18.502,19.613,-4.758,-0.84,1.186,1.317,-3.548,9.397,-0.113,0.168,0.087,happy
4.95,0,0,0,0,0,0,0,0,1879,2700,2249,2921,3271,50,2317,3033,-2.227,19.613,12.072,-4.694,-1.482,0.8,1.379,-3.598,9.448,-0.268,0.125,0.044,happy
4.96,0,0,0,0,239,0,0,0,2483,2795,2265,3113,3004,47,1469,2291,-3.771,19.613,-2.581,-3.049,-1.643,0.913,1.422,-3.788,9.507,-0.285,0.152,0.001,happy
4.97,9,0,0,0,469,0,0,0,2749,2855,2262,3220,2824,69,725,1770,-7.214,19.613,-9.675,-1.181,-0.781,1.389,1.202,-3.615,9.634,-0.345,0.144,-0.034,happy
4.98,128,0,0,0,309,0,0,0,3178,2975,2272,3375,2477,24,57,1251,-8.736,17.26,-13.357,1.744,1.04,0.372,1.171,-3.323,9.527,-0.309,0.152,0.003,happy
4.99,0,0,0,0,6,0,0,0,3354,2953,2275,3559,1693,4,4,787,5.578,9.56,19.613,2.146,1.294,-0.658,1.087,-3.644,8.655,-0.554,0.089,-0.159,happy
5,0,0,0,0,103,0,48,0,3593,2763,2282,3604,1205,4,1,693,4.094,-0.56,18.285,1.351,-0.03,-0.061,0.869,-1.848,9.036,-0.841,0.022,-0.18,happy
5.01,0,0,0,0,538,0,688,2139,3709,2707,2244,3651,621,11,1,636,1.513,4.257,10.733,2.997,0.356,-1.645,1.41,-3.831,9.414,-0.58,0.056,-0.193,happy
5.02,0,0,0,0,726,0,1370,3097,3794,2555,2321,3736,201,55,3,371,0.031,8.37,14.2,2.523,-0.221,-0.049,1.192,-3.06,9.414,-1.369,0.058,-0.368,happy
5.03,0,0,0,0,1437,0,2301,3226,3950,2143,2423,3687,45,5,1,295,1.034,5.303,19.613,2.127,1.8,-0.504,1.832,-2.03,9.618,-2.838,0.548,-0.417,happy
5.04,0,1284,0,0,2071,0,2751,3555,3963,1803,2561,3563,0,1,9,199,-1.293,4.638,12.503,0.652,1.582,-0.33,3.146,-2.622,10.451,-3.538,0.999,-0.389,happy
5.05,0,2277,0,0,2466,0,3011,3689,3927,339,2193,2857,0,0,0,120,0.543,2.54,10.094,0.456,1.189,-0.153,2.322,-3.543,14.961,-5.033,1.543,0.943,happy
5.06,0,2761,0,0,2719,0,3136,3567,3545,0,0,969,0,0,0,76,1.42,3.091,9.632,0.369,0.825,-0.302,3.196,-4.82,17.336,-6.485,1.152,3.501,happy
5.07,0,2992,0,0,2805,0,3189,3578,2887,0,0,547,0,0,0,8,0.23,3.383,10.956,0.453,0.515,-0.362,4.276,-6.076,13.331,-7.073,1.204,4.004,happy
5.08,48,3222,607,0,2918,0,3261,3539,1755,9,0,0,0,0,0,0,0.917,3.383,10.367,0.387,0.221,-0.497,3.182,-9.383,13.973,-6.194,1.445,4.266,happy
5.09,225,3298,1299,0,3007,0,3326,3583,158,0,0,0,0,0,0,0,1.166,4.104,10.427,0.132,0.024,-0.574,0.407,-11.253,19.613,-3.989,1.305,4.021,happy
5.1,451,3549,2145,9,3191,0,3394,3702,0,108,0,0,0,0,0,0,1.456,3.136,9.622,0.304,0.112,-0.015,1.779,2.705,19.613,-0.168,-0.145,4.614,happy
5.11,503,3616,2300,167,3274,0,3280,3668,0,0,0,0,0,0,0,0,1.52,3.225,9.383,0.265,0.122,0.015,15.486,2.14,19.613,1.198,-0.809,2.878,happy
5.12,623,3697,2691,291,3373,0,3398,3581,0,0,0,26,5,0,25,0,1.226,3.086,9.538,0.331,0.078,-0.049,14.064,1.894,7.561,1.57,-0.057,1.815,happy
5.13,768,3713,2842,565,3407,0,3373,3382,69,0,0,0,0,0,0,0,1.199,3.321,9.579,0.346,0.032,-0.099,11.698,3.51,9.11,1.708,-0.38,0.325,happy
5.14,943,3792,2959,701,3478,0,3331,3318,0,0,0,0,0,0,0,0,1.286,3.326,9.481,0.356,-0.052,-0.097,10.621,1.283,10.056,1.913,-1.169,-1.032,happy
5.15,1152,3859,3120,1015,3532,0,3255,3021,1574,2549,0,2474,2573,1661,1565,3101,1.305,3.56,9.481,0.305,-0.059,-0.09,2.342,0.512,10.168,3.14,-1.304,-2.197,happy
5.16,1356,3785,3249,1168,3498,0,3132,2475,0,0,0,0,0,0,0,0,1.154,3.189,9.098,0.365,-0.067,-0.133,-1.736,-0.613,8.013,3.623,-1.594,-1.588,happy
5.17,1600,3975,3369,1655,3568,0,3011,2119,0,1,0,0,0,0,0,0,1.482,3.428,9.151,0.344,0.03,-0.093,-1.324,-2.145,9.467,3.836,-1.362,-1.241,happy
5.18,1902,4004,3474,1957,3573,0,2826,1643,0,0,0,0,0,0,0,0,1.482,3.479,9.182,0.295,0.008,-0.059,0.369,-4.487,11.006,4.313,-1.427,-1.027,happy
5.19,2174,3926,3563,2033,3570,0,2654,781,0,0,0,0,0,0,0,0,1.245,3.627,9.206,0.319,-0.019,-0.099,0.309,-6.024,12.744,4.516,-1.555,-1.475,happy
5.2,2420,4066,3643,2288,3551,0,2369,0,0,0,0,0,0,0,0,0,1.243,3.871,9.093,0.222,0.013,-0.085,-1.482,-6.225,14.633,4.466,-1.745,-1.537,happy
5.21,2559,4094,3689,2431,3541,0,2154,0,0,0,56,0,0,0,0,0,1.211,3.687,9.213,0.181,0.054,-0.079,-1.99,-7.233,16.625,4.501,-1.661,-1.267,happy
5.22,2801,4095,3736,2638,3504,0,1712,0,0,0,0,0,0,0,0,0,1.405,3.529,9.1,0.184,0.067,-0.065,-3.421,-12.651,19.613,4.683,-1.72,-0.727,happy
5.23,3015,4095,3795,2768,3439,0,1229,0,0,0,0,0,0,0,0,0,1.111,3.704,9.347,0.234,0.069,-0.057,-5.262,-19.565,15.878,4.288,-2.68,-0.776,happy
5.24,3259,4095,3825,2890,3270,0,674,0,0,0,92,1,0,0,0,37,1.077,3.917,9.033,0.322,0.042,-0.115,-3.948,-19.613,7.623,3.561,-2.272,-1.061,happy
5.25,3408,4095,3863,2997,2631,0,262,0,0,2557,0,2669,0,0,0,3510,1.721,2.447,8.356,0.455,0.146,-0.069,-9.914,-19.613,-1.903,1.568,-1.334,-1.526,happy
5.26,3536,4047,3901,3055,2346,0,12,0,1579,2558,0,2505,2599,1683,1575,3111,1.314,3.745,8.93,0.709,0.207,0.16,-6.96,-19.613,-10.465,-0.359,-0.258,-1.739,happy
5.27,3666,4095,3922,3210,2149,0,0,0,1619,2543,0,2483,2575,1657,1561,3100,1.487,3.697,9.115,0.881,0.288,0.206,-12.538,-19.613,-15.289,-2.125,1.836,-0.709,happy
5.28,3792,4095,3938,3295,1846,0,0,0,0,0,0,0,0,0,0,327,1.204,3.615,9.424,1.211,0.358,0.255,-0.548,7.151,19.613,-1.154,0.462,0.279,happy
5.29,3836,4095,3939,3311,1680,0,0,0,0,0,0,0,0,0,38,1159,1.298,3.809,9.529,1.589,0.516,0.307,2.497,4.664,-3.797,-2.867,-0.036,0.539,happy
5.3,3883,4095,3920,3350,1435,0,0,0,0,0,0,0,0,0,0,1561,1.654,3.764,9.843,1.931,0.602,0.359,-4.657,-9.4,17.38,-2.929,0.703,0.473,happy
5.31,3917,4095,3902,3315,1113,0,0,0,0,0,0,0,0,5,363,2315,2.219,3.936,9.797,2.363,0.691,0.45,-5.897,-6.407,16.252,-2.363,-0.049,0.366,happy
5.32,3950,3574,3777,2718,607,0,0,0,0,0,0,0,0,0,1443,3279,2.66,2.658,9.895,3.39,0.855,0.44,-8.305,-10.051,19.613,-1.758,1.343,1.115,happy
5.33,3941,3130,3153,2143,0,0,0,0,18,0,0,0,419,0,2137,3590,-0.393,2.804,12.826,4.899,0.309,-0.609,1.262,-6.85,9.163,-1.772,0.896,0.248,happy
5.34,3728,2089,1299,1120,0,0,0,0,54,0,0,0,1359,0,2779,3893,3.639,6.364,15.206,6.867,-0.344,-1.913,1.015,-4.503,10.575,-1.091,0.527,0.304,happy
5.35,2117,639,0,0,0,0,0,0,69,463,23,291,2053,3,3109,3989,2.174,8.483,14.83,8.259,-0.779,-3.068,1.305,-2.954,9.519,-0.436,-0.036,0.06,happy
5.36,554,0,0,0,0,0,0,0,99,849,2,412,2341,3,3197,4011,-1.762,14.868,19.613,4.492,-2.066,-2.73,1.171,-3.481,10.01,-0.219,-0.135,0.069,happy
5.37,0,0,0,0,0,0,0,0,72,1189,1737,773,2733,23,3431,4031,15.028,9.883,14.224,0.172,-0.493,-3.026,1.393,-2.856,9.639,-0.164,-0.104,0.039,happy
5.38,0,0,0,0,0,0,0,0,101,1641,2055,1125,3091,23,3564,4047,10.01,0.522,7.47,-1.142,0.327,-1.656,1.695,-3.484,9.699,-0.104,-0.019,0.064,happy
5.39,0,0,0,0,0,0,0,0,77,1821,2111,1187,3181,23,3591,4025,8.092,-0.043,8.478,-1.685,-0.862,-0.218,1.585,-3.249,9.452,-0.14,-0.095,-0.002,happy
5.4,0,0,0,0,0,0,0,0,88,2207,2147,1421,3321,23,3573,3965,7.386,1.398,10.381,-2.705,-0.933,1.158,1.202,-3.084,9.369,-0.169,-0.194,-0.014,happy
5.41,0,0,0,0,0,0,0,0,139,2315,2188,1467,3416,29,3512,3884,3.754,2.322,8.667,-3.76,-0.603,2.027,1.243,-3.8,9.79,-0.066,-0.035,0.055,happy
5.42,0,0,0,0,0,0,0,0,164,2419,2193,1599,3447,0,3485,3846,0.151,2.753,7.247,-4.06,-0.928,2.11,1.511,-3.254,9.33,-0.038,-0.03,0.058,happy
5.43,0,0,0,0,0,0,0,0,148,2510,2216,1673,3491,37,3357,3743,-0.821,4.889,10.068,-4.235,-1.168,1.665,1.453,-3.347,9.407,-0.052,-0.02,0.029,happy
5.44,0,0,0,0,0,0,0,0,105,2581,2221,1829,3547,23,3144,3631,-0.316,7.714,12.275,-4.642,-1.261,1.244,1.496,-3.239,9.407,-0.014,0.003,0.064,happy
5.45,0,0,0,0,0,0,0,0,149,2649,2203,1837,3551,37,3053,3573,-0.294,9.898,13.259,-4.817,-1.409,1.168,1.551,-3.304,9.457,-0.036,0.015,0.077,happy
5.46,0,0,0,0,0,0,0,0,196,2715,2229,1957,3564,41,2957,3357,-0.704,11.633,14.202,-4.93,-1.588,1.131,1.583,-3.232,9.424,-0.061,0.03,0.091,happy
5.47,0,0,0,0,0,0,0,0,483,2823,2239,2175,3612,47,2901,3163,-1.137,13.412,15.493,-4.684,-1.604,0.976,1.48,-3.321,9.242,-0.074,0.01,0.086,happy
5.48,0,0,0,0,0,0,0,0,658,2911,2188,2251,3660,51,2891,3000,0.752,16.314,14.159,-4.418,-1.114,0.765,1.468,-3.452,9.237,-0.1,0.058,0.088,happy
5.49,0,0,0,0,0,0,0,0,1162,3096,2252,2348,3695,47,2653,2531,-0.275,17.945,10.353,-3.663,-0.959,0.907,1.647,-3.589,9.498,-0.22,0.154,0.077,happy
5.5,17,0,0,0,0,0,0,0,1699,3272,2265,2741,3764,47,2104,1957,-1.906,18.201,3.63,-2.695,-1.227,1.585,1.458,-3.539,9.347,-0.308,0.186,0.037,happy
5.51,59,0,0,0,100,0,0,0,1967,3295,2265,2789,3687,50,1866,1523,-5.571,19.613,-4.824,-1.382,-0.753,1.956,1.496,-3.531,9.29,-0.328,0.168,0.016,happy
5.52,74,0,0,0,99,0,0,0,2629,3405,2275,2988,3225,47,629,1351,-5.751,19.613,-11.372,1.435,0.277,1.536,2.282,-4.901,9.615,0.122,0.215,0.078,happy
5.53,0,0,0,0,16,0,0,0,3027,3492,2282,3214,2851,16,53,722,-1.468,8.736,5.99,2.43,1.719,0.075,1.369,-4.065,8.581,-0.808,0.141,-0.147,happy
5.54,0,0,0,0,139,0,0,0,3198,3530,2305,3293,2582,5,6,677,3.065,2.708,19.613,1.365,1.089,0.414,1.53,-3.531,9.139,-0.624,0.155,-0.094,happy
5.55,0,0,0,0,346,0,499,643,3303,3531,2321,3345,2212,6,3,665,0.086,-8.871,3.505,2.052,0.294,0.526,1.808,-3.982,9.512,-0.598,0.172,-0.073,happy
5.56,0,0,0,0,556,0,1133,2637,3411,3479,2316,3369,1624,4,3,582,-7.87,5.794,15.603,3.437,-0.456,-0.891,1.647,-3.239,9.613,-0.827,0.175,-0.085,happy
5.57,0,0,0,0,981,0,1941,3179,3623,3038,2367,3455,701,5,3,315,4.915,6.823,11.554,2.442,-0.544,-0.043,1.901,-2.543,9.859,-1.812,0.237,-0.238,happy
5.58,37,80,0,0,1703,0,2592,3287,3738,2521,2454,3419,200,5,1,181,2.581,7.192,6.812,1.134,1.797,-0.279,2.705,-2.993,10.06,-3.379,0.665,-0.321,happy
5.59,332,1574,0,0,2181,0,2832,3631,3768,2217,2480,3277,72,3,1,121,-0.22,3.625,11.351,0.67,1.628,-0.446,3.97,-2.301,10.403,-4.263,0.92,-0.293,happy
5.6,609,2399,0,0,2543,0,2967,3741,3677,1109,1671,2375,0,1,0,133,-0.163,3.625,11.514,0.657,1.201,-0.39,4.001,-6.105,12.519,-5.966,0.876,1.245,happy
5.61,855,2856,0,0,2731,0,3110,3623,2570,86,0,569,0,0,0,36,0.146,4.118,9.845,0.379,0.63,-0.33,5.873,-8.715,17.142,-6.591,1.201,3.385,happy
5.62,1200,3334,590,0,2833,0,3211,3809,2222,59,0,20,0,0,0,10,0.761,3.797,10.125,0.301,0.035,-0.386,3.23,-6.85,16.175,-6.703,0.924,3.514,happy
5.63,1339,3472,1741,29,3041,0,3291,3809,0,0,0,0,0,0,0,19,1.199,3.948,9.893,0.202,-0.03,-0.161,2.696,-5.468,19.613,-2.01,0.816,4.439,happy
5.64,1517,3460,2311,397,3200,0,3347,3634,0,0,0,0,0,0,36,2,1.209,3.448,9.388,0.231,0.093,0.077,10.827,6.45,14.437,1.631,-0.654,3.621,happy
5.65,1633,3505,2554,600,3242,0,3351,3605,5,0,0,0,0,2,0,5,1.07,3.63,9.524,0.181,0.077,-0.009,11.135,2.667,4.915,1.904,-0.273,2.591,happy
5.66,1745,3552,2704,752,3283,0,3329,3570,0,0,0,0,0,0,0,0,1.003,4.039,9.799,0.149,0.071,0.001,9.378,1.595,7.609,1.931,-0.884,1.433,happy
5.67,1838,3600,2821,912,3308,0,3310,3510,0,0,0,0,0,0,0,0,1.092,3.462,9.486,0.162,-0.009,-0.029,9.584,0.527,9.28,2.347,-1.447,0.164,happy
5.68,1919,3646,2941,1050,3348,0,3280,3417,0,0,0,0,0,0,0,0,1.101,3.438,9.4,0.168,-0.027,-0.023,8.133,0.168,9.668,2.87,-1.637,-0.787,happy
5.69,2066,3823,3085,1330,3417,0,3217,3378,0,0,0,0,0,0,0,0,1.111,3.587,9.369,0.189,-0.056,-0.03,3.898,0.292,8.918,3.316,-1.765,-1.427,happy
5.7,2202,3872,3199,1602,3423,0,3127,3169,0,0,0,0,0,0,0,0,1.171,3.56,9.299,0.166,-0.04,-0.025,-1.334,-1.446,8.892,3.826,-2.125,-1.344,happy
5.71,2314,3787,3319,1711,3446,0,3041,2762,0,0,0,0,0,0,0,0,1.12,3.589,9.256,0.125,0.01,0.032,-1.798,-3.474,11.389,4.199,-1.954,-0.79,happy
5.72,2420,3952,3424,1928,3462,0,2929,2605,0,0,0,26,0,0,0,0,1.089,3.546,9.227,0.125,-0.038,0.019,-0.812,-4.523,12.117,4.398,-1.998,-0.677,happy
5.73,2543,3984,3514,2124,3485,0,2834,2218,0,0,79,0,0,0,0,0,1.116,3.603,9.285,0.136,-0.041,0.001,1.065,-6.072,13.489,4.458,-2.045,-1.114,happy
5.74,2695,3898,3601,2174,3510,0,2732,1743,0,0,0,0,0,0,0,0,1.219,3.608,9.328,0.142,-0.015,-0.017,0.201,-7.997,17.818,4.462,-2.274,-1.665,happy
5.75,2866,4048,3664,2399,3535,0,2559,1362,0,0,0,0,0,0,0,0,1.211,3.563,9.256,0.164,-0.032,-0.018,-0.223,-9.457,19.094,4.469,-2.135,-1.693,happy
5.76,3005,4080,3714,2529,3547,0,2199,82,0,0,0,0,10,0,0,0,1.228,3.61,9.234,0.186,0.004,-0.009,-4.535,-16.13,19.613,4.129,-2.49,-1.838,happy
5.77,3169,3973,3773,2651,3494,0,1803,0,0,0,0,0,0,0,0,0,1.231,3.601,9.232,0.279,0.019,-0.032,-3.112,-19.613,7.355,3.629,-2.036,-2.201,happy
5.78,3120,3981,3647,2645,3280,0,1270,0,0,0,0,0,0,0,0,0,1.29,3.723,9.096,0.302,0.077,-0.022,-6.177,-19.613,-2.863,2.319,-1.442,-2.413,happy
5.79,3392,4095,3827,2922,2993,0,553,0,0,0,0,5,0,0,0,0,1.013,3.797,9.153,0.286,0.21,-0.047,-11.588,-19.613,-5.332,1.007,-1.289,-2.164,happy
5.8,3495,4095,3870,3030,2387,0,253,0,72,0,0,0,0,92,0,0,1.492,3.371,8.916,0.64,0.141,0.12,-8.013,-19.613,-5.782,-0.906,0.123,-1.645,happy
5.81,3628,4038,3911,3015,2132,0,0,0,0,0,0,0,0,0,0,0,1.276,3.883,9.419,0.819,0.261,0.198,7.877,-4.894,13.12,-2.266,2.141,-0.915,happy
5.82,3698,4095,3911,3188,1968,0,0,0,0,0,0,0,0,0,0,0,1.338,3.675,9.321,0.939,0.283,0.176,0.479,3.74,19.613,-1.584,0.736,-0.896,happy
5.83,3771,4059,3920,3136,1738,0,0,0,0,0,0,35,0,0,0,538,1.192,4.329,9.347,1.161,0.307,0.175,2.519,6.938,0.113,-2.713,0.296,-0.338,happy
5.84,3827,4095,3918,3263,1699,0,0,0,0,0,0,0,0,0,0,1214,1.393,4.065,9.199,1.44,0.382,0.216,-7.417,-2.653,12.182,-3.601,0.411,0.229,happy
5.85,3867,4014,3919,3183,1507,0,0,0,0,13,0,0,0,0,0,1973,1.595,3.4,9.345,1.79,0.498,0.337,-9.639,-8.375,17.916,-3.093,-0.089,0.219,happy
5.86,3901,3937,3886,3149,1291,0,0,0,5,0,0,0,5,0,349,2669,2.662,3.428,9.325,2.189,0.697,0.433,-3.479,-2.981,12.713,-2.849,-0.492,0.557,happy
5.87,3922,3526,3773,2608,436,0,0,0,0,0,0,0,7,0,823,3165,2.315,2.909,10.743,3.147,0.915,0.427,3.508,-5.133,11.71,-2.799,-0.723,0.38,happy
5.88,3945,3248,3561,2256,0,0,0,0,0,0,0,0,31,0,1653,3559,0.936,3.74,12.431,3.954,0.471,0.107,19.613,-15.263,14.748,-2.993,1.909,0.372,happy
5.89,3910,2512,2131,1750,0,0,0,0,31,11,0,0,759,0,2701,3784,0.558,8.193,19.613,5.969,-0.018,-1.098,-1.008,-4.487,14.593,-0.348,1.2,0.707,happy
5.9,3089,1310,0,274,0,0,0,0,85,339,0,0,1622,0,3167,4019,1.456,6.376,14.564,6.968,0.671,-2.426,1.032,-5.136,12.584,-0.333,0.73,0.399,happy
5.91,1818,0,0,0,0,0,0,0,63,429,0,0,1885,0,3232,4055,0.223,7.654,13.793,7.79,0.067,-3.04,1.753,-3.745,10.532,-0.27,0.569,0.289,happy
5.92,1141,0,0,0,0,0,0,0,108,491,0,0,2101,0,3301,4083,-2.713,16.142,19.613,5.431,-0.924,-2.457,1.281,-3.666,10.831,-0.226,0.405,0.17,happy
5.93,0,0,0,0,0,0,0,0,158,501,2,159,2266,38,3391,4095,5.126,4.427,19.613,0.784,-0.965,-3.293,1.152,-3.646,10.254,-0.085,0.351,0.213,happy
5.94,0,0,0,0,0,0,0,0,151,767,2,363,2383,0,3481,4076,11.914,5.404,14.468,-1.071,-0.525,-2.022,1.197,-3.316,9.778,-0.044,0.338,0.191,happy
5.95,0,0,0,0,0,0,0,0,179,973,2,595,2520,1,3519,4095,5.14,-2.21,7.714,-0.922,0.38,-1.776,1.798,-3.371,9.634,-0.096,0.162,0.124,happy
5.96,0,0,0,0,0,0,0,0,156,991,1174,852,2587,37,3560,4095,4.281,-2.502,7.865,-1.373,-0.478,-1.278,1.659,-3.326,9.464,-0.119,0.124,0.068,happy
5.97,0,0,0,0,0,0,0,0,150,1419,1686,1159,2781,34,3609,4095,6.859,-0.199,9.383,-2.067,-1.719,-0.311,0.886,-2.885,9.524,-0.128,0.038,-0.003,happy
5.98,0,0,0,0,0,0,0,0,271,1613,2003,1275,2901,9,3593,4071,4.752,2.014,10.484,-3.104,-1.229,0.793,1.322,-3.211,9.596,-0.069,-0.042,-0.001,happy
5.99,0,0,0,0,0,0,0,0,135,1720,2039,1407,2973,35,3571,4045,0.781,2.428,8.234,-3.819,-1.393,1.106,1.367,-3.309,9.503,-0.046,-0.024,-0.003,happy
6,0,0,0,0,0,0,0,0,119,2035,2178,1589,3083,0,3525,3982,-0.034,3.488,8.38,-4.058,-1.601,0.828,1.441,-3.268,9.39,-0.032,-0.041,-0.034,happy
6.01,0,0,0,0,0,0,0,0,73,2212,2126,1623,3212,31,3471,3913,-0.845,5.698,11.317,-4.3,-1.814,0.564,1.257,-3.34,9.373,-0.032,-0.066,-0.006,happy
6.02,0,0,0,0,0,0,0,0,153,2277,2321,1618,3236,87,3452,3877,-0.189,7.863,12.213,-4.609,-1.994,0.452,1.374,-3.326,9.397,-0.002,-0.039,0.023,happy
6.03,0,0,0,0,0,0,0,0,126,2445,2185,1759,3321,33,3419,3816,-0.721,9.34,13.044,-4.579,-2.167,0.599,1.389,-3.12,9.246,-0.041,-0.049,0.034,happy
6.04,0,0,0,0,0,0,0,0,298,2549,2198,1967,3419,37,3311,3739,0.266,12.289,15.419,-4.448,-2.155,0.875,1.554,-3.211,9.421,-0.059,-0.003,0.071,happy
6.05,0,0,0,0,0,0,0,0,329,2633,2218,2040,3466,47,3220,3691,-1.549,14.2,16.893,-4.27,-1.971,1.196,1.532,-3.247,9.318,-0.069,0.006,0.083,happy
6.06,0,0,0,0,0,0,0,0,670,2807,2239,2315,3539,50,3133,3560,-1.705,17.597,14.854,-4.069,-1.83,1.199,1.477,-3.273,9.361,-0.105,0.01,0.085,happy
6.07,0,0,0,0,0,0,0,0,1099,2979,2249,2531,3608,25,2941,3321,-1.269,17.028,5.878,-3.324,-1.297,1.419,1.46,-3.314,9.4,-0.173,0.047,0.06,happy
6.08,0,0,0,0,0,0,0,0,1203,3039,2249,2645,3603,59,2751,3169,-7.628,16.989,0.84,-1.835,-1.333,2.014,1.444,-3.287,9.323,-0.186,0.035,0.052,happy
6.09,64,0,0,0,129,0,0,0,1737,3183,2275,2791,3616,44,2340,2088,-7.367,19.613,-8.823,-0.472,-0.097,2.158,1.812,-2.346,10.721,-0.509,0.06,0.05,happy
6.1,22,0,0,0,3,0,0,0,2223,3336,2267,2937,3171,51,942,1466,-7.475,12.838,-1.626,1.413,0.551,0.766,1.731,-4.094,9.589,-0.313,0.193,-0.005,happy
6.11,0,0,0,0,32,0,0,0,2429,3371,2270,3027,2957,37,139,1325,-1.621,4.87,19.613,1.39,1.332,0.354,1.355,-3.316,9.278,-0.164,0.22,0.065,happy
6.12,0,0,0,0,157,0,413,450,2853,3453,2275,3197,2419,5,10,711,-0.979,-3.749,3.354,2.16,0.557,0.205,1.044,-4.743,9.129,-0.588,0.097,-0.098,happy
6.13,0,0,0,0,422,0,983,2341,3287,3333,2326,3308,1286,7,3,633,-2.454,3.867,13.252,3.065,-0.185,-0.44,0.984,-3.203,8.882,-0.725,0.123,-0.065,happy
6.14,0,0,0,0,811,0,1748,3168,3437,3005,2075,3373,671,4,10,521,3.448,6.223,11.202,2.605,-0.261,0.086,1.396,-2.966,9.627,-1.111,0.273,-0.198,happy
6.15,0,0,0,0,1591,0,2535,3472,3655,2675,2344,3309,217,5,4,297,6.9,12.51,15.103,1.359,1.122,-0.363,2.619,-2.672,9.764,-2.552,0.512,-0.404,happy
6.16,144,1312,0,0,2141,0,2832,3620,3704,1736,2436,3103,29,0,0,141,-1.003,4.633,12.984,0.633,1.41,-0.434,2.796,-2.411,11.162,-3.974,1.185,-0.368,happy
6.17,432,2142,0,0,2384,0,3021,3686,3640,1017,2354,2681,0,4,0,111,1.07,4.896,11.147,0.462,1.095,-0.337,0.263,-1.982,12.629,-4.606,1.471,0.392,happy
6.18,673,2655,0,0,2667,0,3094,3792,2876,0,0,1117,0,0,0,63,0.45,3.728,10.779,0.247,0.929,-0.448,2.31,-4.19,15.694,-5.714,1.498,2.609,happy
6.19,944,2987,0,0,2755,0,3183,3827,1397,0,0,2,0,0,0,27,1.07,3.057,10.214,0.177,0.482,-0.337,2.818,-8.167,15.151,-6.025,1.65,3.624,happy
6.2,979,3131,35,0,2826,0,3248,3847,763,0,0,0,0,0,0,0,1.063,3.172,9.62,0.205,0.171,-0.191,-0.917,-10.855,12.73,-4.541,1.974,3.616,happy
6.21,1058,3246,723,0,2890,0,3309,3855,0,0,0,0,0,0,0,0,1.171,3.294,9.773,0.153,0.078,-0.075,-1.846,-4.429,19.613,-1.789,1.097,3.946,happy
6.22,1086,3197,1204,0,2845,0,3321,3715,0,35,0,0,0,0,0,0,1.446,3.491,9.56,0.156,0.117,-0.018,-3.172,-7.779,19.613,0.363,-0.065,3.656,happy
6.23,1200,3383,1627,0,3031,0,3376,3857,0,0,0,0,0,0,0,0,1.137,3.215,9.469,0.136,0.14,-0.025,9.029,5.432,12.682,1.416,-0.631,3.361,happy
6.24,1262,3442,1889,71,3085,0,3382,3835,0,10,0,57,0,0,0,0,1.118,3.364,9.527,0.163,0.128,-0.035,10.803,2.167,6.345,1.499,-0.35,2.167,happy
6.25,1265,3483,2183,261,3149,0,3379,3819,0,0,0,0,0,0,0,0,1.032,3.285,9.61,0.181,0.112,-0.026,9.29,0.541,7.738,1.707,-0.707,0.932,happy
6.26,1336,3517,2381,532,3213,0,3365,3776,6,0,0,7,0,0,0,0,0.986,3.424,9.615,0.184,0.029,-0.055,8.689,-0.11,10.599,2.147,-1.39,-0.294,happy
6.27,1456,3574,2615,738,3287,0,3333,3687,0,0,0,0,0,0,0,0,1.034,3.378,9.527,0.16,-0.017,-0.041,6.565,-0.977,11.114,2.744,-1.782,-1.246,happy
6.28,1535,3607,2742,818,3315,0,3313,3562,0,0,0,0,0,0,0,0,1.106,3.259,9.409,0.156,-0.043,-0.028,-1.987,-0.613,7.503,3.467,-2.148,-1.394,happy
6.29,1692,3695,2904,1063,3391,0,3271,3447,0,0,0,0,0,0,0,0,1.094,3.33,9.325,0.213,-0.051,-0.024,-0.761,-2.339,8.871,3.617,-1.776,-0.578,happy
6.3,1839,3744,3011,1246,3439,0,3235,3334,0,0,0,0,0,0,0,0,0.994,3.467,9.388,0.172,-0.08,-0.023,-0.532,-3.426,10.508,3.8,-1.77,-0.431,happy
6.31,1911,3799,3139,1483,3475,0,3222,3216,0,4,0,0,0,0,0,0,1.173,3.512,9.206,0.113,-0.071,-0.013,1.712,-4.666,10.317,3.89,-1.894,-0.813,happy
6.32,2006,3838,3223,1666,3519,0,3215,3120,0,0,0,0,0,0,0,0,1.223,3.321,9.232,0.155,-0.076,-0.02,0.342,-5.586,13.283,3.69,-2.09,-1.426,happy
6.33,2128,3888,3337,1865,3578,0,3175,2994,0,0,0,0,0,0,0,0,1.207,3.397,9.261,0.2,-0.087,-0.03,0.563,-6.141,14.638,3.686,-1.921,-1.501,happy
6.34,2290,3939,3422,2047,3632,0,3130,2812,0,3,0,0,0,0,0,0,1.104,3.615,9.323,0.216,-0.105,-0.009,-0.721,-8.961,16.692,3.45,-1.494,-1.678,happy
6.35,2455,3984,3503,2185,3666,0,3039,2430,0,0,0,0,0,0,0,0,1.226,3.338,9.299,0.249,-0.092,-0.022,-3.46,-15.725,17.87,2.912,-2.187,-1.969,happy
6.36,2621,4027,3583,2282,3697,0,2911,1776,0,0,0,0,0,0,0,0,1.31,3.699,9.354,0.281,-0.106,-0.052,-1.331,-19.055,14.574,2.705,-2.046,-2.077,happy
6.37,2803,4063,3649,2401,3706,0,2642,215,0,0,0,0,0,5,0,0,1.417,3.579,9.191,0.313,-0.067,-0.018,-5.344,-19.613,2.459,1.935,-1.248,-2.188,happy
6.38,2983,4095,3711,2527,3650,0,2161,0,1577,2547,0,2487,2577,1668,1591,3101,1.274,3.812,9.278,0.349,-0.023,-0.006,-8.145,-19.613,-1.676,0.5,-1.268,-1.442,happy
6.39,3130,4095,3762,2622,3456,0,1286,0,1581,2570,0,2505,2603,1727,1635,3131,1.381,3.668,9.28,0.436,0.021,-0.025,-5.339,-18.246,-3.577,-0.314,-0.332,-1.298,happy
6.4,3275,4095,3799,2697,2722,0,368,0,0,0,0,0,0,0,0,0,1.516,3.421,9.256,0.569,0.074,-0.028,0.766,-4.731,1.848,-2.041,1.723,-0.737,happy
6.41,3351,4095,3824,2752,2459,0,381,0,0,0,0,0,0,0,0,0,2.143,2.265,8.641,0.807,0.146,0.059,4.736,-2.435,19.613,-1.465,1.561,-0.929,happy
6.42,3446,4095,3834,2826,2234,0,279,0,0,0,0,0,0,10,0,0,1.755,3.814,8.94,0.994,0.13,0.122,1.58,4.594,10.242,-1.35,0.363,-1.151,happy
6.43,3536,4095,3851,2881,2128,0,66,0,0,0,0,0,0,0,0,627,1.563,3.922,9.014,1.087,0.231,0.159,-4.901,4.855,2.682,-2.463,0.553,-0.244,happy
6.44,3629,4095,3869,2914,1920,0,0,0,0,0,0,0,0,0,0,1269,1.59,4.453,9.175,1.156,0.265,0.133,-9.479,-4.044,19.151,-2.779,0.52,0.473,happy
6.45,3699,4095,3870,2927,1744,0,0,0,0,0,0,0,0,0,303,1840,1.544,4.331,9.311,1.343,0.356,0.15,-5.016,-8.363,16.321,-2.17,0.134,0.599,happy
6.46,3766,4095,3861,2919,1616,0,0,0,0,0,0,3,0,0,505,2525,1.267,3.515,9.538,1.702,0.605,0.236,3.165,-3.297,9.984,-2,-0.235,0.371,happy
6.47,3825,4080,3845,2787,1441,0,0,0,0,0,135,0,0,21,1177,2937,2.504,3.218,9.881,2.125,0.659,0.326,2.028,-4.525,11.334,-1.881,-0.817,0.106,happy
6.48,3895,3561,3670,2239,752,0,0,0,0,0,0,0,595,0,2317,3610,1.982,3.385,11.049,2.925,0.888,0.302,2.531,-3.445,11.588,-0.707,1.153,0.549,happy
6.49,3906,2765,2884,1758,0,0,0,0,3,0,0,0,949,0,2336,3337,1.403,3.256,9.804,4.325,0.608,-0.443,0.505,-3.529,10.41,-0.582,0.752,0.294,happy
6.5,3847,2047,1501,1038,0,0,0,0,31,181,0,5,1531,0,2761,3837,2.203,5.148,15.213,5.191,0.322,-1.164,-0.074,-3.038,12,-0.575,0.61,0.383,happy
6.51,2995,867,0,0,0,0,0,0,29,466,0,2,2131,0,3083,4052,1.733,5.926,14.811,6.439,0.261,-2.42,1.647,-3.529,10.139,-0.346,0.129,0.11,happy
6.52,2201,0,0,0,0,0,0,0,21,429,0,12,2299,0,3239,4003,0.826,9.414,12.404,6.676,0.108,-2.782,1.484,-3.354,10.235,-0.169,0.107,0.101,happy
6.53,1310,0,0,0,0,0,0,0,18,745,0,0,2469,0,3338,4055,-4.283,15.479,19.613,4.159,-0.241,-2.647,1.185,-3.383,10.223,-0.058,0.072,0.059,happy
6.54,227,0,0,0,0,0,0,0,16,959,0,0,2619,0,3437,4073,-0.67,0.385,19.613,0.52,-0.512,-3.817,1.338,-3.685,9.701,-0.013,0.045,0.034,happy
6.55,45,0,0,0,0,0,0,0,18,1037,0,0,2787,0,3547,4095,10.525,6.232,10.367,-0.21,-0.459,-2.89,1.563,-3.364,9.807,0.06,-0.011,0.006,happy
6.56,12,0,0,0,0,0,0,0,17,1140,51,6,2893,0,3621,4095,6.055,-0.814,10.592,-0.954,-0.047,-2.823,1.791,-3.273,9.548,0.074,-0.039,-0.048,happy
6.57,74,0,0,0,0,0,0,0,16,1173,0,27,2965,0,3676,4095,7.262,-1.264,7.676,-1.585,-0.634,-2.294,1.635,-2.899,9.388,0.082,-0.074,-0.09,happy
6.58,50,0,0,0,0,0,0,0,18,1171,0,47,3033,0,3708,4095,8.03,-0.67,7.106,-1.661,-1.355,-1.478,1.537,-2.737,9.395,0.026,-0.027,-0.116,happy
6.59,0,0,0,0,0,0,0,0,18,1179,0,0,3100,0,3743,4095,7.506,-0.187,7.882,-2.001,-1.58,-0.62,1.583,-2.804,9.354,0.07,0.001,-0.041,happy
6.6,0,0,0,0,0,0,0,0,30,1253,0,0,3147,0,3757,4095,6.809,0.903,8.672,-2.377,-1.628,0.269,1.556,-2.885,9.34,0.054,0.018,-0.032,happy
6.61,0,0,0,0,0,0,0,0,13,1261,0,151,3196,0,3811,4095,4.008,1.334,8.753,-2.73,-1.602,0.788,1.578,-2.828,9.457,0.009,0.054,-0.026,happy
6.62,0,0,0,0,0,0,0,0,19,1235,0,155,3229,0,3787,4073,2.188,1.951,8.535,-3.121,-1.63,1.051,1.561,-2.935,9.424,0.02,0.113,-0.003,happy
6.63,0,0,0,0,0,0,0,0,21,1305,1057,158,3261,7,3773,4076,0.498,2.203,8.317,-3.19,-1.673,0.985,1.618,-2.804,9.448,-0.009,0.081,0.001,happy
6.64,0,0,0,0,0,0,0,0,20,1271,1179,227,3305,6,3772,4024,-1.674,3.036,9.649,-3.31,-1.819,0.838,1.506,-2.89,9.361,-0.053,0.065,0.027,happy
6.65,0,0,0,0,0,0,0,0,28,1447,1425,297,3339,9,3783,4003,-2.207,4.444,10.59,-3.544,-2.064,0.509,1.434,-2.976,9.524,-0.061,0.066,0.052,happy
6.66,0,0,0,0,0,0,0,0,20,1509,1686,361,3375,11,3775,3996,-2.385,5.289,10.934,-3.671,-2.121,0.237,1.456,-2.969,9.579,-0.067,0.054,0.091,happy
6.67,0,0,0,0,0,0,0,0,22,1895,1881,533,3455,7,3787,3951,-4.484,7.003,12.277,-3.818,-2.498,-0.375,1.611,-2.856,9.385,-0.115,0.026,0.118,happy
6.68,0,0,0,0,0,0,0,0,25,1903,1881,533,3500,19,3791,3926,-6.215,8.38,12.4,-3.854,-2.661,-1.198,1.547,-3.024,9.424,-0.132,0.005,0.119,happy
6.69,0,0,0,0,0,0,0,0,24,2291,2027,550,3588,10,3875,3747,-9.043,11.207,13.57,-3.466,-2.879,-2.165,1.623,-2.914,9.335,-0.141,0.02,0.145,happy
6.7,0,0,0,0,0,0,0,0,44,2456,2147,743,3645,13,3773,3831,-11.258,12.601,9.859,-2.802,-4.144,-2.917,1.609,-3.055,9.328,-0.201,0.042,0.197,happy
6.71,0,0,0,0,0,0,0,0,92,2549,2160,951,3683,21,3755,3795,-10.958,12.577,4.8,-1.712,-3.981,-3.158,1.472,-3.081,9.457,-0.246,0.033,0.238,happy
6.72,0,0,0,0,0,0,0,0,216,2663,2198,1371,3733,43,3631,3695,-6.347,13.901,4.027,-0.571,-2.476,-2.551,1.712,-3.656,9.39,-0.306,0.02,0.209,happy
6.73,0,0,0,0,0,0,0,0,605,2763,2234,1991,3773,47,3384,3555,-1.676,15.502,3.381,-0.092,0.055,-1.363,1.626,-3.055,9.069,-0.269,0.048,0.152,happy
6.74,0,0,0,0,0,0,0,0,669,2873,2247,2203,3788,49,3133,3385,19.613,19.4,4.645,1.978,0.183,-0.234,1.451,-3.62,9.639,-0.27,0.074,0.093,happy
6.75,0,64,0,0,454,0,0,0,1015,3017,2265,2549,3759,56,2610,2591,-6.953,5.871,19.613,-0.437,3.545,-0.347,1.528,-3.658,9.663,-0.315,0.101,0.048,happy
6.76,0,734,0,0,1158,0,327,0,1845,3165,2275,2797,3601,47,1544,1572,0.757,-2.787,2.796,0.555,2.456,-0.59,1.448,-3.654,9.266,-0.391,0.099,-0.022,happy
6.77,0,1781,0,0,1421,0,893,0,2094,3217,2275,2931,3337,48,594,1371,-0.362,5.174,9.601,0.481,1.186,-0.432,1.487,-4.032,9.481,-0.297,0.225,-0.001,happy
6.78,164,2256,0,0,1819,0,1280,705,2517,3230,2280,3127,2095,20,5,765,-3.548,1.7,8.808,0.626,0.089,-0.279,0.955,-4.42,8.787,-0.999,0.27,-0.239,happy
6.79,534,2701,790,130,2160,0,1615,1905,2919,2857,2311,3247,761,6,4,723,-0.354,4.391,11.09,0.377,-0.108,-0.196,1.075,-4.472,9.948,-1.262,0.588,-0.26,happy
6.8,1088,2979,1755,733,2384,0,2076,2614,3015,2602,2305,3307,165,17,1,597,0.397,3.05,9.474,0.363,-0.197,-0.195,1.199,-3.328,10.053,-1.685,0.619,-0.289,happy
6.81,1701,3154,2320,1257,2512,0,2442,2963,3236,2031,2428,3283,0,0,0,269,0.886,3.587,9.603,0.292,-0.138,0.03,1.686,-3.385,10.7,-2.743,0.847,-0.501,happy
6.82,2191,3291,2652,1782,2677,0,2658,3173,3107,726,2354,2851,0,0,0,151,0.936,3.689,9.493,0.218,-0.061,0.02,1.08,-1.683,12.627,-3.991,1.494,-0.137,happy
6.83,2507,3401,2861,2128,2827,0,2857,3333,2840,207,1100,2365,3,0,0,38,0.927,3.548,9.244,0.132,-0.034,-0.013,3.699,-4.626,12.615,-5.044,1.486,0.581,happy
6.84,2767,3487,2990,2361,2899,0,2993,3454,1722,0,12,567,0,0,0,0,0.915,3.421,9.325,0.131,-0.098,0.018,4.353,-7.889,13.587,-5.221,2.173,1.939,happy
6.85,2928,3549,3071,2491,3015,0,3095,3536,636,0,0,0,0,0,0,0,1.039,3.534,9.404,0.1,-0.087,0.03,-2.816,-8.133,10.623,-2.939,2.928,1.429,happy
6.86,3040,3619,3198,2632,3047,432,3160,3575,0,0,0,0,0,0,0,0,0.991,3.527,9.407,0.095,-0.021,0.018,-2.713,-2.365,19.613,-1.042,1.955,1.577,happy
6.87,3111,3679,3263,2704,3094,688,3216,3603,0,0,7,0,0,0,0,0,1.039,3.541,9.376,0.097,-0.012,0.003,4.611,4.178,11.042,1.157,1.464,0.593,happy
6.88,3137,3710,3297,2751,3120,625,3235,3574,0,0,0,0,0,0,0,0,1.135,3.594,9.373,0.106,-0.03,-0.011,3.658,1.647,6.697,1.551,1.098,-0.718,happy
6.89,3191,3733,3338,2793,3107,400,3233,3525,0,0,0,0,3,0,0,0,1.08,3.575,9.27,0.117,-0.002,-0.01,4.221,0.682,8.186,1.842,0.732,-1.375,happy
6.9,3193,3741,3309,2773,3094,134,3184,3459,0,0,0,0,0,0,0,0,1.027,3.412,9.177,0.119,-0.015,-0.024,1.197,-1.137,8.832,2.832,0.402,-2.003,happy
6.91,3215,3777,3362,2773,3126,108,3215,3453,34,0,0,0,0,0,0,0,1.154,3.666,9.292,0.079,-0.007,-0.033,2.43,-2.629,7.278,3.271,0.889,-1.869,happy
6.92,3181,3769,3360,2746,3102,102,3230,3434,0,0,0,0,0,8,0,0,1.132,3.567,9.249,0.074,-0.006,-0.042,3.637,-3.713,8.657,3.403,1.059,-1.965,happy
6.93,3216,3807,3349,2691,3172,27,3252,3475,0,0,0,0,0,0,0,0,1.104,3.601,9.261,0.074,-0.034,-0.074,9.23,-6.847,9.122,3.747,1.262,-3.024,happy
6.94,3216,3760,3335,2613,3227,62,3275,3483,0,0,0,0,0,0,0,0,1.202,3.658,9.299,0.091,-0.058,-0.086,12.548,-9.943,7.278,3.549,1.43,-5.06,happy
6.95,3221,3809,3327,2535,3245,11,3295,3534,0,0,0,0,7,0,19,0,1.14,3.575,9.167,0.082,-0.039,-0.072,14.36,-12.869,7.973,3.149,1.437,-6.4,happy
6.96,3217,3815,3311,2448,3264,192,3326,3555,0,0,0,0,0,0,0,0,1.183,3.61,9.321,0.088,-0.044,-0.059,12.313,-19.613,5.231,2.228,2.099,-8.731,happy
6.97,3205,3769,3296,2349,3331,214,3352,3583,47,0,0,0,0,0,0,0,1.07,3.632,9.254,0.096,-0.045,-0.063,4.518,-19.613,2.006,0.5,1.962,-8.731,happy
6.98,3184,3792,3257,2194,3326,112,3371,3603,0,0,0,0,0,0,0,0,1.061,3.699,9.309,0.123,-0.046,-0.056,3.594,-19.613,1.137,-0.135,2.082,-7.712,happy
6.99,3125,3773,3195,1851,3306,117,3384,3583,0,0,0,0,0,0,0,0,1.381,3.682,9.292,0.114,-0.033,-0.072,-0.953,-13.393,2.035,-0.929,-0.288,-4.282,happy
7,3049,3772,3021,1498,3280,0,3362,3562,1581,2696,0,2509,2586,1659,1578,3142,1.417,3.725,9.285,0.104,-0.03,-0.088,-13.278,-16.568,14.724,-1.094,0.606,-0.145,happy
7.01,2943,3767,2915,1151,3191,0,3318,3495,1579,2548,0,2487,2580,1671,1563,3087,1.276,3.668,9.213,0.127,0.023,-0.051,10.381,-7.755,6.644,1.973,1.314,0.892,happy
7.02,2770,3741,2770,671,3141,0,3227,3323,101,9,1103,483,777,0,534,2,1.475,3.982,9.342,0.1,0.046,-0.076,0.895,-4.843,9.651,-0.817,-0.455,0.354,happy
7.03,2477,3672,2480,375,3091,0,3008,2911,203,1087,1781,1021,1431,41,1379,1335,1.12,3.675,9.361,0.137,0.075,-0.114,0.563,-2.054,9.797,0.095,0.104,-0.073,happy
7.04,2031,3583,1917,14,2914,0,2559,2443,237,1311,2001,1041,1753,41,1835,2066,0.886,3.812,9.476,0.135,0.108,-0.12,1.63,-3.869,9.601,-0.07,-0.02,-0.095,happy
7.05,1612,3351,880,0,2559,0,1778,1808,229,1771,2039,943,2511,46,2539,2898,1.063,3.946,9.541,0.167,0.144,-0.191,1.688,-2.938,9.134,0.038,-0.191,-0.072,happy
7.06,954,2960,0,0,1639,0,726,848,201,2118,2075,764,2892,45,2853,3340,-1.422,3.855,10.575,-0.046,-0.006,-0.341,1.46,-3.39,9.364,0.039,-0.157,-0.042,happy
7.07,537,2146,0,0,1134,0,307,0,248,2095,2060,596,2975,46,2982,3437,-4.537,2.823,14.65,-0.576,-0.948,-0.977,1.381,-3.563,9.5,0.107,-0.084,-0.021,happy
7.08,210,156,0,0,734,0,0,0,147,2204,2078,647,3175,9,3271,3641,-17.978,3.905,10.041,-1.365,-2.447,-3.709,2.088,-3.026,9.673,0.179,0.001,-0.075,happy
7.09,121,0,0,0,347,0,0,0,135,2413,2088,688,3255,30,3477,3744,-11.727,18.143,16.673,-2.632,-3.632,-7.755,1.781,-3.067,9.258,-0.004,-0.005,-0.056,happy
7.1,121,0,0,0,238,0,0,0,155,2413,2106,831,3251,38,3563,3820,-3.079,13.757,3.39,-3.069,-2.458,-8.701,1.657,-3.055,9.436,0.002,0.063,-0.004,happy
7.11,92,0,0,0,199,0,0,0,125,2357,2103,1061,3220,30,3559,3871,-2.03,16.381,3.783,-2.429,-3.074,-8.731,1.508,-3.213,9.448,-0.037,0.099,0.036,happy
7.12,47,0,0,0,150,0,0,0,123,2323,2103,1229,3087,31,3515,3883,2.521,14.957,2.346,-2.232,-2.951,-8.648,1.367,-3.242,9.56,-0.053,0.084,0.009,happy
7.13,0,0,0,0,0,0,0,0,120,2295,2111,1317,3004,22,3495,3895,3.352,13.532,2.916,-1.293,-2.09,-6.818,1.298,-3.366,9.443,-0.029,0.073,0.004,happy
7.14,0,0,0,0,0,0,0,0,91,2198,2114,1415,2991,24,3509,3917,5.442,10.764,3.347,-0.778,-1.079,-5.329,1.358,-3.342,9.479,0.026,0.066,-0.014,happy
7.15,0,0,0,0,0,0,0,0,35,2199,2167,1307,3003,20,3477,3909,5.133,8.258,5.066,-0.138,-0.16,-3.559,1.437,-3.23,9.373,0.032,0.063,-0.008,happy
7.16,0,0,0,0,0,0,0,0,39,2091,2152,1215,3019,11,3483,3913,5.387,6.845,6.814,0.256,0.38,-2.271,1.362,-3.29,9.438,0.044,0.063,-0.029,happy
7.17,0,0,0,0,0,0,0,0,29,2075,2121,1105,2990,10,3477,3929,4.786,5.655,7.973,0.359,0.661,-1.713,1.348,-3.201,9.483,0.052,0.055,-0.028,happy
7.18,0,0,0,0,0,0,0,0,37,2079,2124,1113,2975,9,3495,3935,3.824,4.341,8.605,0.436,0.761,-1.232,1.324,-3.263,9.491,0.061,0.074,-0.009,happy
7.19,0,0,0,0,0,0,0,0,29,2043,2060,1071,2987,8,3480,3943,2.974,2.976,8.997,0.497,0.747,-0.909,1.427,-3.139,9.476,0.067,0.09,-0.01,happy
7.2,0,0,0,0,0,0,0,0,64,1897,2065,973,2975,14,3495,3941,2.306,1.896,9.831,0.565,0.751,-0.705,1.413,-3.249,9.39,0.038,0.058,-0.018,happy
7.21,0,0,0,0,0,0,0,0,27,1937,2142,1004,2999,9,3488,3960,1.183,1.262,11.246,0.519,0.695,-0.723,1.446,-3.218,9.385,0.051,0.08,-0.015,happy
7.22,0,0,0,0,0,0,0,0,53,1801,2126,971,2951,13,3499,3965,-0.29,0.754,12.39,0.377,0.508,-0.981,1.41,-3.134,9.428,0.041,0.108,-0.005,happy
7.23,0,0,0,0,0,0,0,0,6,1782,1996,1003,2917,36,3487,3979,-0.67,0.642,12.519,0.125,0.169,-1.488,1.326,-3.163,9.57,0.022,0.11,-0.015,happy
7.24,0,0,0,0,0,0,0,0,19,1736,1881,1055,2911,20,3496,3989,0.139,0.493,11.863,-0.061,-0.114,-2.04,1.298,-3.062,9.512,0.014,0.124,0.004,happy
7.25,0,0,0,0,0,0,0,0,37,1747,2144,1054,2871,11,3526,4003,2.205,1.427,10.748,-0.319,-0.274,-2.784,1.228,-3.194,9.481,-0.002,0.098,0.019,happy
7.26,0,0,0,0,0,0,0,0,43,1739,2116,1199,2811,11,3417,4009,4.025,2.94,10.288,-0.433,-0.545,-3.126,1.211,-3.172,9.443,-0.011,0.106,0.006,happy
7.27,0,0,0,0,0,0,0,0,42,1705,2121,1246,2804,11,3465,4060,5.847,4.355,9.445,-0.644,-0.711,-2.879,1.176,-3.261,9.481,-0.004,0.106,0.001,happy
7.28,0,0,0,0,0,0,0,0,40,1740,2101,1341,2759,9,3403,4028,6.653,4.793,7.132,-0.484,-0.698,-2.243,1.168,-3.184,9.503,-0.009,0.105,-0.01,happy
7.29,0,0,0,0,0,0,0,0,11,1709,2075,1391,2671,2,3343,4029,7.884,5.04,5.758,-0.131,-0.755,-1.417,1.18,-3.266,9.558,-0.008,0.089,-0.001,happy
7.3,0,0,0,0,0,0,0,0,17,1591,2067,1311,2643,6,3335,4031,13.64,3.895,9.471,0.36,-1.056,-0.762,1.164,-3.251,9.527,0.008,0.112,0.017,happy
7.31,0,0,0,0,0,0,0,0,9,1620,2047,1464,2532,3,3327,4056,13.115,0.251,7.537,0.692,-1.02,-0.187,1.243,-2.84,9.486,-0.009,0.116,0,happy
7.32,0,0,0,0,479,0,53,917,42,1557,2083,1470,2527,9,3276,4041,19.613,16.158,0.108,2.243,-0.354,0.378,1.118,-3.311,9.673,0.024,0.11,0.009,happy
7.33,0,736,0,0,1147,0,612,2045,25,1380,2003,1511,2328,8,3131,4021,-1.879,4.934,12.718,0.155,-0.023,0.172,1.154,-3.086,9.687,0.012,0.195,0.068,happy
7.34,0,1482,0,0,1311,0,1089,2649,35,1143,1824,1528,1768,42,2807,4020,-1.46,3.417,10.862,0.084,-0.08,0.106,1.269,-3.136,9.675,-0.024,0.265,0.152,happy
7.35,68,2128,59,0,1535,0,1667,3033,25,1051,1405,1511,1332,5,2649,3997,1.199,4.628,9.974,-0.013,-0.055,0.03,1.171,-3.251,9.488,-0.015,0.255,0.147,happy
7.36,69,2449,448,0,1822,0,2185,3285,16,405,1338,1435,623,5,2207,3933,0.809,2.875,9.419,-0.023,-0.084,0.208,1.202,-3.601,9.701,0.049,0.221,0.074,happy
7.37,78,2770,901,10,2243,0,2656,3480,23,0,58,791,63,0,1525,3800,1.14,2.899,9.4,-0.011,-0.119,0.02,1.379,-4.029,10.008,0.185,0.28,-0.066,happy
7.38,141,2963,1345,138,2513,0,2962,3617,0,0,2,483,0,0,1388,3672,0.589,3.297,9.749,0.049,-0.161,0.032,1.508,-3.757,9.979,0.307,0.43,-0.11,happy
7.39,177,3184,1691,291,2802,0,3164,3710,0,0,0,0,0,0,510,3053,0.917,2.978,9.419,0.027,-0.104,0.079,9.438,-8.294,12,1.173,1.705,-0.024,happy
7.4,180,3282,1962,320,2929,0,3312,3760,3,0,0,0,2,0,0,1623,1.293,3.223,9.457,0.067,-0.076,0.009,15.414,-4.539,9.881,0.962,2.11,-1.912,happy
7.41,112,3344,2096,292,3053,0,3408,3779,0,0,0,0,22,0,0,1349,1.274,3.072,9.433,0.056,-0.087,0.005,11.346,-3.548,5.339,0.524,2.677,-2.918,happy
7.42,106,3399,2175,139,3207,0,3447,3761,0,0,0,0,0,0,0,991,0.998,3.084,9.366,0.074,-0.043,0.039,7.745,-9.44,5.392,-0.408,3.012,-4.029,happy
7.43,85,3450,2257,135,3324,0,3472,3728,26,0,0,0,0,11,0,768,0.991,3.096,9.345,0.095,-0.041,-0.011,6.555,-6.258,6.05,-1.027,1.379,-4.654,happy
7.44,59,3463,2306,89,3399,0,3482,3643,3,0,0,0,0,0,0,715,1.18,3.072,9.359,0.076,-0.004,-0.01,4.578,-6.407,6.996,-1.286,1.328,-4.788,happy
7.45,38,3492,2342,48,3439,0,3499,3537,0,0,0,0,0,0,0,619,1.274,3.048,9.21,0.092,-0.022,-0.011,2.042,-5.54,9.428,-1.399,1.122,-4.631,happy
7.46,64,3471,2353,86,3452,0,3494,3408,0,0,0,0,0,0,0,452,1.104,2.885,9.22,0.13,-0.043,-0.041,1.257,-4.31,10.709,-1.346,0.88,-4.282,happy
7.47,168,3511,2496,190,3509,0,3463,3285,0,0,0,0,0,0,0,421,1.025,3.06,9.395,0.183,-0.054,-0.07,0.563,-1.243,12.076,-0.951,0.654,-3.26,happy
7.48,241,3552,2548,262,3521,0,3440,3244,69,0,0,0,0,0,0,379,1.125,3.146,9.306,0.217,-0.074,-0.057,2.128,0.668,12.045,-0.307,0.442,-2.333,happy
7.49,419,3634,2767,322,3580,0,3443,3189,0,0,0,0,0,0,0,401,1.324,3.311,9.383,0.233,-0.085,-0.067,3.156,1.199,11.372,-0.01,0.301,-2.078,happy
7.5,560,3710,2848,334,3619,0,3425,3127,0,0,0,0,0,0,0,303,1.166,3.266,9.428,0.219,-0.102,-0.065,4.472,0.385,11.382,0.46,-0.024,-1.977,happy
7.51,636,3781,2958,438,3657,0,3391,3106,0,0,0,0,0,0,0,261,1.235,3.369,9.349,0.219,-0.087,-0.051,4.654,-1.288,11.339,1.008,-0.423,-2.254,happy
7.52,722,3826,3062,548,3685,0,3333,3014,0,0,0,0,0,0,0,223,1.221,3.428,9.45,0.226,-0.098,-0.058,3.888,-1.978,10.733,1.14,-0.538,-2.352,happy
7.53,834,3879,3154,693,3711,0,3246,2896,0,0,2,0,0,0,0,221,1.269,3.366,9.357,0.273,-0.107,-0.053,2.969,-2.986,9.522,1.231,-0.536,-2.388,happy
7.54,1072,3920,3214,814,3731,0,3152,2735,0,0,0,0,0,0,0,120,1.274,3.426,9.28,0.297,-0.107,-0.077,1.911,-3.428,8.772,0.833,-0.376,-2.279,happy
7.55,1221,3954,3270,817,3755,0,2977,2419,0,0,0,0,0,0,0,99,1.403,3.555,9.175,0.285,-0.096,-0.084,2.023,-4.413,10.451,0.705,-0.254,-2.227,happy
7.56,1270,3999,3347,847,3759,0,2857,2026,0,0,0,0,0,11,0,63,1.238,3.601,9.299,0.307,-0.107,-0.097,1.609,-6.974,12.922,0.74,-0.332,-2.223,happy
7.57,1413,4030,3421,977,3765,0,2768,1331,0,0,0,0,0,0,0,27,1.42,3.792,9.148,0.306,-0.074,-0.1,-1.262,-9.304,13.776,1.343,-0.646,-2.276,happy
7.58,1604,4065,3409,1168,3759,0,2629,51,0,0,0,0,0,0,0,0,1.535,3.749,9.088,0.284,-0.01,-0.103,-2.04,-9.625,11.94,1.51,-0.941,-2.229,happy
7.59,1884,4090,3562,1519,3722,0,2433,0,0,0,0,0,0,0,0,1,1.401,3.687,9.206,0.309,-0.022,-0.129,-3.828,-10.245,6.493,1.272,-0.576,-1.95,happy
7.6,2237,4091,3568,1734,3655,0,2038,0,0,0,5,0,0,0,0,0,1.3,3.989,9.371,0.371,-0.04,-0.125,-4.741,-11.844,4.053,0.422,-0.31,-1.506,happy
7.61,2559,4095,3682,1920,3489,0,1240,0,0,0,0,0,0,0,0,0,1.092,3.883,9.115,0.415,-0.007,-0.163,-4.226,-12.799,3.974,0.103,-0.292,-1.401,happy
7.62,2806,4095,3714,1974,2891,0,539,0,0,0,0,63,0,0,0,0,1.305,3.455,8.995,0.5,0.018,-0.22,-3.062,-11.404,2.519,-0.705,0.09,-1.299,happy
7.63,2942,4095,3733,2004,2718,0,571,0,0,0,0,0,0,0,0,0,1.568,3.855,8.839,0.739,-0.027,-0.075,-2.437,-10.877,3.754,-1.067,0.257,-1.245,happy
7.64,3056,4095,3744,2054,2592,0,528,0,0,0,0,0,0,0,0,0,1.358,4.068,8.823,0.851,-0.014,-0.022,-1.542,-10.108,5.143,-1.293,0.381,-1.183,happy
7.65,3124,4095,3785,2098,2419,0,400,0,0,0,0,0,0,0,0,0,1.434,4.073,8.813,0.937,0.001,0.053,2.555,-0.472,5.033,-1.579,1.956,-1.274,happy
7.66,3283,4095,3781,2112,2454,0,336,0,0,2,0,0,0,0,0,47,1.391,4.712,8.811,0.992,-0.009,0.076,3.4,-2.119,15.093,-1.288,1.199,-1.6,happy
7.67,3389,4095,3795,2112,2384,0,238,0,0,0,0,0,0,0,0,347,1.556,4.386,8.837,1.064,0.014,0.107,1.417,1.65,8.207,-1.469,0.851,-1.353,happy
7.68,3475,4095,3799,2096,2285,0,188,0,0,0,15,0,0,0,0,933,1.343,4.583,8.875,1.142,0.054,0.147,-7.135,2.995,9.78,-1.962,0.653,-0.436,happy
7.69,3551,4095,3801,2030,2309,0,65,0,0,0,0,0,8,0,0,1389,1.53,4.611,8.892,1.25,0.068,0.154,-11.837,-3.44,16.07,-2.309,0.346,0.384,happy
7.7,3626,4095,3794,2006,2160,0,0,0,0,0,0,0,0,0,244,2193,1.343,4.053,8.916,1.507,0.063,0.233,-3.871,-6.934,14.497,-1.861,-0.05,0.592,happy
7.71,3706,4095,3740,1760,1942,0,0,0,0,0,0,0,0,0,1208,2999,1.494,4.073,9.22,1.994,0.187,0.334,9.536,0.424,15.572,-1.625,-1.503,0.117,happy
7.72,3749,4095,3617,1501,1856,0,0,0,7,0,25,0,16,0,1893,3231,1.322,4.07,9.282,2.432,0.042,0.315,3.086,-8.088,13.302,-0.528,0.234,0.241,happy
7.73,3780,3581,3056,1037,1535,0,0,0,0,0,0,0,399,0,2143,3095,1.154,4.017,12.076,3.598,-0.312,0.148,4.022,-2.263,7.64,-0.207,1.313,0.621,happy
7.74,3755,2895,1581,176,992,0,0,0,57,0,0,0,1231,0,2715,3782,2.236,6.864,12.725,4.78,-0.782,-0.511,0.967,-3.249,10.609,-0.405,0.896,0.5,happy
7.75,3315,1522,0,0,97,0,0,0,98,317,0,0,1913,0,2991,3943,3.455,5.387,13.336,6.172,-0.714,-1.632,0.824,-3.156,10.46,-0.395,0.234,0.124,happy
7.76,2435,0,0,0,0,0,0,0,81,466,0,77,2105,2,3174,3995,2.557,10.015,12.62,7.89,-0.99,-2.333,1.726,-4.3,9.965,-0.302,0.096,0.133,happy
7.77,1211,0,0,0,0,0,0,0,111,619,5,253,2301,0,3310,4031,1.051,17.626,14.621,6.088,-1.222,-1.852,0.86,-3.476,10.001,0.048,0.181,0.12,happy
7.78,266,0,0,0,0,0,0,0,29,580,63,354,2484,13,3381,4070,4.829,14.538,17.463,2.786,-2.146,-1.929,1.645,-2.911,9.369,-0.043,0.167,0.072,happy
7.79,0,0,0,0,0,0,0,0,39,984,1021,525,2627,12,3493,4091,14.688,-0.283,17.978,0.085,0.235,-2.933,1.286,-3.103,9.591,-0.036,0.081,0.082,happy
7.8,0,0,0,0,0,0,0,0,53,1125,1195,659,2739,10,3558,4095,4.372,-7.429,11.281,-1.283,0.523,-1.974,1.384,-3.333,9.476,-0.015,0.074,0.087,happy
7.81,0,0,0,0,0,0,0,0,63,1299,1568,681,2952,19,3656,4085,1.52,-3.606,8.55,-1.214,-0.364,-1.71,1.487,-3.177,9.522,-0.059,-0.05,-0.013,happy
7.82,0,0,0,0,0,0,0,0,111,1485,1794,851,3037,27,3676,4072,6.888,0.352,10.731,-2.276,-1.034,-0.903,1.417,-3.072,9.361,0.008,0.004,0.055,happy
7.83,0,0,0,0,0,0,0,0,57,1589,1988,985,3097,25,3741,4095,4.159,0.469,9.251,-3.242,-0.449,0.084,1.379,-3.266,9.416,0.013,-0.011,0.043,happy
7.84,0,0,0,0,0,0,0,0,44,1594,1873,1140,3134,0,3667,4050,1.429,0.757,8.128,-3.584,-0.667,0.282,1.391,-3.328,9.543,0.014,0.011,0.025,happy
7.85,0,0,0,0,0,0,0,0,77,1637,2065,1225,3175,22,3661,3999,0.9,1.477,7.503,-3.737,-1.049,0.386,1.329,-3.299,9.577,0.02,-0.001,0.001,happy
7.86,0,0,0,0,0,0,0,0,75,1711,2080,1260,3197,21,3637,3998,1.243,2.512,7.709,-3.91,-1.094,0.408,1.238,-3.326,9.519,0.035,-0.016,-0.003,happy
7.87,0,0,0,0,0,0,0,0,119,1829,2111,1193,3239,19,3630,3957,-0.244,4.195,9.677,-4.197,-1.191,0.465,1.389,-3.132,9.366,0.054,-0.026,0.027,happy
7.88,0,0,0,0,0,0,0,0,45,2065,2203,1165,3301,22,3653,3913,1.053,5.904,10.262,-4.446,-1.252,0.488,1.456,-3.124,9.309,0,-0.024,0.05,happy
7.89,0,0,0,0,0,0,0,0,87,2104,2144,1207,3337,23,3602,3892,-0.424,7.393,12.136,-4.409,-1.189,0.774,1.341,-3.17,9.155,-0.012,-0.034,0.062,happy
7.9,0,0,0,0,0,0,0,0,30,2291,2162,1177,3423,19,3685,3839,0.816,10.039,13.759,-4.462,-0.944,0.871,1.408,-3.259,9.4,-0.033,-0.005,0.09,happy
7.91,0,0,0,0,0,0,0,0,71,2515,2198,1529,3572,20,3576,3864,1.013,12.979,15.842,-4.329,-0.019,1.189,1.448,-3.005,9.318,-0.093,0.006,0.154,happy
7.92,0,0,0,0,0,0,0,0,148,2549,2162,1720,3532,42,3616,3699,-2.179,17.796,17.561,-4.174,0.025,1.403,1.408,-3.103,9.409,-0.142,0.005,0.188,happy
7.93,0,0,0,0,0,0,0,0,311,2703,2203,2009,3601,46,3402,3599,-2.643,19.613,11.442,-3.892,-0.345,1.216,1.511,-3.527,9.507,-0.105,0.079,0.159,happy
7.94,129,0,0,0,0,0,0,0,584,2803,2239,2313,3614,49,3129,3407,-5.983,19.613,-3.364,-2.855,-0.452,1.114,1.506,-3.304,9.457,-0.174,0.185,0.139,happy
7.95,322,0,0,0,307,0,0,0,773,2870,2275,2531,3644,54,2971,3238,-8.82,19.613,-7.956,-0.945,-0.478,0.597,1.487,-3.622,9.416,-0.204,0.203,0.098,happy
7.96,398,0,0,0,192,0,0,0,1513,3015,2265,2968,3647,47,2517,2653,-7.889,19.213,-9.718,1.421,1.334,-0.48,1.516,-3.524,9.301,-0.288,0.157,0.032,happy
7.97,0,0,0,0,64,0,0,0,2207,3159,2280,2982,3443,47,1447,1782,3.601,3.618,19.613,0.662,0.746,-1.251,1.721,-2.332,11.509,-0.871,0.103,0.013,happy
7.98,0,0,0,0,2,0,313,1692,2408,3197,2280,3060,2923,47,647,1607,6.924,-6.855,-4.271,2.815,-0.584,-0.11,1.604,-4.029,9.538,-0.327,0.151,-0.015,happy
7.99,0,0,0,0,549,0,970,2729,2815,3125,2308,3219,2123,0,0,831,-1.329,7.973,18.668,2.946,-0.63,-0.304,0.587,-4.681,8.416,-0.792,0.152,-0.247,happy
8,0,0,0,0,1332,0,1925,3155,3087,2769,2311,3463,781,4,0,765,2.607,10.575,19.613,2.102,1.271,-0.755,1.319,-3.56,9.843,-0.857,0.184,-0.198,happy
8.01,0,851,0,0,1766,0,2350,3357,3147,2657,2311,3435,591,5,2,719,-2.552,1.135,9.251,0.713,1.609,-0.161,2.274,-1.911,10.635,-1.45,0.315,-0.344,happy
8.02,0,1841,0,0,2113,0,2649,3520,3405,1973,2469,3443,17,3,0,491,-0.079,3.836,10.3,0.535,1.074,-0.24,2.919,-3.742,11.181,-3.039,0.776,-0.519,happy
8.03,212,2533,0,0,2470,0,2895,3639,3366,693,2367,2985,0,0,0,185,-1.482,3.093,12.11,0.71,0.216,-0.1,3.45,-2.789,11.545,-4.529,1.731,0.345,happy
8.04,476,3090,0,0,2722,0,3091,3694,3281,0,1512,2463,0,0,3,181,0.366,2.919,9.601,0.631,-0.078,-0.354,1.743,-2.624,14.717,-5.41,1.472,1.548,happy
8.05,898,3345,1175,0,2871,0,3205,3695,2364,0,0,507,0,0,0,21,1.417,4.554,9.998,0.537,-0.255,-0.521,3.182,-8.092,14.241,-6.267,1.522,3.469,happy
8.06,1264,3506,2174,347,3071,0,3277,3690,903,0,0,0,0,0,0,0,1.204,4.896,9.871,0.272,-0.049,-0.073,-3.11,-8.633,14.114,-3.938,0.611,3.612,happy
8.07,1534,3635,2591,720,3248,0,3315,3680,0,0,0,0,0,0,0,0,1.487,3.67,9.409,0.114,-0.074,0.157,-1.535,-0.8,19.613,-1.13,0.101,4.535,happy
8.08,1651,3696,2724,818,3329,0,3347,3671,0,0,0,0,0,0,0,0,1.346,3.831,9.218,0.099,-0.008,0.107,10.065,-0.314,7.628,0.998,0.19,2.931,happy
8.09,1612,3730,2785,874,3376,0,3345,3654,0,0,0,0,0,0,0,2,1.204,3.948,9.529,-0.037,0.085,0.078,9.586,3.012,6.776,1.221,0.2,1.807,happy
8.1,1423,3746,2807,870,3397,0,3345,3645,0,0,0,0,23,0,0,0,1.08,4.073,9.541,-0.136,0.072,0.083,10.242,0.637,7.123,1.328,-0.353,0.575,happy
8.11,1200,3728,2747,533,3401,0,3358,3634,0,0,0,0,0,0,0,0,0.886,4.125,9.718,-0.286,0.133,0.137,10.072,0.266,8.301,1.625,-0.823,-0.603,happy
8.12,831,3565,2452,259,3275,0,3229,3520,0,0,0,0,6,0,0,0,1.111,1.961,8.363,-0.232,0.114,0.077,8.241,-0.637,8.961,2.031,-1.01,-1.62,happy
8.13,868,3713,2558,312,3431,0,3376,3650,0,0,7,0,0,0,0,0,1.269,3.11,8.976,0.003,-0.024,0.004,4.537,-1.317,8.734,2.454,-1.085,-2.153,happy
8.14,856,3727,2559,242,3446,0,3371,3633,0,0,0,0,0,0,0,0,0.989,3.555,9.318,-0.051,0.037,0.029,1.235,-1.7,8.502,2.726,-1.263,-2.207,happy
8.15,810,3731,2551,269,3457,0,3373,3570,0,0,0,0,0,0,0,0,1.08,3.294,9.347,-0.05,0.011,0.056,0.242,-2.236,8.77,2.955,-1.303,-1.987,happy
8.16,738,3756,2554,261,3472,0,3363,3563,0,0,0,0,0,0,4,0,1.137,3.527,9.268,-0.034,0.047,0.11,-0.493,-3.146,9.881,3.229,-1.285,-1.638,happy
8.17,703,3764,2515,247,3495,0,3371,3537,0,0,0,0,0,0,0,0,0.84,3.563,9.572,-0.054,0.038,0.094,-0.022,-4.173,10.736,3.504,-1.356,-1.352,happy
8.18,574,3763,2448,110,3520,0,3389,3485,0,0,0,0,0,13,0,0,1.24,3.247,9.189,-0.07,0.008,0.021,0.996,-5.535,11.107,3.813,-1.51,-1.334,happy
8.19,474,3796,2434,0,3565,0,3399,3379,0,0,0,0,0,0,0,0,1.348,2.689,8.947,-0.017,0.009,-0.001,0.788,-5.847,11.758,3.827,-1.686,-1.423,happy
8.2,528,3812,2543,47,3599,0,3408,3327,0,11,0,0,0,0,0,0,1.221,2.907,8.894,0.08,-0.01,-0.051,0.905,-6.558,13.494,3.862,-1.822,-1.469,happy
8.21,661,3859,2768,236,3657,0,3417,3221,0,0,0,0,11,0,0,0,1.243,2.971,9.23,0.188,-0.072,-0.085,-0.01,-7.86,15.845,3.912,-1.812,-1.367,happy
8.22,826,3913,2975,431,3703,0,3393,3069,5,0,0,0,0,4,0,0,1.314,3.551,9.481,0.229,-0.075,-0.038,-2.126,-12.146,17.265,3.302,-2.548,-1.146,happy
8.23,1023,3909,3145,720,3722,0,3312,2832,0,0,0,0,0,0,0,0,1.317,3.328,9.27,0.285,-0.096,-0.082,-2.435,-15.38,17.482,3.074,-2.96,-1.249,happy
8.24,1311,3997,3285,1072,3778,0,3184,2448,0,0,0,18,0,0,0,0,1.31,3.316,9.22,0.398,-0.147,-0.118,-1.829,-19.312,7.784,2.545,-1.746,-1.549,happy
8.25,1705,4029,3359,1447,3766,0,2941,1475,0,0,25,0,0,20,0,0,1.252,3.56,9.129,0.417,-0.141,-0.063,-9.266,-19.166,-1.223,1.466,-1.968,-1.38,happy
8.26,2086,4079,3530,1841,3779,0,2704,0,0,0,0,0,0,0,0,0,1.494,3.747,9.227,0.464,-0.109,-0.062,-8.497,-19.482,-5.406,0.616,-1.569,-0.996,happy
8.27,2432,4095,3618,1977,3583,0,2069,0,0,0,0,0,0,0,0,0,1.259,3.476,9.562,0.554,-0.112,-0.073,-4.353,-17.566,-7.879,-2.557,1.82,-0.896,happy
8.28,2751,4095,3676,2062,2930,0,926,0,0,0,0,0,0,0,5,16,1.044,3.438,9.364,0.792,-0.181,-0.138,6.122,1.741,19.613,-0.069,1.064,-1.052,happy
8.29,2917,4095,3696,2063,2622,0,464,0,0,2,2,0,0,0,0,79,3.275,2.174,8.595,0.954,-0.137,-0.162,-0.036,6.697,2.816,-1.799,0.408,-0.931,happy
8.3,3089,4095,3717,2085,2448,0,511,0,0,0,0,0,0,0,0,856,1.686,4.058,8.818,1.326,-0.175,0.036,-6.476,1.022,8.322,-3.024,0.479,-0.028,happy
8.31,3247,4095,3725,2128,2195,0,395,0,0,0,0,0,0,0,0,1331,1.645,4.257,9.057,1.452,0.023,0.108,-10.446,-6.191,16.606,-2.872,0.221,0.387,happy
8.32,3345,4095,3601,2118,2137,0,88,0,0,0,0,0,0,0,300,1935,1.702,4.293,8.993,1.621,0.065,0.111,-5.236,-5.246,15.443,-2.198,-0.09,0.791,happy
8.33,3617,4095,3740,1904,1839,0,0,0,0,0,0,0,0,0,1199,2847,1.769,3.778,9.306,2.09,0.17,0.189,2.641,-13.032,19.613,0.191,2.374,1.499,happy
8.34,3719,4095,3675,1805,1689,0,0,0,0,37,0,0,185,0,1800,3170,2.035,2.727,10.008,2.633,0.217,0.246,0.558,-1.47,5.892,-0.568,1.207,0.347,happy
8.35,3803,3619,3063,1356,1397,0,0,0,0,532,0,3,766,0,2077,3037,0.757,3.122,11.454,3.936,0.048,0.152,2.461,-2.184,8.413,-0.203,1.636,0.573,happy
8.36,3763,2814,1725,245,458,0,0,0,9,1176,0,3,1403,0,2521,3787,4.365,6.895,16.024,5.407,-0.62,-0.654,0.211,-3.658,11.212,-0.506,1.299,0.521,happy
8.37,3104,1411,0,0,0,0,0,0,0,1741,0,0,1915,0,2859,3981,3.201,7.477,17.734,7.349,-0.955,-1.392,0.9,-3.019,10.58,-0.235,0.582,0.156,happy
8.38,2368,587,0,0,0,0,0,0,28,1903,2,279,2093,0,3041,4040,3.206,12.546,14.463,7.564,-0.655,-2.319,0.96,-3.481,9.685,-0.093,0.277,0.212,happy
8.39,438,0,0,0,0,0,0,0,75,1917,1016,611,2319,21,3327,4095,3.883,12.759,19.613,3.25,-0.838,-1.811,1.992,-2.602,9.225,-0.025,0.207,0.148,happy
8.4,62,0,0,0,0,0,0,0,57,1933,1174,665,2505,10,3383,4095,2.03,2.959,19.613,-1.658,0.559,-2.617,1.839,-2.974,9.371,-0.061,0.186,0.211,happy
8.41,163,0,0,0,0,0,0,0,76,1782,1471,906,2531,21,3449,4095,3.558,-4.877,9.084,-1.546,0.308,-2.47,1.604,-3.168,9.414,-0.173,0.111,0.131,happy
8.42,0,0,0,0,0,0,0,0,55,1843,1855,1123,2517,25,3432,4095,8.174,-1.736,10.812,-2.097,-0.744,-1.732,1.853,-3.651,10.455,-0.126,0.16,0.115,happy
8.43,0,0,0,0,0,0,0,0,89,1899,1983,1290,2502,23,3416,4095,5.528,-1.006,9.548,-2.909,-0.788,-0.129,1.274,-3.56,9.711,0.015,0.128,0.128,happy
8.44,0,0,0,0,0,0,0,0,102,2028,2044,1702,2507,25,3379,4095,2.325,0.297,8.655,-3.422,-1.148,0.552,1.3,-3.273,9.436,-0.015,0.063,0.084,happy
8.45,0,0,0,0,0,0,0,0,141,2169,2075,1789,2539,33,3289,4078,0.831,1.92,8.942,-3.865,-1.215,0.564,1.18,-3.335,9.39,-0.053,0.041,0.059,happy
8.46,13,0,0,0,0,0,0,0,126,2147,2101,1877,2568,31,3271,4071,-0.445,4.345,11.404,-4.246,-1.386,0.459,1.207,-3.33,9.39,-0.053,0.024,0.052,happy
8.47,20,0,0,0,0,0,0,0,149,2187,2116,2006,2649,43,3273,4024,0.675,6.402,12.048,-4.61,-1.409,0.338,1.104,-3.395,9.445,-0.015,0.034,0.105,happy
8.48,10,0,0,0,0,0,0,0,154,2281,2275,2080,2713,37,3277,4000,0.656,9.268,15.349,-4.679,-1.608,0.581,1.274,-3.333,9.369,-0.011,0.047,0.09,happy
8.49,48,0,0,0,0,0,0,0,53,2343,2188,2152,2780,35,3270,3963,1.211,11.243,16.465,-4.871,-1.58,0.952,1.214,-3.297,9.359,-0.017,0.045,0.074,happy
8.5,16,0,0,0,0,0,0,0,311,2554,2198,2517,2925,49,3257,3929,-0.067,15.407,17.382,-4.354,-1.759,1.157,1.164,-3.273,9.419,-0.019,-0.009,0.073,happy
