timestamp,L1,L2,L3,L4,L5,L6,L7,L8,R1,R2,R3,R4,R5,R6,R7,R8,acc_x_left,acc_y_left,acc_z_left,gyro_x_left,gyro_y_left,gyro_z_left,acc_x_right,acc_y_right,acc_z_right,gyro_x_right,gyro_y_right,gyro_z_right,mood
0,0,0,0,0,0,0,0,0,1307,2171,2247,2104,3448,45,3703,3967,0.69,5.684,10.257,-1.143,-0.025,0.27,1.209,-3.302,9.524,-0.056,0.013,0.068,happy
0.01,0,0,0,0,0,0,0,0,1381,2316,2303,2239,3452,61,3682,3897,-0.249,6.555,9.931,-1.213,0.02,0.096,1.223,-3.364,9.455,-0.053,0.011,0.058,happy
0.02,0,0,0,0,0,0,0,0,1753,2490,2293,2366,3482,47,3644,3877,-1.238,6.565,8.698,-1.219,-0.058,-0.114,1.125,-3.4,9.491,-0.044,0.005,0.046,happy
0.03,0,0,0,0,0,0,0,0,1955,2535,2316,2367,3494,53,3631,3853,-1.372,7.159,7.415,-1.076,-0.097,-0.291,1.216,-3.349,9.436,-0.034,0.007,0.047,happy
0.04,0,0,0,0,0,0,0,0,2091,2629,2321,2409,3516,50,3526,3799,-1.08,7.104,5.502,-0.761,0.017,-0.474,1.243,-3.349,9.459,-0.027,0.015,0.045,happy
0.05,0,0,0,0,0,0,0,0,2333,2700,2326,2427,3527,39,3528,3734,-0.56,7.175,4.875,-0.277,0.154,-0.539,1.188,-3.45,9.445,-0.017,0.027,0.039,happy
0.06,0,0,0,0,0,0,0,0,2349,2707,2331,2491,3539,48,3485,3721,1.288,8.866,2.696,0.685,0.21,-0.22,1.238,-3.371,9.373,-0.016,0.034,0.044,happy
0.07,0,0,0,0,0,0,0,0,2521,2731,2367,2622,3492,51,3386,3656,1.3,3.517,6.586,0.891,0.848,-0.681,1.247,-3.364,9.479,-0.013,0.044,0.046,happy
0.08,0,0,0,0,0,0,0,0,2843,2799,2449,2681,3573,47,3261,3545,1.276,0.742,12.706,0.625,0.115,-0.349,1.223,-3.383,9.562,-0.034,0.021,0.045,happy
0.09,0,0,0,0,0,0,0,1145,2958,2777,2354,2695,3536,13,3163,3482,1.611,-0.048,6.033,1.355,0.119,-0.172,1.216,-3.292,9.364,-0.05,0.006,0.032,happy
0.1,0,0,0,0,163,0,240,2064,3151,2869,2362,2829,3525,46,2825,3255,-0.563,3.393,10.8,1.641,-0.25,-0.038,1.3,-3.405,9.464,-0.067,0.004,0.031,happy
0.11,0,0,0,0,560,0,934,2771,3347,3018,2367,2936,3464,45,2254,2863,3.656,14.878,15.141,2.148,1.328,-0.458,1.346,-3.385,9.409,-0.104,0.009,0.031,happy
0.12,0,1015,0,0,1222,0,1363,3037,3430,3087,2372,2925,3371,47,1975,2429,-1.063,1.013,8.973,0.356,1.022,-0.354,1.326,-3.405,9.596,-0.181,-0.002,0.031,happy
0.13,0,1922,0,0,1424,0,1649,3168,3571,3166,2372,2995,2675,45,892,1653,0.843,2.014,7.551,0.25,-0.051,0.067,1.216,-3.728,9.438,-0.209,0.071,0.065,happy
0.14,0,2288,126,0,1600,0,1904,3234,3605,3179,2372,3053,2315,9,78,967,0.792,2.176,9.062,0.151,-0.018,-0.032,0.819,-2.61,9.474,-0.274,0.095,0.16,happy
0.15,0,2546,483,0,1723,0,2125,3315,3727,3059,2375,3111,1639,11,7,639,0.8,3.256,9.483,0.131,-0.02,-0.046,0.869,-4.12,9.273,-0.622,0.227,-0.122,happy
0.16,7,2726,819,0,1904,0,2289,3358,3790,2669,2382,3173,501,5,2,221,0.85,3.01,9.297,0.087,-0.045,0.02,1.01,-3.912,9.634,-0.746,0.299,-0.169,happy
0.17,64,2884,1282,85,2015,0,2439,3406,3879,2407,2400,3263,47,2,0,133,0.898,3.225,9.328,0.165,-0.035,0.021,1.429,-3.165,9.515,-1.145,0.39,-0.289,happy
0.18,141,3023,1802,238,2260,0,2587,3406,3892,2213,2421,3243,8,1,29,182,0.869,3.292,9.519,0.082,-0.01,0.001,2.169,-3.699,9.876,-1.347,0.435,-0.325,happy
0.19,139,3146,2033,298,2397,0,2699,3477,3911,1823,2449,3076,0,0,0,141,0.862,3.124,9.316,0.09,-0.039,-0.016,1.87,-3.675,9.802,-1.722,0.694,-0.326,happy
0.2,291,3232,2243,553,2559,0,2815,3511,3897,729,2323,2651,0,0,0,122,1.075,2.933,9.278,0.244,-0.058,-0.049,2.152,-4.307,9.84,-2.307,1.183,-0.044,happy
0.21,387,3321,2533,816,2722,0,2912,3553,3881,499,1960,2509,0,0,0,155,0.974,3.448,9.39,0.225,-0.068,-0.028,0.539,-3.677,11.334,-2.739,1.143,0.293,happy
0.22,609,3375,2739,1107,2832,0,3001,3575,3654,6,0,1287,0,0,0,102,0.934,3.503,9.524,0.169,-0.001,-0.034,2.241,-5.861,12.153,-3.453,1.076,1.373,happy
0.23,752,3433,2832,1353,2911,0,3061,3603,3212,0,0,529,0,0,0,21,0.711,3.553,9.507,0.062,-0.014,-0.043,2.895,-9.546,12.024,-3.827,1.26,2.335,happy
0.24,784,3456,2751,1468,2911,0,2923,3613,2639,0,0,83,0,0,0,101,0.967,3.428,9.412,0.104,-0.033,-0.02,2.526,-7.707,9.814,-3.48,1.586,2.624,happy
0.25,944,3504,2977,1535,3031,0,3151,3630,0,0,0,0,0,0,0,74,1.001,3.515,9.337,0.067,-0.014,-0.014,4.422,-1.559,15.876,-0.904,1.385,2.847,happy
0.26,1059,3536,3009,1581,3069,0,3169,3630,0,0,0,35,0,0,0,61,1.053,3.5,9.383,0.048,0.004,-0.012,8.813,0.503,9.431,0.708,0.557,0.563,happy
0.27,1086,3550,3023,1555,3104,0,3182,3629,0,0,0,2,0,0,0,13,0.953,3.359,9.345,0.039,0.015,-0.006,6.27,2.014,8.203,0.939,0.374,0.004,happy
0.28,1102,3554,3028,1476,3124,0,3175,3621,0,0,0,0,0,0,0,69,0.946,3.397,9.366,0.033,0.017,-0.007,5.227,1.149,8.866,1.044,-0.125,-0.416,happy
0.29,1152,3583,3037,1359,3147,0,3183,3611,0,23,0,0,0,0,0,114,1.018,3.33,9.268,0.056,0.005,0.001,4.721,0.555,10.07,1.399,-0.47,-0.707,happy
0.3,1105,3606,3043,1273,3184,0,3179,3600,0,0,0,0,6,0,0,0,0.998,3.433,9.299,0.054,-0.006,-0.003,2.425,-0.496,10.06,2.244,-0.91,-0.941,happy
0.31,1100,3607,3044,1136,3200,0,3171,3559,0,0,0,0,0,0,0,0,0.95,3.376,9.342,0.046,-0.001,-0.009,1.894,-1.645,9.886,2.746,-1.216,-0.816,happy
0.32,1094,3621,3047,1018,3232,0,3177,3566,0,0,0,0,0,0,0,0,0.965,3.445,9.392,0.027,-0.01,-0.031,1.786,-2.452,10.364,2.966,-1.341,-0.816,happy
0.33,1053,3634,3059,1003,3266,0,3183,3551,0,0,0,0,0,68,0,0,1.061,3.213,9.299,0.047,-0.02,-0.031,1.997,-3.809,11.15,3.212,-1.656,-0.937,happy
0.34,1037,3668,3085,967,3325,0,3200,3547,0,0,0,0,0,0,0,0,1.046,3.34,9.321,0.066,-0.025,-0.019,2.267,-4.853,12.395,3.238,-1.82,-1.31,happy
0.35,1051,3661,3101,978,3344,0,3188,3504,0,0,0,0,0,0,0,0,0.939,3.44,9.328,0.072,-0.029,-0.044,2.512,-5.452,13.036,3.225,-1.731,-1.471,happy
0.36,1089,3693,3136,1070,3383,0,3202,3448,0,0,0,0,0,0,0,0,1.128,3.247,9.122,0.115,-0.042,-0.052,1.319,-6.206,14.071,2.895,-1.618,-1.767,happy
0.37,1101,3717,3184,1115,3443,0,3189,3379,0,0,0,0,13,0,0,0,1.025,3.208,9.285,0.191,-0.074,-0.066,-0.651,-9.536,14.413,2.385,-1.817,-2.073,happy
0.38,1138,3741,3250,1426,3475,0,3159,3216,0,0,0,0,0,0,0,0,1.01,3.555,9.323,0.279,-0.108,-0.073,-1.475,-11.916,14.633,2.089,-1.962,-2.161,happy
0.39,1203,3775,3344,1645,3517,0,3066,3062,0,0,0,0,0,0,0,0,1.245,3.371,9.273,0.279,-0.134,-0.09,-2.31,-16.204,10.803,1.843,-1.187,-2.117,happy
0.4,1267,3839,3434,1893,3570,0,2949,2882,0,0,0,0,0,0,0,0,1.281,3.587,9.167,0.294,-0.139,-0.06,-9.606,-17.461,4.693,1.48,-1.525,-1.453,happy
0.41,1441,3851,3495,2067,3569,0,2742,2535,0,0,0,0,0,0,0,0,1.331,3.67,9.301,0.319,-0.115,-0.025,-8.262,-17.767,0.8,1.11,-1.595,-1.082,happy
0.42,1535,3911,3558,2191,3576,0,2514,1694,0,0,0,0,0,0,0,0,1.288,3.644,9.337,0.301,-0.024,-0.036,-7.64,-15.421,-10.063,-1.548,0.877,-0.529,happy
0.43,1740,3933,3617,2273,3541,0,2143,0,39,0,0,2,0,0,0,0,1.058,3.802,9.313,0.334,0.017,-0.052,6.517,-6.922,19.613,-1.478,1.627,0.279,happy
0.44,1872,3967,3637,2338,3475,0,1778,0,0,4,0,39,0,0,0,105,1.42,3.905,9.436,0.324,-0.025,-0.111,2.945,1.815,11.691,-1.184,0.108,-0.31,happy
0.45,2157,3922,3657,2396,3120,0,841,0,0,0,0,0,0,0,0,329,0.95,3.531,9.483,0.444,-0.037,-0.268,1.166,4.946,0.081,-2.146,0.352,0.245,happy
0.46,2309,3950,3664,2355,2543,0,604,0,0,0,0,0,0,0,26,757,1.307,3.519,8.708,0.885,-0.052,-0.053,0.625,-5.303,12.072,-2.583,0.493,0.424,happy
0.47,2494,3945,3645,2350,2111,0,471,0,0,0,0,0,2,0,724,1823,1.338,4.044,8.914,1.111,0.095,0.106,-1.762,-3.615,11.229,-1.758,0.119,0.593,happy
0.48,2679,3962,3687,2361,1831,0,182,0,0,3,0,13,48,0,1354,2553,1.537,3.723,8.93,1.371,0.081,0.265,-1.08,-3.472,9.776,-0.496,1.174,0.476,happy
0.49,2768,3895,3678,2191,1339,0,0,0,0,316,0,0,398,0,1677,2729,1.822,3.821,9.38,1.615,0.253,0.261,1.051,-4.994,12.397,-0.256,1.333,0.604,happy
0.5,2928,3880,3615,1926,1104,0,0,0,0,580,0,0,921,0,2037,3154,2.181,3.907,9.833,2.145,0.419,0.339,-1.269,-3.524,13.154,-0.523,0.644,0.342,happy
0.51,2963,3533,3309,1584,807,0,0,0,124,759,0,0,1305,0,2376,3465,1.975,4.276,10.166,2.863,0.423,0.309,0.941,-3.309,10.573,-0.217,0.314,0.11,happy
0.52,2785,3027,2898,1233,300,0,0,0,165,1047,0,29,1547,0,2613,3599,3.086,6.024,11.382,4.02,-0.315,-0.161,1.549,-3.467,9.649,-0.202,0.139,0.113,happy
0.53,2310,2559,1711,490,0,0,0,0,221,1311,1021,142,2142,59,2825,3789,3.752,5.65,12.826,5.464,-1.011,-1.193,1.013,-3.211,9.55,0.003,0.05,0.046,happy
0.54,1604,1438,0,0,0,0,0,0,221,1449,1389,589,2517,71,3141,4000,2.157,9.809,12.68,6.06,-0.364,-2.002,1.422,-2.835,9.357,-0.027,-0.011,0.049,happy
0.55,242,305,0,0,0,0,0,0,262,1555,1121,759,2661,46,3289,3981,2.811,8.83,19.613,3.039,-0.524,-2.478,1.508,-2.835,9.483,-0.084,-0.016,0.075,happy
0.56,0,0,0,0,0,0,0,0,275,2067,2016,989,3043,47,3445,4026,5.54,1.233,12.424,0.172,0.908,-3.461,1.468,-3.244,9.5,-0.066,0.017,0.108,happy
0.57,0,0,0,0,0,0,0,0,291,2039,2088,1227,3096,51,3503,4039,5.272,-1.429,14.348,-0.63,0.382,-2.588,1.422,-3.352,9.773,-0.029,0.014,0.092,happy
0.58,0,0,0,0,0,0,0,0,380,2150,2142,1327,3193,51,3575,4043,6.421,-1.326,8.689,-1.18,0.032,-1.835,1.255,-3.117,9.524,-0.023,0.026,0.062,happy
0.59,0,0,0,0,0,0,0,0,375,2187,2149,1421,3252,51,3601,4029,7.135,0.242,9.799,-1.888,-0.363,-0.639,1.295,-3.077,9.577,-0.056,-0.002,0.049,happy
0.6,0,0,0,0,0,0,0,0,419,2197,2096,1517,3321,51,3605,3997,5.183,0.869,8.954,-2.644,-0.541,0.427,1.346,-3.254,9.589,-0.016,-0.009,0.019,happy
0.61,0,0,0,0,0,0,0,0,455,2469,2162,1517,3385,17,3561,3894,2.43,1.719,8.32,-3.074,-0.822,0.943,1.31,-3.134,9.483,-0.006,-0.019,0.023,happy
0.62,0,0,0,0,0,0,0,0,481,2397,2172,1445,3427,51,3557,3862,0.646,2.883,9.426,-3.451,-0.967,1.065,1.358,-3.093,9.378,-0.023,-0.036,0.029,happy
0.63,0,0,0,0,0,0,0,0,461,2548,2188,1399,3476,52,3501,3765,-0.864,4.211,10.795,-3.795,-1.139,0.88,1.453,-3.117,9.436,-0.051,-0.029,0.052,happy
0.64,0,0,0,0,0,0,0,0,519,2676,2234,1429,3543,47,3513,3653,-1.188,5.751,11.978,-4.065,-1.353,0.606,1.444,-3.168,9.443,-0.06,-0.019,0.083,happy
0.65,0,0,0,0,0,0,0,0,519,2649,2234,1477,3561,51,3527,3636,-0.74,7.501,13.187,-4.094,-1.448,0.502,1.494,-3.179,9.392,-0.05,-0.014,0.09,happy
0.66,0,0,0,0,0,0,0,0,661,2775,2270,1459,3611,51,3527,3544,-2.157,8.14,13.118,-3.855,-1.258,0.544,1.432,-3.177,9.369,-0.062,0.005,0.117,happy
0.67,0,0,0,0,0,0,0,0,779,2814,2277,1687,3695,31,3423,3558,-0.752,12.117,14.789,-3.359,-0.615,0.307,1.53,-3.16,9.306,-0.086,0.046,0.161,happy
0.68,0,0,0,0,0,0,0,0,974,2851,2280,1813,3662,51,3366,3563,0.215,16.472,17.607,-3.342,-0.187,0.181,1.465,-3.397,9.555,-0.047,0.066,0.128,happy
0.69,0,0,0,0,0,0,0,0,1496,2900,2318,2187,3677,47,3177,3537,-0.333,17.657,11.502,-3.06,-0.735,0.578,1.46,-3.168,9.433,-0.043,0.067,0.113,happy
0.7,0,0,0,0,0,0,0,0,2121,3038,2326,2460,3683,51,2935,3447,0.67,15.476,3.606,-2.43,-1.455,1.469,1.367,-3.244,9.388,-0.071,0.029,0.061,happy
0.71,0,0,0,0,0,0,0,0,2383,3091,2326,2634,3786,51,2793,3374,-2.832,19.613,-2.576,-1.408,-0.332,2.725,1.448,-3.345,9.467,-0.076,0.028,0.055,happy
0.72,0,0,0,0,87,0,0,0,2863,3175,2341,2815,3695,47,2631,3033,-11.677,13.932,-12.019,0.661,0.121,2.192,1.434,-3.376,9.574,-0.086,0.062,0.042,happy
0.73,0,0,0,0,0,0,0,0,3171,3276,2349,2989,3643,47,2027,2396,-1.932,6.967,7.151,1.931,1.078,0.148,1.401,-3.34,9.579,-0.158,0.058,0.025,happy
0.74,0,0,0,0,139,0,0,0,3293,3431,2352,3035,3554,66,1653,1869,0.694,0.211,17.71,0.727,-0.136,0.5,1.116,-3.491,9.249,-0.192,0.041,0.026,happy
0.75,0,0,0,0,110,0,307,1719,3487,3429,2364,3128,3045,54,441,1319,-0.661,-2.959,5.253,2.272,0.27,-0.738,0.955,-4.013,9.12,-0.228,0.132,0.018,happy
0.76,0,0,0,0,346,0,665,2672,3621,3445,2367,3321,2511,9,5,730,2.593,6.201,12.996,2.403,-0.292,-0.297,1.149,-2.337,9.632,-0.671,0.225,-0.088,happy
0.77,0,0,0,0,851,0,1189,3133,3671,3352,2262,3283,2086,8,11,428,-0.05,4.446,12.373,1.751,-0.072,0.101,1.453,-3.546,9.512,-0.551,0.273,-0.074,happy
0.78,0,0,0,0,1158,0,1939,3301,3736,3000,2367,3467,775,5,3,355,4.901,10.036,13.994,0.949,0.584,-0.219,1.312,-3.285,9.333,-0.828,0.265,-0.175,happy
0.79,0,1007,0,0,1622,0,2283,3360,3772,2825,2393,3501,167,7,3,222,0.606,3.259,11.863,0.426,0.785,-0.287,1.741,-2.504,9.922,-1.468,0.373,-0.332,happy
0.8,0,1697,0,0,1918,0,2483,3408,3931,2696,2321,3517,1,90,0,261,1.42,3.833,10.029,0.301,0.646,-0.114,1.29,-3.211,9.708,-1.84,0.428,-0.389,happy
0.81,0,2189,0,0,2079,0,2598,3465,3883,1911,2490,3371,0,1,0,199,0.91,3.177,9.783,0.185,0.511,-0.205,2.042,-3.124,9.852,-2.562,0.948,-0.424,happy
0.82,0,2499,0,0,2361,0,2709,3534,3897,955,2413,2861,0,0,0,119,0.69,3.349,10.63,0.159,0.183,-0.274,2.832,-3.553,10.216,-3.377,1.552,0.182,happy
0.83,0,2773,242,0,2519,0,2819,3565,3870,714,1609,2551,13,0,0,101,0.955,3.122,9.835,0.132,0.204,0.037,2.109,-5.136,11.428,-4.057,1.246,0.814,happy
0.84,0,3026,971,0,2731,0,2962,3617,3157,0,0,1543,0,0,0,17,0.52,2.952,9.373,0.041,0.079,-0.034,1.465,-5.363,13.601,-4.757,0.662,2.375,happy
0.85,17,3138,1728,47,2808,0,3039,3632,2532,0,0,43,0,0,0,0,1.032,3.237,9.797,0.18,0.087,-0.041,1.07,-7.616,11.025,-5.253,0.283,3.447,happy
0.86,116,3285,2160,287,2987,0,3179,3664,1702,0,0,0,1,0,0,13,1.039,3.218,9.639,0.121,-0.011,-0.039,-0.419,-10.034,12.342,-3.87,0.186,3.686,happy
0.87,204,3369,2362,406,3115,0,3231,3664,0,0,0,0,0,0,0,0,1.135,2.926,9.45,0.12,-0.034,-0.036,6.409,-9.108,19.613,-0.122,-0.49,2.782,happy
0.88,224,3440,2513,529,3217,0,3254,3654,0,0,0,0,0,0,0,0,1.24,2.703,9.208,0.203,-0.036,-0.074,7.913,2.16,8.873,0.99,-0.064,1.259,happy
0.89,262,3468,2646,594,3274,0,3237,3626,0,0,0,0,0,0,0,0,1.152,2.986,9.426,0.254,-0.019,-0.064,8.437,0.543,8.641,1.147,-0.705,0.198,happy
0.9,283,3530,2764,642,3321,0,3201,3600,0,0,0,0,0,0,0,26,1.027,3.029,9.464,0.283,-0.003,-0.054,6.989,1.008,9.941,1.496,-1.036,-0.704,happy
0.91,351,3530,2647,761,3314,0,3060,3547,0,0,0,0,0,0,0,0,1.065,3.065,9.39,0.308,-0.03,-0.062,4.554,-0.163,10.939,2.098,-1.17,-1.231,happy
0.92,528,3604,3013,983,3370,0,3136,3405,0,0,0,0,0,3,0,0,1.106,3.122,9.428,0.301,-0.055,-0.049,1.437,-0.67,10.47,2.638,-1.333,-1.372,happy
0.93,656,3654,3139,1344,3411,0,3071,3231,0,0,0,0,0,0,0,0,0.977,3.381,9.459,0.293,-0.064,-0.055,-0.905,-1.413,8.59,3.224,-1.505,-0.869,happy
0.94,828,3728,3264,1652,3453,0,3023,3057,0,26,0,0,0,0,0,0,1.159,3.321,9.273,0.305,-0.058,-0.086,-0.06,-3.239,10.817,3.59,-1.649,-0.516,happy
0.95,1002,3730,3344,1876,3443,0,2960,2795,0,0,0,0,0,0,0,0,1.267,3.677,9.38,0.287,-0.05,-0.1,0.709,-3.998,11.2,3.761,-1.776,-0.599,happy
0.96,1199,3809,3418,2070,3491,0,2909,2608,0,0,0,0,0,0,0,0,1.149,3.591,9.361,0.259,-0.047,-0.078,0.182,-4.697,12.136,3.815,-1.959,-0.9,happy
0.97,1363,3835,3467,2226,3527,0,2862,2484,0,0,0,0,22,0,1,0,1.092,3.596,9.306,0.183,-0.034,-0.063,-1.147,-5.844,15.311,3.766,-1.942,-0.841,happy
0.98,1535,3856,3505,2299,3523,0,2794,2269,0,0,61,0,0,0,0,0,1.183,3.522,9.29,0.169,-0.022,-0.061,-1.97,-6.608,15.792,3.651,-2.049,-0.659,happy
0.99,1685,3869,3549,2366,3538,0,2697,1953,0,0,0,12,0,0,0,0,1.18,3.555,9.369,0.183,-0.039,-0.067,-1.274,-10.036,14.861,2.857,-2.596,-0.627,happy
1,1889,3901,3575,2433,3557,0,2551,1381,0,18,28,0,0,0,0,0,1.149,3.61,9.285,0.196,-0.037,-0.056,0.843,-9.799,17.296,1.998,-2.25,-1.175,happy
1.01,2064,3909,3618,2480,3549,0,2272,0,0,0,0,0,0,0,0,0,1.228,3.594,9.165,0.22,-0.036,-0.066,-3.62,-19.19,9.91,2.411,-1.022,-1.194,happy
1.02,2178,3937,3646,2518,3499,0,1989,0,22,0,0,0,0,0,0,0,1.192,3.625,9.184,0.23,-0.003,-0.046,-8.698,-19.57,-0.469,1.646,-1.504,-1.501,happy
1.03,2400,3959,3669,2656,3399,0,1390,0,0,0,53,0,0,0,0,0,1.13,3.733,9.328,0.262,0.02,-0.03,-9.242,-19.613,-11.53,-1.157,0.663,-1.207,happy
1.04,2512,3948,3692,2703,3105,0,594,0,0,0,0,0,0,0,0,0,1.243,3.587,9.251,0.367,0.06,-0.07,-8.72,-12.833,-6.024,-2.102,2.212,-0.42,happy
1.05,2559,3936,3700,2734,2629,0,478,0,0,0,0,0,0,0,0,0,1.915,2.409,9.026,0.503,0.067,-0.087,1.458,2.811,19.613,-1.175,2.213,-0.033,happy
1.06,2666,3970,3708,2754,2385,0,464,0,0,0,0,0,0,0,0,228,1.559,3.421,9.014,0.756,0.108,0.084,-2.61,6.531,15.098,-0.802,-0.315,-0.698,happy
1.07,2688,3975,3721,2770,2123,0,343,0,0,0,0,0,0,0,0,744,1.475,3.812,9.313,0.843,0.221,0.1,-2.251,3.898,-1.085,-2.438,0.213,0.238,happy
1.08,2739,3974,3731,2788,1926,0,181,0,0,0,0,0,0,0,221,1111,1.401,3.831,9.179,0.972,0.215,0.129,-4.831,-5.801,17.901,-2.317,0.464,0.86,happy
1.09,2861,3925,3715,2766,1585,0,0,0,0,0,0,0,0,0,1061,2203,1.29,3.666,9.266,1.235,0.258,0.18,19.613,2.286,13.309,-1.789,-1.08,0.301,happy
1.1,2945,3946,3728,2637,1245,0,0,0,0,207,0,0,521,0,2012,2899,2.011,3.673,9.74,1.723,0.511,0.353,0.146,-4.532,10.367,-0.262,1.301,0.549,happy
1.11,3033,3822,3646,2374,986,0,0,0,0,69,0,17,697,1,2259,3067,1.367,3.723,8.988,2.444,0.791,0.446,2.03,-3.34,10.35,-0.176,1.147,0.397,happy
1.12,2961,3213,3326,1815,413,0,0,0,0,635,74,0,1429,0,2445,3385,0.936,4.149,9.811,3.284,0.764,0.287,0.093,-3.457,11.813,-0.326,0.547,0.212,happy
1.13,2916,2812,2678,1477,0,0,0,0,0,797,0,0,1960,0,2714,3656,0.606,5.964,13.343,4.403,-0.045,-0.534,0.994,-3.431,10.398,-0.111,0.174,0.106,happy
1.14,2329,1834,1328,829,0,0,0,0,0,914,120,0,2247,0,2908,3759,4.125,7.697,12.955,5.628,0.019,-1.451,1.829,-2.966,9.886,-0.096,0.102,0.1,happy
1.15,1482,750,0,0,0,0,0,0,4,1429,0,70,2630,0,3196,3929,2.277,9.586,11.588,6.368,0.249,-2.142,1.595,-3.065,9.548,-0.031,0.074,0.09,happy
1.16,659,219,0,0,0,0,0,0,7,1432,0,85,2789,9,3349,3995,1.353,12.136,15.608,4.984,0.423,-2.247,1.549,-3.268,9.78,0.011,0.056,0.092,happy
1.17,0,48,0,0,0,0,0,0,20,1491,790,59,2956,5,3508,4031,4.063,3.242,19.613,1.849,0.646,-2.561,1.465,-3.021,9.68,-0.003,0,0.024,happy
1.18,0,0,0,0,0,0,0,0,30,1460,1010,247,3092,9,3515,4036,9.685,2.993,10.46,0.649,1.065,-2.091,1.003,-2.081,9.347,-0.051,-0.07,-0.096,happy
1.19,0,0,0,0,0,0,0,0,27,1479,1123,279,3232,8,3595,4090,6.342,-2.94,13.664,-0.491,0.679,-1.325,1.489,-3.201,10.156,0.103,0.063,0.036,happy
1.2,0,0,0,0,0,0,0,0,29,1471,1205,293,3259,11,3659,4095,6.517,-0.393,7.642,-0.563,0.751,-0.758,1.422,-2.899,9.641,0.057,-0.005,0.044,happy
1.21,0,0,0,0,0,0,0,0,44,1467,1220,312,3300,10,3704,4095,5.454,-0.903,10.077,-1.173,0.207,-0.298,1.374,-3.11,9.756,0.068,-0.017,0.019,happy
1.22,0,0,0,0,0,0,0,0,16,1523,1208,279,3411,6,3753,4091,6.129,0.917,10.992,-2.092,-0.038,0.53,1.484,-2.871,9.646,-0.009,-0.064,0.002,happy
1.23,0,0,0,0,0,0,0,0,21,1595,1115,121,3431,7,3747,4072,5.571,2.011,10.068,-2.713,0.085,0.956,1.441,-2.837,9.629,-0.033,-0.068,0.011,happy
1.24,0,0,0,0,0,0,0,0,17,1715,1225,101,3455,27,3752,4073,3.831,2.21,8.543,-3.155,0.06,1.27,1.726,-2.868,9.574,-0.033,-0.064,0.029,happy
1.25,0,0,0,0,0,0,0,0,25,1769,1251,120,3491,7,3725,4015,2.205,2.464,7.81,-3.37,-0.15,1.408,1.638,-2.847,9.448,-0.083,-0.06,0.064,happy
1.26,0,0,0,0,0,0,0,0,29,1883,1392,117,3517,9,3731,3979,1.793,3.01,8.135,-3.487,-0.313,1.419,1.544,-2.875,9.388,-0.098,-0.069,0.061,happy
1.27,0,0,0,0,0,0,0,0,0,1911,1617,137,3507,9,3743,4008,0.883,3.862,9.364,-3.681,-0.435,1.319,1.551,-2.935,9.44,-0.102,-0.062,0.06,happy
1.28,0,0,0,0,0,0,0,0,45,2069,1768,136,3595,12,3699,3935,0.237,4.851,10.451,-3.92,-0.607,1.097,1.602,-3.019,9.44,-0.111,-0.06,0.058,happy
1.29,0,0,0,0,0,0,0,0,44,2207,1850,151,3623,11,3731,3865,0.819,6.354,10.942,-4.236,-0.814,0.78,1.618,-2.998,9.371,-0.104,-0.067,0.052,happy
1.3,0,0,0,0,0,0,0,0,84,2441,2024,207,3685,37,3727,3791,0.007,7.693,11.717,-4.212,-1.213,0.607,1.492,-3.017,9.426,-0.107,-0.057,0.072,happy
1.31,0,0,0,0,0,0,0,0,158,2619,2167,339,3685,30,3675,3709,0.532,9.752,13.42,-4.098,-1.666,0.423,1.573,-2.954,9.457,-0.104,-0.04,0.065,happy
1.32,0,0,0,0,0,0,0,0,117,2668,2188,431,3769,29,3613,3678,-0.836,10.604,13.331,-3.677,-1.875,0.435,1.59,-3.079,9.433,-0.077,-0.017,0.073,happy
1.33,0,0,0,0,0,0,0,0,92,2723,2170,630,3748,26,3503,3549,-0.943,14.04,16.58,-3.342,-1.863,0.422,1.635,-2.801,9.081,-0.126,0.004,0.114,happy
1.34,0,0,0,0,0,0,0,0,205,2825,2259,997,3868,44,3539,3550,-2.181,17.008,16.57,-3.552,-1.707,0.576,1.681,-3.007,9.34,-0.181,0.018,0.21,happy
1.35,0,0,0,0,0,0,0,0,286,2967,2275,1147,3915,51,3534,3519,-1.408,14.732,5.337,-3.228,-1.252,0.723,1.726,-3.17,9.364,-0.147,0.024,0.208,happy
1.36,0,0,0,0,143,0,0,0,688,3111,2321,1351,3959,101,3341,3371,-5.109,19.077,-1.913,-1.891,-1.124,1.237,1.669,-3.175,9.323,-0.196,0.013,0.185,happy
1.37,0,0,0,0,213,0,0,0,1244,3228,2367,1839,3987,51,2979,2969,-7.034,16.671,-10.664,-0.15,-0.265,1.355,1.65,-3.598,9.785,-0.192,0.026,0.14,happy
1.38,0,0,0,0,161,0,0,0,1651,3285,2344,1915,3982,53,2827,2591,-4.202,11.349,2.605,1.874,0.771,0.328,1.578,-3.649,9.606,-0.18,0.048,0.096,happy
1.39,0,0,0,0,0,0,0,0,2335,3433,2349,2295,3966,47,2415,1789,2.227,1.693,15.105,1.296,1.092,0.022,1.595,-3.419,9.567,-0.191,0.107,0.078,happy
1.4,0,0,0,0,207,0,0,0,2807,3557,2354,2495,3898,47,1437,1372,3.158,-6.883,12.9,0.944,0.136,0.001,1.504,-3.496,9.428,-0.234,0.112,0.058,happy
1.41,0,0,0,0,66,0,128,501,2907,3613,2362,2613,3755,51,905,825,0.333,0.323,5.672,2.24,0.968,-0.342,1.417,-3.546,9.519,-0.268,0.114,0.08,happy
1.42,0,0,0,0,144,0,560,2129,3208,3676,2362,2799,3131,0,19,569,5.339,5.085,11.564,2.154,0.326,0.172,1.731,-3.551,9.433,-0.708,0.095,-0.069,happy
1.43,0,0,0,0,697,0,1193,2905,3366,3703,2382,2914,2405,6,6,466,-0.711,3.577,11.923,1.789,0.46,-0.058,1.539,-3.891,9.347,-0.765,0.196,-0.033,happy
1.44,0,0,0,0,1206,0,1792,3204,3465,3676,2393,2969,1983,4,4,394,3.541,9.436,17.059,1.249,1.275,-0.611,1.587,-3.211,9.335,-0.91,0.188,-0.04,happy
1.45,0,880,0,0,1535,0,2229,3306,3565,3539,2439,3093,936,4,1,171,-1.839,3.677,12.163,0.414,1.104,-0.423,1.741,-2.579,9.433,-1.508,0.274,-0.132,happy
1.46,0,1690,0,0,1872,0,2433,3398,3631,3093,2469,3123,411,0,0,99,1.312,3.737,10.827,0.403,1.092,-0.234,1.767,-3.199,9.069,-2.348,0.457,-0.249,happy
1.47,0,2179,0,0,2128,0,2589,3463,3619,2728,2352,3063,251,4,0,171,-1.336,2.555,11.882,0.28,0.667,-0.214,2.883,-4.235,10.197,-2.842,0.765,-0.2,happy
1.48,100,2598,54,0,2366,0,2736,3549,3563,1955,2428,2494,139,0,3,152,0.95,3.254,10.113,0.146,0.282,-0.097,2.892,-5.083,13.18,-3.847,0.833,0.206,happy
1.49,212,2892,809,0,2529,0,2911,3625,3357,1064,0,1157,0,0,0,101,0.907,2.756,9.541,0.189,0.103,-0.096,2.174,-6.711,13.149,-5.193,0.325,1.192,happy
1.5,384,3109,1723,210,2691,0,3004,3645,3191,883,0,503,0,0,0,53,0.716,3.134,9.807,0.199,-0.043,-0.078,1.573,-8.669,12.802,-5.649,0.292,1.585,happy
1.51,480,3246,2183,544,2813,0,3103,3675,2057,621,0,43,0,0,0,6,0.931,3.091,9.744,0.149,0.015,-0.058,2.109,-10.293,12.785,-4.954,0.084,2.627,happy
1.52,624,3342,2384,600,2955,0,3170,3680,0,0,0,0,0,0,0,0,0.871,3.074,9.665,0.124,0.03,-0.037,5.248,-2.753,19.304,-0.647,0.097,3.169,happy
1.53,651,3375,2454,783,3015,0,3205,3690,0,0,0,0,0,0,0,0,1.12,2.84,9.519,0.158,0.005,-0.028,5.186,-0.668,19.613,0.81,0.294,2.547,happy
1.54,637,3408,2533,797,3054,0,3219,3680,0,0,0,0,0,0,0,0,1.192,2.947,9.438,0.168,0.006,-0.026,6.244,2.04,7.19,1.315,0.504,2.602,happy
1.55,746,3451,2624,750,3112,0,3222,3666,0,0,0,0,0,0,0,0,1.022,3.141,9.459,0.165,0.013,-0.007,6.783,2.693,8.2,1.528,0.203,2.006,happy
1.56,832,3468,2689,836,3154,0,3215,3632,0,0,0,0,0,0,0,0,0.989,3.033,9.45,0.162,0.014,-0.014,7.851,0.965,8.624,1.769,-0.173,1.29,happy
1.57,835,3505,2769,912,3211,0,3210,3611,0,0,0,0,0,0,0,0,0.924,2.969,9.469,0.179,0.003,-0.047,7.958,0.622,10.178,2.297,-0.445,0.481,happy
1.58,966,3541,2834,1023,3235,0,3197,3567,0,0,0,0,0,57,0,0,0.998,2.993,9.349,0.198,-0.022,-0.072,6.934,-0.29,9.907,2.743,-0.827,-0.338,happy
1.59,1088,3578,2958,1318,3264,0,3145,3457,0,0,0,0,0,0,0,0,1.192,2.799,9.21,0.269,-0.037,-0.087,5.155,-0.555,9.191,3.091,-1.125,-0.917,happy
1.6,1221,3632,3071,1599,3296,0,3093,3346,0,0,0,5,0,0,0,0,0.919,3.285,9.426,0.297,-0.046,-0.067,1.891,-1.676,8.531,3.538,-1.362,-1.367,happy
1.61,1346,3706,3187,1872,3334,0,3061,3238,0,0,0,0,0,0,0,0,0.919,3.438,9.55,0.235,-0.042,-0.048,0.587,-3.194,11.241,3.864,-1.439,-1.258,happy
1.62,1483,3724,3285,2067,3358,0,3015,3120,0,0,35,0,0,0,0,0,1.01,3.385,9.436,0.162,-0.022,-0.059,0.457,-3.754,12.17,4.051,-1.468,-1.199,happy
1.63,1651,3746,3360,2225,3378,0,2992,2992,0,0,0,0,0,0,0,0,1.049,3.366,9.404,0.16,-0.036,-0.056,0.632,-4.951,13.609,4.125,-1.514,-1.192,happy
1.64,1789,3799,3436,2368,3408,0,2947,2832,0,0,0,0,0,0,0,0,0.919,3.347,9.443,0.172,-0.024,-0.058,2.473,-6.582,15.519,3.929,-1.104,-1.428,happy
1.65,1936,3817,3491,2492,3431,0,2864,2582,0,0,0,0,0,0,0,3,1.051,3.383,9.352,0.164,-0.014,-0.059,1.69,-7.468,16.039,3.568,-1.124,-1.643,happy
1.66,2080,3856,3536,2559,3459,0,2758,2327,0,0,0,0,0,0,0,0,1.156,3.282,9.39,0.165,-0.01,-0.072,1.611,-14.791,18.062,2.789,-1.371,-2.059,happy
1.67,2213,3891,3569,2674,3467,0,2559,1907,0,0,0,0,0,0,0,0,1.171,3.333,9.337,0.193,0.011,-0.056,-2.777,-19.613,15.208,3.114,-1.759,-2.058,happy
1.68,2261,3902,3603,2758,3423,0,2202,8,0,0,0,0,0,0,0,0,1.128,3.443,9.297,0.2,0.073,-0.031,-5.813,-19.613,5.188,3.173,-1.901,-2.115,happy
1.69,2387,3920,3639,2815,3364,0,1912,0,0,0,0,22,0,0,0,0,1.132,3.493,9.227,0.179,0.122,-0.024,-10.496,-19.613,-3.74,2.324,-1.797,-2.298,happy
1.7,2539,3946,3677,2928,3140,0,1217,0,0,0,0,0,0,0,0,0,0.862,3.065,9.127,0.177,0.216,-0.026,-11.411,-19.613,-9.187,-0.168,-0.138,-1.373,happy
1.71,2647,3957,3712,3031,2531,0,381,0,0,0,0,0,0,0,0,1,1.113,3.543,9.409,0.272,0.278,-0.069,6.946,-9.524,19.613,-1.451,2.251,0.653,happy
1.72,2704,3957,3729,3091,2280,0,295,0,0,0,0,0,0,0,0,143,1.164,2.782,8.77,0.674,0.174,0.133,0.472,1.662,19.613,-1.028,0.094,-0.217,happy
1.73,2767,3950,3715,3098,2059,0,137,0,0,0,0,1,0,0,0,733,1.149,3.524,9.546,0.78,0.17,0.121,4.298,7.214,-3.749,-2.892,-1.037,-0.364,happy
1.74,2829,3959,3727,3121,1930,0,0,0,2,0,12,0,0,0,54,1358,1.037,3.376,9.268,0.976,0.249,0.147,-2.665,-5.037,11.801,-3.315,-0.144,0.627,happy
1.75,2946,3950,3730,3136,1406,0,0,0,0,0,0,0,0,0,460,2085,1.25,3.541,9.85,1.358,0.327,0.29,-5.499,-10.757,19.518,-2.579,-0.554,0.566,happy
1.76,3018,3899,3715,2995,1185,0,0,0,0,0,0,0,24,0,1707,3164,1.856,2.801,9.859,2.006,0.557,0.54,15.601,-19.613,19.613,-1.743,1.689,0.706,happy
1.77,3009,3658,3623,2683,633,0,0,0,0,0,0,4,655,0,2531,3637,3.158,4.118,10.52,2.827,0.775,0.59,0.192,-5.928,15.251,-0.179,0.915,0.49,happy
1.78,2921,3139,3330,2162,0,0,0,0,0,39,0,0,994,0,2620,3703,2.89,5.069,12.081,3.643,0.808,0.139,2.734,-1.666,8.399,-0.068,0.78,0.312,happy
1.79,2719,2815,2854,1807,0,0,0,0,0,71,0,0,1618,0,2733,3785,-0.242,3.433,13.101,4.897,-0.143,-0.639,1.915,-3.625,10.487,-0.156,0.601,0.287,happy
1.8,2128,1811,1677,1254,0,0,0,0,0,677,0,0,2223,0,3001,3871,2.569,5.978,14.66,6.381,-1.211,-1.807,2.217,-2.892,9.618,-0.074,0.52,0.246,happy
1.81,912,579,0,5,0,0,0,0,0,758,0,0,2615,0,3241,3922,1.501,8.918,14.569,7.294,-0.751,-3.03,2.042,-2.964,9.732,-0.065,0.654,0.282,happy
1.82,39,0,0,0,0,0,0,0,9,965,0,0,2792,0,3380,3976,4.398,14.095,19.613,3.904,-0.529,-2.995,1.369,-3.299,10.669,-0.068,0.531,0.24,happy
1.83,0,0,0,0,0,0,0,0,24,1119,0,41,2923,0,3577,4051,6.938,-0.237,19.216,0.746,0.144,-3.676,2.014,-3.019,9.646,-0.05,0.504,0.192,happy
1.84,0,0,0,0,0,0,0,0,16,1209,0,0,2985,0,3565,4041,6.531,5.997,10.386,0.33,0.136,-2.076,1.453,-2.976,9.965,-0.068,0.341,0.102,happy
1.85,0,0,0,0,0,0,0,0,0,1179,0,0,3059,18,3627,4086,4.575,-4.348,10.922,-0.48,-0.014,-2.137,1.432,-3.024,9.955,-0.063,0.196,0.003,happy
1.86,0,0,0,0,0,0,0,0,13,1203,25,11,3115,0,3681,4091,6.723,0.034,6.79,-0.499,-0.45,-1.35,1.446,-2.842,9.749,-0.059,0.152,0.014,happy
1.87,0,0,0,0,0,0,0,0,7,1195,130,0,3174,0,3747,4089,5.83,-1.235,9.213,-1.188,-0.951,-0.986,1.64,-2.662,9.246,0.026,0.196,0.062,happy
1.88,0,0,0,0,0,0,0,0,18,1197,0,0,3217,0,3729,4083,6.474,0.342,9,-1.772,-1.122,-0.388,1.774,-2.722,9.292,-0.018,0.226,0.094,happy
1.89,0,0,0,0,0,0,0,0,39,1239,268,158,3263,7,3747,4059,5.294,0.453,9.002,-2.282,-1.092,0.052,1.664,-2.377,9.21,-0.127,0.21,0.085,happy
1.9,0,0,0,0,0,0,0,0,38,1469,1361,159,3321,9,3699,4041,3.615,1.245,8.622,-2.756,-1.183,0.474,1.566,-2.655,9.505,-0.171,0.193,0.102,happy
1.91,0,0,0,0,0,0,0,0,57,1672,1471,207,3369,27,3703,4019,1.53,1.616,8.124,-3.024,-1.413,0.668,1.391,-2.732,9.548,-0.197,0.1,0.09,happy
1.92,0,0,0,0,0,0,0,0,47,1809,1742,447,3375,20,3675,3965,0.931,2.459,8.32,-3.295,-1.645,0.68,1.417,-2.971,9.651,-0.183,0.056,0.088,happy
1.93,0,0,0,0,0,0,0,0,42,1929,1814,529,3453,19,3666,3939,0.077,3.187,9.337,-3.503,-1.688,0.609,1.279,-3.043,9.747,-0.182,-0.029,0.095,happy
1.94,0,0,0,0,0,0,0,0,109,2109,2034,727,3493,39,3629,3899,-0.814,4.48,10.597,-3.733,-1.897,0.483,1.456,-2.962,9.613,-0.12,0.011,0.106,happy
1.95,0,0,0,0,0,0,0,0,135,2359,2147,785,3535,36,3653,3865,0.503,5.933,11.272,-3.996,-1.993,0.443,1.463,-2.871,9.527,-0.152,-0.016,0.112,happy
1.96,0,0,0,0,0,0,0,0,147,2644,2183,1193,3623,104,3641,3797,0.189,7.058,11.993,-3.953,-1.983,0.759,1.475,-2.962,9.426,-0.231,-0.022,0.144,happy
1.97,0,0,0,0,0,0,0,0,204,2773,2247,1397,3699,44,3611,3735,-0.895,8.382,14.83,-3.829,-2.049,1.08,1.518,-3.381,9.653,-0.193,-0.007,0.156,happy
1.98,0,0,0,0,0,0,0,0,244,2807,2249,1560,3720,45,3595,3692,-2.727,8.703,14.545,-3.636,-1.863,1.272,1.556,-3.175,9.522,-0.128,-0.005,0.168,happy
1.99,0,0,0,0,0,0,0,0,479,2951,2444,1735,3784,47,3535,3603,-3.179,11.801,17.001,-3.298,-1.719,1.169,1.563,-3.105,9.309,-0.136,0.042,0.203,happy
2,0,0,0,0,0,0,0,0,637,3037,2329,2071,3838,51,3304,3469,-0.936,15.076,16.393,-3.632,-0.495,1.058,1.52,-3.203,9.452,-0.141,0.13,0.238,happy
2.01,0,0,0,0,0,0,0,0,669,3096,2313,2235,3833,5,3031,3381,-3.555,12.55,6.78,-3.099,-0.184,0.685,1.386,-3.347,9.522,-0.126,0.126,0.203,happy
2.02,0,0,0,0,0,0,0,0,1146,3103,2326,2696,3853,55,2739,2937,-4.896,16.702,1.257,-2.15,-1.142,0.534,1.381,-3.211,9.445,-0.156,0.134,0.135,happy
2.03,0,0,0,0,0,0,0,0,1910,3177,2329,2813,3795,48,2259,1913,-5.097,17.437,-10.455,-0.502,0.592,1.222,1.46,-3.254,9.261,-0.16,0.204,0.089,happy
2.04,0,0,0,0,0,0,0,0,2163,3224,2339,2934,3743,51,1785,1545,-9.546,10.659,-0.749,1.891,1.698,0.315,1.427,-3.354,9.376,-0.177,0.245,0.073,happy
2.05,0,0,0,0,0,0,0,0,2783,3260,2362,3135,3501,47,605,1005,-0.192,3.577,19.613,0.914,1.348,-0.389,1.741,-1.954,11.392,-0.74,0.224,0.093,happy
2.06,0,0,0,0,64,0,99,1341,3159,3191,2354,3347,2723,1,60,361,0.867,-4.391,4.307,1.704,0.378,-0.725,1.968,-0.666,9.795,-0.292,0.257,0.119,happy
2.07,0,0,0,0,255,0,644,2757,3418,3051,2359,3373,2215,7,6,325,0.931,5.54,14.143,2.722,0.004,-0.321,0.994,-4.266,8.88,-0.608,0.177,-0.06,happy
2.08,0,0,0,0,880,0,1468,3219,3683,2972,2367,3567,1035,6,0,284,0.79,4.496,12.371,2.021,-0.292,-0.033,1.343,-3.266,9.017,-0.893,0.244,-0.21,happy
2.09,0,128,0,0,1105,0,2194,3395,3866,2800,2526,3676,201,6,5,229,1.032,7.185,18.277,1.528,0.974,-0.845,1.437,-2.942,9.098,-1.698,0.293,-0.468,happy
2.1,0,1242,0,0,1755,0,2496,3472,3931,2552,2423,3685,0,0,10,165,0.148,2.84,11.562,0.484,1.106,-0.385,2.564,-3.005,10.36,-2.361,0.554,-0.585,happy
2.11,0,2043,0,0,2058,0,2695,3536,3992,1727,2520,3623,0,2,0,97,1.267,3.565,11.116,0.32,0.839,-0.083,2.614,-2.737,11.164,-3.794,1.623,-0.425,happy
2.12,0,2480,29,0,2350,0,2909,3625,3943,440,1430,2860,0,0,0,60,0.175,3.079,11.327,0.335,0.581,-0.208,1.393,-4.319,19.613,-5.593,1.738,1.459,happy
2.13,0,2802,530,0,2527,0,2986,3650,3627,54,0,1971,0,0,0,0,1.231,2.983,9.924,0.205,0.267,-0.319,2.662,-9.577,18.459,-6.316,2.084,2.945,happy
2.14,0,2997,1150,19,2672,0,3042,3682,2937,0,0,180,0,0,0,0,0.776,3.452,10.025,0.034,0.12,-0.179,1.611,-5.509,11.736,-6.117,2.239,3.658,happy
2.15,0,3118,1520,77,2771,0,3120,3696,0,0,0,0,0,0,0,0,1.267,3.036,9.577,0.054,0.01,-0.004,2.069,-3.946,19.613,-1.078,2.038,3.526,happy
2.16,0,3159,1703,133,2811,0,3138,3707,0,0,0,0,0,0,0,0,1.202,2.753,9.486,0.051,0.064,-0.029,8.26,-5.023,19.613,0.179,-0.431,1.309,happy
2.17,0,3217,1840,141,2862,0,3206,3722,0,0,0,0,0,0,0,0,1.453,2.871,9.486,0.069,0.084,-0.032,11.677,0.448,6.472,1.118,0.286,0.837,happy
2.18,0,3259,1934,118,2929,0,3219,3696,1,0,0,0,0,0,0,0,1.298,2.909,9.665,0.08,0.077,-0.045,6.56,2.674,6.373,1.332,0.118,0.087,happy
2.19,0,3298,2039,224,3013,0,3238,3696,22,0,0,0,0,0,0,0,1.24,2.971,9.689,0.103,0.063,-0.032,5.509,0.702,6.768,1.526,-0.409,-0.515,happy
2.2,0,3337,2118,256,3070,0,3239,3685,0,0,0,0,0,0,0,0,1.113,2.919,9.543,0.09,0.043,-0.043,5.476,-0.316,9.658,1.991,-0.789,-0.973,happy
2.21,0,3362,2176,271,3109,0,3233,3659,0,0,0,0,0,0,0,39,1.271,2.935,9.462,0.078,0.005,-0.062,4.877,-1.221,10.628,2.695,-0.857,-1.358,happy
2.22,0,3387,2240,279,3136,0,3223,3622,0,0,0,0,0,0,0,0,1.35,2.535,9.256,0.128,-0.054,-0.073,2.282,-1.137,9.218,3.176,-1.048,-1.537,happy
2.23,0,3415,2319,310,3175,0,3215,3579,0,0,0,0,0,0,0,0,1.269,2.969,9.529,0.114,-0.115,-0.12,0.469,-1.223,7.549,3.422,-1.357,-1.482,happy
2.24,21,3474,2429,386,3228,0,3226,3534,0,0,0,0,0,0,0,0,1.302,2.782,9.392,0.248,-0.011,-0.07,0.481,-1.535,7.338,3.512,-1.425,-1.26,happy
2.25,79,3511,2559,417,3251,0,3199,3494,0,0,0,0,0,69,0,0,1.152,2.962,9.582,0.245,-0.048,-0.083,0.651,-2.284,8.636,3.624,-1.393,-1.033,happy
2.26,193,3539,2703,541,3278,0,3184,3407,0,0,0,0,0,0,0,0,1.209,2.942,9.445,0.252,-0.04,-0.085,0.632,-3.431,10.551,3.84,-1.47,-0.853,happy
2.27,248,3611,2791,733,3281,0,3091,3306,0,0,0,0,0,0,3,0,1.331,3.014,9.29,0.281,-0.049,-0.092,0.95,-4.156,10.963,4.004,-1.644,-0.788,happy
2.28,393,3653,3018,996,3378,0,3140,3248,0,0,0,0,0,0,0,0,1.41,3.048,9.316,0.286,-0.043,-0.112,0.929,-4.934,11.693,4.016,-1.894,-0.857,happy
2.29,527,3696,3165,1331,3411,0,3104,3136,0,0,0,0,0,0,0,0,1.226,3.249,9.402,0.25,-0.03,-0.107,1.257,-6.167,14.382,3.759,-1.87,-1.035,happy
2.3,720,3761,3280,1627,3455,0,3053,3047,0,0,0,0,0,3,0,0,1.401,3.309,9.402,0.226,0.026,-0.111,-0.223,-6.816,16.431,3.53,-1.91,-1.175,happy
2.31,865,3786,3377,1904,3479,0,2991,2934,0,0,0,0,0,0,0,0,1.29,3.206,9.328,0.245,-0.019,-0.113,-1.561,-11.183,18.033,2.887,-2.538,-1.462,happy
2.32,1073,3843,3457,2151,3521,0,2879,2752,43,0,0,0,0,0,0,0,1.243,3.139,9.266,0.306,0,-0.135,-3.338,-18.747,17.98,2.894,-2.184,-1.975,happy
2.33,1127,3854,3517,2291,3521,0,2661,2270,0,0,0,0,0,4,0,0,1.398,3.388,9.33,0.396,0.044,-0.161,-3.309,-19.613,12.917,3.041,-1.324,-2.12,happy
2.34,1344,3905,3583,2511,3521,0,2379,822,0,0,0,0,0,0,0,0,1.056,3.63,9.574,0.3,0.038,-0.099,-15.05,-19.613,-5.835,1.863,-1.213,-1.567,happy
2.35,1604,3925,3647,2687,3445,0,1906,0,0,0,0,0,0,0,0,0,1.049,3.433,9.292,0.31,0.107,-0.079,-8.382,-19.613,-17.2,-1.978,0.609,-0.649,happy
2.36,1870,3952,3680,2814,3099,0,792,0,0,0,0,0,0,0,0,0,1.322,3.242,9.345,0.466,0.13,-0.103,-1.69,-4.628,3.967,-2.2,2.988,0.823,happy
2.37,2107,3963,3698,2877,2493,0,446,0,0,0,0,0,0,0,0,3,2.923,0.211,8.557,0.54,0.177,-0.199,-0.644,0.692,19.613,0.727,1.547,1.162,happy
2.38,2320,3931,3696,2896,2172,0,277,0,0,5,0,0,0,0,0,639,1.542,3.96,9.44,1.029,0.082,0.088,2.856,3.045,7.76,-2.13,-0.717,-0.264,happy
2.39,2510,3931,3703,2944,1983,0,129,0,0,0,0,0,0,0,0,1235,1.264,3.598,9.421,1.199,0.301,0.159,2.167,-1.314,2.172,-2.712,0.227,0.248,happy
2.4,2481,3863,3475,2997,1515,0,0,0,0,0,0,0,0,0,213,1880,0.496,3.608,9.23,1.49,0.35,0.227,-6.4,-8.466,19.613,-2.332,-0.065,0.266,happy
2.41,2978,3918,3719,3054,1251,0,0,0,0,0,0,0,0,0,1142,2904,2.447,2.454,9.874,2.135,0.56,0.434,4.077,-5.272,11.111,-1.988,-0.514,0.459,happy
2.42,3214,3797,3663,2807,589,0,0,0,5,0,53,0,181,0,2163,3525,2.502,2.895,9.603,3.272,0.774,0.712,3.091,-1.733,8.629,-0.226,1.278,0.451,happy
2.43,3371,3121,3399,2079,0,0,0,0,0,0,0,0,371,0,2332,3660,2.885,5.969,12.874,4.187,0.83,0.164,1.132,-3.472,11.389,-0.24,1.11,0.49,happy
2.44,3406,2850,2981,1712,0,0,0,0,0,0,0,0,653,0,2447,3755,2.67,6.998,12.254,5.181,0.415,-0.719,1.008,-2.222,9.048,-0.271,1.093,0.533,happy
2.45,3280,2416,2206,1462,0,0,0,0,0,0,0,0,759,0,2461,3819,1.185,5.001,19.613,6.47,-0.28,-1.496,0.757,-3.412,10.704,-0.332,0.803,0.408,happy
2.46,1943,1104,99,80,0,0,0,0,2,53,115,51,1358,0,2782,3961,0.838,8.569,17.439,7.663,0.088,-2.577,1.192,-3.036,9.819,-0.456,0.338,0.311,happy
2.47,370,23,0,0,0,0,0,0,109,695,0,471,1997,2,3019,4057,4.264,10.726,19.613,3.073,0.968,-2.869,1.499,-3.129,9.316,-0.258,0.258,0.252,happy
2.48,0,0,0,0,0,0,0,0,133,701,1062,757,2163,36,3123,4091,9.505,-5.025,14.437,0.245,0.855,-3.695,1.173,-3.211,9.972,-0.151,0.311,0.226,happy
2.49,0,0,0,0,0,0,0,0,153,839,1269,845,2312,41,3231,4095,8.578,-4.805,16.132,-0.851,0.387,-1.855,0.998,-3.359,9.989,-0.094,0.169,0.181,happy
2.5,0,0,0,0,0,0,0,0,269,935,1282,1087,2415,47,3304,4095,6.61,-3.663,9.512,-1.152,0.08,-0.69,1.132,-3.388,9.673,-0.041,0.16,0.122,happy
2.51,0,0,0,0,0,0,0,0,313,779,1328,1130,2471,50,3379,4095,7.295,-1.662,9.457,-1.973,-0.933,0.111,1.101,-3.053,9.428,0.049,0.19,0.118,happy
2.52,0,0,0,0,0,0,0,0,371,731,1389,1205,2431,51,3384,4095,5.258,-0.967,9.847,-2.535,-0.781,0.615,1.293,-2.856,9.392,0.017,0.179,0.136,happy
2.53,0,0,0,0,0,0,0,0,447,743,1461,1295,2295,48,3382,4095,2.502,-0.661,9.586,-3.016,-0.84,0.929,1.25,-2.701,9.333,-0.042,0.155,0.165,happy
2.54,0,0,0,0,0,0,0,0,379,1083,1904,1722,2439,52,3301,4095,0.378,1.022,9.431,-3.629,-1.262,0.858,1.039,-3.302,9.706,-0.114,0.133,0.159,happy
2.55,0,0,0,0,0,0,0,0,427,1262,2065,1865,2383,43,3245,4089,0.18,2.842,10.29,-4.041,-1.21,0.588,0.931,-3.1,9.807,-0.119,0.073,0.092,happy
2.56,0,0,0,0,0,0,0,0,507,1640,2126,2053,2294,51,3133,4043,-0.524,5.128,12.024,-4.401,-1.347,0.276,1.178,-3.072,9.448,-0.069,0.131,0.175,happy
2.57,0,0,0,0,0,0,0,0,567,1835,2157,2456,2261,49,3037,3998,0.424,6.859,13.027,-4.446,-1.551,0.29,1.025,-3.201,9.474,-0.128,0.095,0.17,happy
2.58,0,0,0,0,0,0,0,0,742,1934,2198,2663,2327,47,2985,3975,0.831,9.244,14.643,-4.461,-1.441,0.533,1.065,-3.338,9.483,-0.115,0.087,0.133,happy
2.59,0,0,0,0,0,0,0,0,1147,2197,2218,2909,2467,47,2840,3911,1.573,12.072,15.847,-4.176,-1.133,0.873,1.006,-3.349,9.354,-0.089,0.107,0.136,happy
2.6,0,0,0,0,0,0,0,0,1895,2472,2244,3091,2667,73,2603,3823,-0.946,14.688,16.817,-3.664,-1.324,1.455,1.008,-3.278,9.392,-0.073,0.061,0.089,happy
2.61,0,0,0,0,0,0,0,0,2274,2595,2259,3197,2697,52,2391,3759,-0.39,18.869,17.111,-3.643,-1.132,1.673,0.948,-3.381,9.534,-0.112,0.035,0.052,happy
2.62,0,0,0,0,0,0,0,0,2847,2718,2244,3341,2809,50,1897,3551,-3.053,17.286,7.819,-3.392,-0.88,2.302,1.104,-3.555,9.799,-0.217,0.021,0.01,happy
2.63,0,0,0,0,237,0,0,0,3318,2937,2275,3448,2961,46,1379,2937,-10.58,19.613,-3.651,-2.145,-1.609,2.755,1.01,-3.486,9.347,-0.268,-0.22,-0.037,happy
2.64,0,0,0,0,384,0,0,0,3492,3014,2270,3503,3052,37,1016,2251,-10.874,15.783,-17.679,0.642,-0.664,1.84,0.812,-3.469,9.459,-0.261,-0.233,-0.048,happy
2.65,0,0,0,0,0,0,0,0,3741,3175,2285,3579,2743,41,189,983,-2.995,11.497,2.775,2.833,1.99,-0.605,1.19,-3.833,9.663,-0.263,0.093,-0.002,happy
2.66,0,0,0,0,90,0,0,46,3885,3241,2305,3661,2105,6,5,541,2.15,3.251,19.551,1.241,0.043,-0.238,0.919,-1.044,9.977,-0.688,0.201,-0.082,happy
2.67,0,0,0,0,351,0,313,2033,3929,3140,2285,3683,1683,5,2,424,1.465,-6.881,-1.365,2.348,-0.717,-0.721,1.302,-3.615,9.541,-0.582,0.143,-0.126,happy
2.68,0,0,0,0,576,0,1023,3014,3967,2939,2311,3722,999,5,3,428,-3.828,9.957,19.613,3.246,-0.438,-0.68,0.73,-3.349,8.703,-0.771,0.079,-0.189,happy
2.69,0,0,0,0,1146,0,2082,3328,4042,2851,2352,3797,249,0,3,447,19.613,2.361,17.913,1.617,-0.807,0.103,1.18,-3.127,9.292,-1.135,0.112,-0.353,happy
2.7,0,1282,0,0,1782,0,2512,3453,4077,2405,2405,3735,0,1,0,227,-2.011,2.954,11.758,0.76,1.834,-0.277,4.812,-2.729,11.55,-2.534,0.556,-0.611,happy
2.71,0,2063,0,0,2109,0,2694,3446,4084,1971,2485,3796,0,33,0,181,1.068,3.486,10.927,0.33,1.053,-0.163,4.477,-4.154,11.779,-3.285,1.033,-0.635,happy
2.72,0,2559,0,0,2423,0,2896,3568,3995,153,2257,3129,0,0,0,111,1.48,2.765,9.431,0.259,0.637,-0.167,2.533,-2.205,11.368,-4.716,2.258,0.536,happy
2.73,0,2986,219,0,2673,0,3008,3613,3573,0,0,2041,0,0,0,55,0.577,3.366,10.025,0.31,0.345,-0.296,2.672,-9.009,17.126,-6.007,1.836,2.988,happy
2.74,146,3215,1424,0,2831,0,3093,3616,3310,0,0,1076,0,0,0,5,0.639,3.158,10.048,0.287,-0.1,-0.652,5.899,-11.914,15.294,-6.031,1.618,3.842,happy
2.75,272,3366,2163,176,2961,0,3184,3628,22,0,0,25,0,5,0,0,1.46,2.971,9.433,0.276,0.159,-0.014,-0.922,-6.606,18.883,-3.264,1.917,3.851,happy
2.76,471,3461,2544,492,3088,0,3242,3631,0,0,0,0,0,0,0,0,1.082,3.213,9.694,0.212,0.123,-0.031,9.426,-2.763,19.613,-0.121,-0.841,2.429,happy
2.77,563,3526,2705,629,3151,0,3254,3613,0,0,0,0,24,0,0,0,1.207,2.866,9.627,0.244,0.026,-0.078,9.883,0.204,8.77,0.747,-0.357,1.957,happy
2.78,671,3573,2848,803,3229,0,3253,3583,0,0,0,0,0,0,0,0,1.185,2.95,9.481,0.277,0.056,-0.116,8.904,3.096,7.25,1.123,-0.567,0.871,happy
2.79,751,3606,2975,981,3291,0,3248,3543,0,0,0,17,0,0,16,0,1.235,3.124,9.589,0.293,-0.023,-0.103,7.92,0.644,7.901,1.339,-0.968,-0.106,happy
2.8,894,3655,3120,1303,3323,0,3197,3424,0,0,0,0,0,0,0,0,1.135,3.177,9.495,0.277,-0.065,-0.061,6.33,0.611,9.787,1.843,-1.183,-0.829,happy
2.81,995,3691,3179,1469,3354,0,3177,3334,0,0,0,0,0,0,0,0,1.183,3.225,9.457,0.23,-0.05,-0.1,3.407,-0.122,11.126,2.482,-1.338,-1.285,happy
2.82,1149,3731,3266,1744,3387,0,3103,3137,0,0,0,0,0,2,0,0,1.128,3.261,9.323,0.263,0.022,-0.118,-1.693,-0.649,9.1,3.328,-2.013,-1.045,happy
2.83,1269,3764,3327,1966,3395,0,3010,2942,0,0,0,0,0,0,0,0,1.07,3.452,9.428,0.241,0.018,-0.065,-1.504,-2.246,9.548,3.704,-1.953,-0.289,happy
2.84,1350,3773,3373,2110,3413,0,2929,2737,0,0,0,0,0,0,0,0,1.101,3.417,9.395,0.2,-0.031,-0.059,-0.86,-3.594,10.901,3.864,-2.117,-0.131,happy
2.85,1467,3811,3435,2213,3424,0,2847,2544,0,0,0,0,0,0,0,0,1.183,3.361,9.395,0.122,-0.069,-0.072,1.489,-4.997,11.26,4.04,-2.305,-0.467,happy
2.86,1610,3863,3487,2339,3465,0,2783,2375,0,0,0,0,0,0,0,0,1.116,3.412,9.378,0.088,-0.063,-0.074,-0.048,-5.588,13.898,3.885,-2.639,-1.155,happy
2.87,1696,3858,3511,2414,3467,0,2689,2112,0,0,0,0,0,0,0,0,1.183,3.39,9.371,0.07,-0.019,-0.036,-1.372,-6.325,15.818,3.899,-2.63,-1.186,happy
2.88,1764,3887,3565,2519,3488,0,2608,1701,22,0,0,0,0,0,0,0,1.274,3.338,9.38,0.125,-0.011,-0.053,-4.688,-8.966,18.615,3.692,-2.842,-0.653,happy
2.89,1890,3915,3598,2617,3503,0,2439,179,0,0,0,0,0,0,0,0,1.214,3.318,9.227,0.187,-0.001,-0.072,-7.075,-13.886,17.138,3.342,-3.279,-0.632,happy
2.9,2053,3917,3630,2689,3474,0,2087,0,0,0,0,0,0,0,0,0,1.159,3.287,9.29,0.239,0.028,-0.067,-6.407,-15.627,13.218,2.924,-3.227,-0.722,happy
2.91,2253,3858,3622,2671,3349,0,1533,0,0,0,0,0,0,0,0,0,1.087,3.464,9.459,0.339,0.038,-0.034,-8.047,-19.587,2.737,1.755,-1.753,-1.22,happy
2.92,2373,3930,3649,2789,3277,0,1081,0,1590,2523,0,2491,2585,1671,1567,3110,1.061,3.596,9.294,0.385,0.051,-0.018,-12.658,-19.613,0.366,1.212,-1.555,-0.945,happy
2.93,2513,3934,3671,2840,2705,0,450,0,0,0,0,0,0,0,0,0,1.211,3.227,9.383,0.41,0.064,-0.035,-5.392,-17.538,-13.443,-2.136,0.601,-1.415,happy
2.94,2649,3935,3751,2877,2334,0,257,0,0,0,0,0,0,0,0,0,1.65,3.278,9.201,0.781,0.045,0.106,-2.387,-3.989,6.414,-1.666,3.749,0.065,happy
2.95,2773,3946,3696,2903,2102,0,209,0,0,0,0,0,0,0,0,0,1.575,3.539,9.201,0.873,0.115,0.133,2.346,-0.256,19.613,0.88,2.055,0.611,happy
2.96,2859,3888,3650,2887,1955,0,41,0,0,0,0,0,0,0,0,211,1.42,3.79,9.28,1.009,0.185,0.129,2.236,1.765,8.315,-1.94,0.013,-0.613,happy
2.97,2945,3929,3698,2960,1877,0,0,0,0,0,0,0,0,0,0,811,1.144,3.838,9.21,1.153,0.182,0.111,1.207,0.668,3.077,-2.399,1.093,0.283,happy
2.98,3048,3950,3707,2975,1591,0,0,0,4,0,0,0,0,0,3,1223,1.07,3.826,9.251,1.375,0.219,0.14,-2.792,-4.963,16.616,-2.144,0.917,0.46,happy
2.99,3120,3936,3706,2960,1438,0,0,0,0,0,0,0,0,0,243,1971,1.453,3.661,9.618,1.664,0.22,0.246,-3.627,-2.03,13.053,-2.225,0.326,0.286,happy
3,3151,3909,3685,2837,1223,0,0,0,0,0,0,0,0,0,728,2516,1.35,3.077,9.397,2.074,0.428,0.344,1.238,-3.172,10.072,-2.241,0.362,0.557,happy
3.01,3217,3863,3648,2509,1061,0,0,0,0,0,0,0,0,0,1319,2877,2.255,3.201,10.096,2.5,0.586,0.418,19.613,0.816,19.613,-2.275,0.335,0.439,happy
3.02,3248,3520,3506,1969,691,0,0,0,61,585,0,0,500,0,2223,3445,3.12,3.713,10.429,3.441,0.701,0.381,0.299,-4.353,12.424,-1.03,1.96,0.983,happy
3.03,3062,3025,2793,1405,0,0,0,0,573,1215,0,19,1041,0,2537,3688,-0.302,3.79,13.386,5.036,-0.086,-0.144,1.652,-4.053,10.032,-0.992,0.852,0.6,happy
3.04,2253,2167,1203,383,0,0,0,0,729,1511,2,429,1415,4,2695,3861,3.27,5.851,15.847,7.062,-1.03,-1.28,-4.034,-1.654,13.331,-0.872,0.052,0.449,happy
3.05,1248,814,0,0,0,0,0,0,831,1748,1579,1288,1955,51,2952,3997,2.741,11.861,13.266,7.015,0.196,-1.96,0.802,-3.723,9.893,-0.335,0.008,0.177,happy
3.06,0,141,0,0,0,0,0,0,1079,1897,2003,1655,2214,51,3135,4072,5.65,1.937,19.613,1.45,1.162,-2.331,1.307,-3.8,9.632,-0.106,0.056,0.101,happy
3.07,0,0,0,0,0,0,0,0,1257,1916,2014,1779,2387,47,3245,4092,4.247,-6.675,14.863,-0.605,1.453,-1.517,1.324,-3.421,9.567,-0.046,0.097,0.073,happy
3.08,0,0,0,0,0,0,0,0,1464,2024,1996,1947,2542,48,3397,4095,5.727,-1.863,10.058,-1.144,1.306,-0.86,1.166,-3.479,9.491,-0.074,0.02,0.041,happy
3.09,0,0,0,0,0,0,0,0,1675,1925,2039,2090,2671,47,3453,4095,8.406,-0.294,8.794,-1.996,1.188,0.149,1.14,-3.306,9.376,-0.071,-0.002,0.052,happy
3.1,0,0,0,0,0,0,0,0,1829,1943,2029,2095,2717,49,3507,4095,6.065,0.369,7.81,-2.818,1.006,1.434,1.235,-3.496,9.419,-0.082,-0.003,0.038,happy
3.11,0,0,0,0,0,0,0,0,2055,1979,2142,2195,2777,50,3412,4062,4.223,0.946,6.943,-3.271,0.648,2.234,1.312,-3.598,9.677,-0.071,0.084,0.035,happy
3.12,0,0,0,0,0,0,0,0,2335,2068,2067,2293,2789,47,3291,4010,3.991,3.56,8.938,-3.664,0.834,2.623,1.144,-3.354,9.263,-0.11,0.092,0.019,happy
3.13,0,0,0,0,0,0,0,0,2480,2041,2111,2373,2799,51,3241,3983,3.814,5.377,8.966,-4.114,1.217,2.846,1.207,-3.512,9.438,-0.088,0.09,0.029,happy
3.14,0,0,0,0,0,0,0,0,2677,2093,2047,2494,2797,47,3182,3935,4.877,7.171,10.357,-4.167,1.298,3.207,1.106,-3.464,9.369,-0.07,0.058,0.021,happy
3.15,0,0,0,0,0,0,0,0,2813,2183,2154,2667,2839,47,3066,3917,11.325,11.36,11.899,-4.259,2.056,3.987,1.317,-3.424,9.364,-0.071,0.033,0.017,happy
3.16,0,0,0,0,0,0,0,0,2900,2207,2183,2734,2879,48,3187,3903,10.57,15.984,10.695,-3.845,2.777,5.411,1.099,-3.589,9.33,-0.061,-0.007,0.018,happy
3.17,0,0,0,0,0,0,0,0,3067,2317,2218,2860,3007,47,3245,3887,11.054,18.9,6.551,-2.717,2.798,5.832,0.996,-3.639,9.431,-0.024,-0.047,0.017,happy
3.18,0,0,0,0,209,0,0,0,3209,2507,2231,2969,3158,47,3207,3852,5.509,17.607,4.13,-1.61,1.945,5.171,1.161,-3.4,9.325,-0.016,-0.071,0.019,happy
3.19,0,0,0,0,213,0,0,0,3263,2575,2242,2991,3225,47,3107,3812,0.333,15.548,3.57,-0.286,-1.369,3.752,1.326,-3.328,9.29,-0.036,-0.092,0.01,happy
3.2,0,0,0,0,111,0,0,0,3359,2655,2242,3003,3321,47,2708,3744,6.682,18.009,3.098,0.15,-1.157,2.77,1.405,-3.639,9.414,-0.064,-0.179,0.001,happy
3.21,0,0,0,0,208,0,0,0,3439,2803,2280,2871,3453,46,2489,3384,6.62,13.932,-2.382,0.514,0.204,2.24,1.104,-3.627,9.177,-0.006,-0.22,-0.014,happy
3.22,0,0,0,0,271,0,0,0,3447,2845,2280,2748,3482,47,2292,3129,9.27,12.349,-1.216,1.616,0.061,2.191,1.456,-3.51,9.129,-0.017,-0.147,-0.006,happy
3.23,0,0,0,0,281,0,0,0,3499,2902,2313,2925,3475,55,1775,2635,7.353,12.194,2.49,2.614,0.555,3.947,1.532,-3.627,9.474,0.053,0.008,0.013,happy
3.24,0,922,0,0,430,0,0,0,3571,2951,2316,2894,3323,51,1059,1900,-19.613,18.026,15.038,2.243,2.438,3.163,1.377,-3.883,9.378,-0.033,-0.031,-0.038,happy
3.25,17,2102,0,0,1037,0,0,0,3601,2958,2349,2868,3119,46,905,1447,2.655,2.385,10.999,-1.331,1.224,0.509,1.259,-3.797,9.352,0.006,0.015,-0.04,happy
3.26,288,2783,227,0,1149,0,0,0,3589,2927,2321,2925,2856,47,277,1198,-3.417,5.066,15.62,-0.147,-0.04,-0.084,1.64,-4.796,9.301,0.08,0.056,0.043,happy
3.27,718,3174,1532,0,1712,0,422,0,3486,2807,2367,3051,2428,13,39,868,1.738,3.474,11.612,0.151,-0.33,-0.763,1.537,-3.519,9.546,-0.022,0.118,0.108,happy
3.28,896,3159,2191,195,2225,0,1333,961,3549,2770,2341,3032,2087,11,37,619,1.635,4.788,10.697,0.265,-0.255,-0.269,2.32,-3.824,9.862,-0.169,0.109,0.079,happy
3.29,1270,3363,2534,464,2416,0,1822,2029,3370,2515,2308,3037,1171,4,7,572,0.103,3.706,10.08,0.136,-0.079,0.079,0.534,-3.594,9.687,-0.241,0.201,0.11,happy
3.3,1398,3363,2623,496,2427,0,2141,2358,3499,2007,2444,2952,487,5,2,553,0.658,3.699,9.589,0.069,0.006,0.114,-0.06,-4.058,9.373,-0.385,-0.059,0.284,happy
3.31,1459,3406,2677,396,2613,0,2411,2610,3524,1811,2290,2952,345,3,7,365,1.755,3.438,9.199,0.031,-0.005,0.095,0.156,-3.642,9.292,-0.155,-0.369,0.892,happy
3.32,1507,3471,2725,474,2724,0,2582,2819,3500,1453,2272,2782,107,5,2,270,1.654,3.383,8.88,0.055,-0.03,0.031,1.221,-4.501,9.232,0.027,-0.944,2.261,happy
3.33,1600,3514,2781,619,2832,0,2717,2975,3442,1235,2226,2439,0,0,0,159,1.185,3.457,9.278,0.048,-0.078,-0.094,1.824,-4.334,8.636,0.272,-1.3,3.234,happy
3.34,1696,3487,2800,830,2804,0,2737,3014,3427,940,2198,2265,0,0,0,159,1.171,3.364,9.232,0.11,-0.064,-0.046,2.562,-4.966,8.698,0.373,-1.305,3.455,happy
3.35,1827,3392,2671,879,2836,0,2703,2914,3341,701,1824,1674,0,1,0,126,1.149,3.603,9.412,0.138,-0.033,0.026,0.843,-4.096,8.701,0.508,-1.361,3.647,happy
3.36,2000,3568,2949,1296,2935,0,2875,3156,3155,0,1225,1335,0,0,0,108,1.448,3.452,9.038,0.131,0.056,0.017,1.417,-4.187,9.263,0.53,-1.25,3.51,happy
3.37,2077,3511,2960,1519,2832,0,2779,3115,2937,0,918,1081,0,0,0,77,1.539,3.56,9.024,0.095,0.061,-0.028,1.087,-4.319,9.199,0.518,-1.335,3.439,happy
3.38,2276,3562,3058,1744,2900,0,2870,3149,2403,0,0,537,0,0,0,135,1.295,3.795,9.304,0.054,0.126,-0.013,0.697,-3.91,9.859,0.47,-1.402,3.485,happy
3.39,2448,3659,3152,1967,2973,0,2913,3198,1115,0,0,0,0,0,0,6,0.929,3.57,9.412,0.045,0.082,0.01,-1.14,-4.757,9.701,0.746,-1.316,3.695,happy
3.4,2550,3655,3225,2108,2963,0,2900,3158,521,0,0,0,0,0,0,1,1.147,3.656,9.244,0.045,0.116,0.031,-6.235,-6.208,10.233,0.858,-1.487,4.123,happy
3.41,2689,3713,3305,2257,2984,0,2928,3150,255,0,0,0,5,0,0,0,1.111,3.603,9.201,0.027,0.124,0.046,-5.72,-7.566,12.886,1.442,-1.652,5.04,happy
3.42,2822,3793,3335,2448,3005,55,2923,3162,237,0,0,0,0,0,0,12,1.065,3.699,9.335,0.04,0.121,0.046,-1.736,-5.052,7.733,1.394,-1.105,4.678,happy
3.43,2851,3778,3395,2517,2986,27,2902,3071,183,0,0,0,0,0,0,0,1.034,3.587,9.282,0.032,0.1,0.028,-2.227,-4.594,8.547,1.187,-0.921,4.319,happy
3.44,2867,3738,3379,2550,2959,59,2838,2983,35,40,0,0,0,0,0,0,1.077,3.551,9.378,0.042,0.077,0.014,-3.359,-2.768,7.274,0.748,-0.605,4.013,happy
3.45,2881,3714,3365,2559,2944,0,2786,2882,0,8,0,0,0,0,0,0,0.996,3.579,9.299,0.044,0.076,0.029,-3.448,-4.477,12.409,0.723,-0.395,4.205,happy
3.46,2945,3744,3414,2645,2970,0,2803,2836,0,0,0,0,0,0,0,0,1.12,3.591,9.194,0.046,0.084,0.023,-3.603,-4.063,12.227,0.92,-0.586,4.139,happy
3.47,2979,3761,3431,2672,2983,0,2779,2771,0,0,0,0,0,0,0,0,1.03,3.548,9.333,0.043,0.071,0.008,-1.343,-3.926,9.649,1.125,-0.586,4.166,happy
3.48,2999,3773,3440,2690,2978,0,2768,2724,0,0,0,0,0,18,0,0,0.991,3.582,9.313,0.038,0.065,0.015,-0.816,-4.319,9.213,1.079,-0.594,4.118,happy
3.49,3015,3765,3455,2717,2969,0,2747,2593,0,0,0,0,0,0,6,0,1.049,3.517,9.239,0.046,0.078,0.012,0.024,-5.198,7.927,0.879,-0.676,4.056,happy
3.5,3031,3775,3456,2720,2943,0,2731,2506,0,0,0,0,0,0,9,0,1.02,3.603,9.222,0.046,0.111,0.013,0.546,-5.511,7.688,0.731,-0.653,3.997,happy
3.51,3036,3776,3455,2753,2928,0,2688,2415,0,0,0,0,0,0,0,0,1.001,3.563,9.242,0.041,0.111,0.007,0.8,-6.175,8.116,0.646,-0.612,3.869,happy
3.52,3039,3784,3329,2795,2891,0,2559,2395,0,11,0,0,0,0,0,0,0.857,3.536,9.21,0.048,0.094,0.015,1.453,-6.342,8.382,0.601,-0.605,3.653,happy
3.53,3088,3802,3495,2807,2899,0,2671,2365,0,0,0,0,0,0,0,0,0.934,3.467,9.287,0.058,0.079,0.008,1.808,-6.263,7.508,0.502,-0.585,3.41,happy
3.54,3119,3807,3510,2832,2945,0,2675,2368,0,0,0,0,0,0,0,0,0.982,3.543,9.282,0.066,0.078,0.008,2.442,-5.971,6.816,0.333,-0.517,3.143,happy
3.55,3123,3811,3504,2863,2960,0,2655,2355,0,0,0,0,0,0,0,0,0.998,3.517,9.249,0.058,0.082,-0.009,3.139,-6.096,6.598,0.14,-0.366,2.832,happy
3.56,3101,3798,3397,2873,2944,0,2624,2325,0,0,0,0,0,0,0,0,1.025,3.536,9.256,0.071,0.064,-0.016,3.426,-6.048,6.563,-0.045,-0.232,2.469,happy
3.57,3152,3814,3521,2896,2943,0,2637,2331,0,0,0,0,0,0,0,0,1.032,3.558,9.323,0.066,0.069,-0.018,4.338,-6.1,6.452,-0.246,-0.056,2.055,happy
3.58,3177,3803,3528,2908,2931,0,2608,2306,0,0,0,0,0,0,0,0,0.922,3.555,9.215,0.073,0.066,-0.026,4.183,-3.943,7.666,-0.508,-0.56,1.471,happy
3.59,3184,3818,3463,2930,2902,0,2558,2279,0,0,0,0,0,0,0,0,0.95,3.57,9.33,0.071,0.06,-0.038,8.344,3.086,10.975,-0.523,-0.258,0.723,happy
3.6,3210,3820,3521,2928,2906,0,2482,2188,0,0,0,0,0,0,0,173,0.998,3.558,9.292,0.09,0.088,-0.057,9.965,6.033,11.923,-0.742,0.007,0.026,happy
3.61,3216,3809,3523,2928,2877,0,2274,1999,0,0,0,0,11,0,0,1556,0.948,3.644,9.371,0.115,0.087,-0.065,-10.223,-12.73,14.217,-2.685,-2.375,0,happy
3.62,3205,3802,3508,2928,2773,0,1793,1249,277,0,0,621,0,0,57,2537,0.912,3.62,9.337,0.171,0.094,-0.084,3.11,-5.614,11.296,-0.307,-0.28,-0.122,happy
3.63,2990,3706,3382,2807,2195,0,1008,0,199,0,0,825,0,0,454,2798,0.934,3.589,9.481,0.229,0.114,-0.091,0,-2.109,9.85,-0.861,-0.711,-0.201,happy
3.64,3091,3767,3484,2826,1653,0,159,0,431,76,0,1452,39,0,994,3064,1.259,4.192,9.737,0.269,0.154,-0.103,0.503,-3.893,9.895,-0.314,-0.156,-0.071,happy
3.65,2732,3691,3344,2492,1184,0,0,0,391,0,0,1687,110,0,1264,3289,1.233,3.512,9.222,0.465,0.197,-0.062,0.848,-3.553,9.505,-0.222,-0.211,-0.126,happy
3.66,2640,3520,3280,2283,883,0,0,0,371,57,0,1767,184,2,1451,3375,2.011,3.768,9.479,0.549,0.508,0.013,0.699,-3.407,9.148,-0.196,-0.25,-0.135,happy
3.67,2539,2983,3021,2106,158,0,0,0,390,312,74,1839,537,9,2002,3509,2.571,4.511,9.737,0.441,1.053,-0.147,0.797,-3.596,9.541,-0.106,-0.183,-0.116,happy
3.68,2407,2080,2267,1712,0,0,0,0,457,717,1778,2117,934,395,2606,3609,0.697,4.848,9.428,0.604,1.2,-0.935,1.132,-3.788,9.728,-0.04,-0.098,-0.079,happy
3.69,2129,897,10,651,0,0,0,0,402,685,1904,2164,1207,573,2735,3639,7.166,6.062,10.865,0.69,1.692,-2.391,1.01,-3.409,9.407,-0.028,-0.117,-0.046,happy
3.7,901,0,0,0,0,0,0,0,318,839,1965,2220,1636,703,3029,3763,8.238,9.948,11.071,0.658,2.755,-3.768,0.91,-3.457,9.495,0.016,-0.064,-0.014,happy
3.71,10,0,0,0,0,0,0,0,474,1141,2009,2351,2159,807,3181,3807,19.613,19.613,11.159,0.028,2.808,0.653,0.934,-3.563,9.55,0.011,-0.022,0.009,happy
3.72,0,0,0,0,0,0,0,0,365,1095,2034,2351,2309,675,3263,3821,14.545,6.936,2.674,0.029,2,4.306,0.946,-3.546,9.507,0.014,0.004,0.009,happy
3.73,0,0,0,0,0,0,0,0,213,1007,2032,2414,2359,477,3240,3753,7.149,8.092,5.162,0.1,1.386,5.257,0.979,-3.541,9.464,0.009,0.025,0.02,happy
3.74,0,0,0,0,0,0,0,0,235,951,2034,2438,2343,200,3287,3899,5.124,7.573,6.536,0.188,1.02,5.551,0.958,-3.472,9.56,0.02,0.059,0.034,happy
3.75,0,0,0,0,0,0,0,0,240,894,2027,2491,2287,62,3277,3813,4.113,6.076,7.661,0.229,1.074,5.551,0.881,-3.419,9.45,0.056,0.068,0.045,happy
3.76,0,0,0,0,0,0,0,0,293,796,2029,2539,2226,29,3259,3806,2.313,5.231,8.167,0.116,1.138,5.446,0.962,-3.496,9.39,0.051,0.055,0.038,happy
3.77,0,0,0,0,0,0,0,0,252,792,2075,2579,2133,45,3256,3799,1.307,3.967,8.076,0.004,1.079,5.367,0.922,-3.491,9.491,0.05,0.031,0.032,happy
3.78,0,0,0,0,0,0,0,0,245,809,2085,2595,2131,0,3271,3787,0.448,3.373,8.856,-0.144,0.861,5.184,0.939,-3.45,9.414,0.06,0.033,0.037,happy
3.79,0,0,0,0,0,0,0,0,311,793,2101,2654,2167,47,3287,3895,0.407,3.158,9.823,-0.368,0.744,4.929,0.936,-3.512,9.402,0.067,0.018,0.031,happy
3.8,0,0,0,0,0,0,0,0,231,749,2098,2615,2197,45,3285,3788,0.254,3.005,10.08,-0.668,0.702,4.524,0.785,-3.385,9.385,0.069,-0.017,0.027,happy
3.81,0,0,0,0,0,0,0,0,254,683,2106,2543,2332,21,3341,3783,0.309,2.595,9.795,-0.893,0.671,4.183,0.682,-3.417,9.416,0.095,-0.01,0.026,happy
3.82,0,0,0,0,0,0,0,0,254,622,2111,2631,2425,44,3310,3744,1.585,3.455,10.458,-1.195,0.592,3.697,0.831,-3.352,9.354,0.091,-0.01,0.023,happy
3.83,0,0,0,0,0,0,0,0,261,627,2108,2641,2523,47,3327,3758,3.311,4.032,10.561,-1.397,0.666,3.475,0.706,-3.34,9.555,0.087,-0.027,0.024,happy
3.84,0,0,0,0,0,0,0,0,208,805,2129,2633,2595,56,3325,3740,4.846,4.683,9.979,-1.65,0.874,3.547,0.979,-3.39,9.328,0.105,-0.028,0.022,happy
3.85,0,0,0,0,0,0,0,0,152,823,2203,2629,2679,39,3364,3721,6.103,5.593,9.924,-1.716,0.811,3.641,1.037,-3.39,9.45,0.126,-0.007,0.037,happy
3.86,0,0,0,0,0,0,0,0,139,1069,2193,2631,2767,83,3356,3701,7.092,6.634,10.427,-1.743,0.66,3.821,0.867,-3.378,9.752,0.142,0.014,0.034,happy
3.87,0,0,0,0,0,0,0,0,163,1205,2208,2603,2813,99,3311,3644,7.503,7.549,10.336,-1.81,0.544,4.049,0.97,-3.395,9.603,0.138,0.007,0.035,happy
3.88,0,0,0,0,0,0,0,0,234,1427,2229,2583,2891,44,3273,3626,6.608,7.946,10.001,-1.762,0.396,4.257,1.041,-3.349,9.524,0.128,0.011,0.03,happy
3.89,0,0,0,0,0,0,0,0,189,1677,2178,2531,2887,41,3192,3546,5.957,8.241,9.677,-1.593,0.193,4.429,0.946,-3.417,9.529,0.109,-0.012,0.033,happy
3.9,0,0,0,0,0,0,0,0,411,1669,2242,2579,2949,51,3091,3476,5.279,8.835,9.926,-1.328,-0.011,4.56,1.101,-3.055,9.495,0.073,-0.019,0.033,happy
3.91,0,0,0,0,0,0,0,0,572,1993,2267,2588,3083,39,3035,3113,5.217,11.195,11.435,-0.972,-0.083,4.696,1.334,-3.182,9.629,-0.03,-0.094,0.025,happy
3.92,0,0,0,0,0,0,0,0,1311,2569,2288,2580,3260,54,2991,3068,3.208,13.319,12.356,-1.064,0.116,4.641,1.142,-3.22,9.505,-0.104,-0.196,-0.009,happy
3.93,0,0,0,0,106,0,0,0,1743,2683,2308,2645,3342,58,2907,3041,-4.748,13.458,10.551,-1.492,-1.077,4.135,1.396,-3.421,9.366,-0.119,-0.171,0.004,happy
3.94,0,0,0,0,118,0,0,0,2429,2809,2183,2793,3465,45,2604,2931,-4.987,12.639,3.012,-1.176,-1.076,3.045,1.166,-3.563,9.438,-0.171,-0.132,0.021,happy
3.95,0,0,0,0,146,0,0,0,3038,3019,2305,2919,3385,1,2511,2527,-6.845,13.491,1.116,-0.359,-0.263,1.749,1.245,-3.812,9.208,-0.267,-0.038,0.015,happy
3.96,0,0,0,0,199,0,0,0,3271,3095,2316,2966,3372,50,2199,2328,-4.858,12.349,1.841,0.35,0.102,0.636,1.283,-3.531,9.603,-0.295,-0.034,0.025,happy
3.97,0,0,0,0,188,0,0,0,3534,3273,2346,3094,3304,43,1303,1391,-0.785,11.121,3.859,0.876,0.462,0.351,1.075,-3.311,9.388,-0.294,0.01,0.078,happy
3.98,0,0,0,0,192,0,0,0,3797,3297,2349,3113,3109,30,59,505,-0.651,9.483,5.186,1.246,0.928,0.807,1.499,-2.998,9.349,-0.21,0.065,0.18,happy
3.99,0,0,0,0,245,0,0,0,3833,3273,2346,3241,2839,9,27,581,2.136,7.02,8.837,1.322,1.53,1.255,1.276,-3.179,9.469,-0.342,0.141,0.128,happy
4,0,0,0,0,315,0,0,0,3717,2935,2280,3237,2489,9,29,405,-0.464,2.246,15.83,1.289,1.452,1.01,1.666,-3.771,9.337,-0.578,0.213,-0.078,happy
4.01,0,0,0,0,311,0,256,1535,3963,2991,2357,3464,2184,5,47,478,-5.653,-3.378,5.385,2.119,0.869,0.481,1.693,-3.079,9.467,-0.544,0.142,-0.271,happy
4.02,0,0,0,0,299,0,798,2935,1671,2551,1589,2534,2587,1673,1575,3107,-4.659,5.538,15.22,3.088,-0.734,-0.224,1.477,-2.071,9.22,-0.717,-0.18,-0.121,happy
4.03,0,0,0,0,1106,0,1904,3316,1659,2549,1604,2489,2577,1661,1567,3103,7.017,6.33,12.708,1.804,-1.061,-0.113,1.025,-3.01,9.685,-1.004,-0.19,-0.1,happy
4.04,0,1085,0,0,1714,0,2469,3439,1671,2452,1594,2485,2585,1660,1619,3107,1.451,4.01,11.392,0.411,1.474,-0.661,0.414,-3.855,8.724,-1.565,-0.203,-0.047,happy
4.05,4,1969,0,0,1995,0,2653,3501,4095,2447,2367,3243,411,6,3,197,1.022,2.138,8.89,0.378,1.383,-0.505,2.243,-2.387,9.802,-3.181,0.214,0.054,happy
4.06,196,2593,0,0,2335,0,2764,3567,4072,1897,2329,2221,159,5,4,150,0.062,2.488,10.985,0.487,1.098,-0.463,-1.401,-1.817,13.733,-4.526,-0.688,1.202,happy
4.07,492,3024,841,0,2528,0,2897,3614,4005,1501,7,1251,42,0,0,175,0.491,3.531,10.025,0.35,0.29,-0.151,1.719,-3.74,14.231,-5.317,-1.357,1.596,happy
4.08,882,3184,1872,273,2635,0,2998,3609,2997,173,0,10,0,7,0,0,0.699,3.63,9.902,0.183,0.067,-0.181,0.97,-6.242,18.689,-6.856,-3.781,2.383,happy
4.09,1047,3310,2315,643,2741,0,3060,3641,203,0,0,0,0,0,0,0,1.164,3.103,9.462,0.214,0.054,-0.061,4.422,-11.734,17.365,-3.357,-4.035,3.071,happy
4.1,1125,3408,2665,1050,2886,0,3120,3627,0,2,0,5,0,0,0,0,1.12,3.031,9.543,0.253,0.107,-0.053,6.462,-4.199,17.767,0.223,-1.588,4.016,happy
4.11,1218,3491,2871,1563,2949,0,3098,3583,0,0,0,0,0,0,0,0,1.118,3.469,9.622,0.26,0.035,-0.062,2.897,11.229,5.844,2.082,-1.112,5.527,happy
4.12,1338,3535,2989,1813,3035,0,3114,3557,0,0,0,0,0,0,0,0,0.919,3.309,9.567,0.24,0.03,-0.045,5.708,3.994,7.42,2.467,-0.036,4.95,happy
4.13,1446,3566,3056,1983,3086,0,3101,3511,0,30,5,0,0,0,0,0,0.986,3.591,9.661,0.177,-0.019,-0.007,6.053,2.193,8.198,2.231,-0.479,3.715,happy
4.14,1654,3636,3184,2187,3150,0,3054,3412,5,0,0,0,43,0,0,0,1.022,3.239,9.318,0.178,-0.038,-0.001,6.139,1.887,10.216,2.964,-2.241,1.263,happy
4.15,1823,3664,3280,2297,3145,0,2960,3249,0,0,0,0,0,0,0,13,1.113,3.457,9.471,0.152,0.004,0.019,5.207,1.027,9.55,3.379,-2.441,0.251,happy
4.16,1915,3693,3323,2388,3152,0,2909,3138,0,0,0,0,0,9,0,0,1.037,3.397,9.285,0.144,-0.001,0.013,2.071,-0.026,9.946,3.652,-2.349,-0.435,happy
4.17,2041,3734,3409,2509,3185,0,2794,2870,0,0,33,0,0,0,0,0,1.08,3.474,9.414,0.14,-0.033,0.021,-3.055,-1.669,11.684,4.144,-2.16,-0.564,happy
4.18,2227,3779,3430,2629,3221,0,2673,2469,0,0,0,1,0,0,0,0,0.443,2.871,8.873,0.02,0.043,-0.043,-4.611,-3.28,13.479,4.488,-2.07,0.065,happy
4.19,2372,3792,3485,2723,3218,0,2496,1825,19,0,0,0,0,0,0,0,1.092,3.467,9.311,0.11,-0.013,-0.033,-4.106,-4.187,14.162,4.521,-2.172,0.387,happy
4.2,2526,3835,3555,2817,3241,0,2352,991,0,0,0,0,0,0,0,31,0.996,3.462,9.33,0.112,0.01,-0.03,-1.389,-5.212,15.275,4.246,-1.987,0.775,happy
4.21,2703,3888,3600,2907,3266,0,2144,0,0,0,0,0,0,20,0,19,1.077,3.405,9.359,0.164,-0.02,-0.03,-1.767,-9.038,19.494,3.564,-2.651,0.427,happy
4.22,2842,3877,3629,2971,3248,0,1682,0,0,0,0,0,7,0,0,3,0.989,3.484,9.438,0.242,-0.056,-0.032,-2.998,-13.18,19.613,3.275,-3.441,0.131,happy
4.23,2977,3905,3654,3026,3178,0,1190,0,11,0,0,0,0,0,0,0,0.977,3.361,9.278,0.325,-0.048,-0.04,-1.427,-19.613,16.824,3.157,-3.656,-0.71,happy
4.24,3022,3915,3503,3088,2559,0,401,0,0,0,0,0,12,0,0,0,1.24,3.522,9.151,0.398,0.033,-0.03,-6.709,-19.613,-1.465,2.794,-1.512,-1.385,happy
4.25,3201,3957,3711,3120,2304,0,240,0,0,0,0,0,2405,0,1661,0,1.353,3.184,9.388,0.657,0.008,0.124,-10.544,-19.613,-12.72,1.527,-1.195,-1.484,happy
4.26,3311,3958,3728,3143,2033,0,194,0,0,0,0,0,0,23,56,0,1.59,3.565,9.421,0.867,0.058,0.207,-1.252,-16.568,-3.685,-1.828,0.368,-0.625,happy
4.27,3429,3793,3741,3045,1694,0,35,0,0,42,0,0,15,0,0,0,1.757,3.852,9.292,1.033,0.155,0.137,4.503,-4.075,19.613,-1.446,1.672,-2.199,happy
4.28,3281,3919,3737,3187,1439,0,0,0,0,0,0,0,0,0,0,5,1.544,3.946,9.194,1.138,0.209,0.147,3.78,4.317,5.037,-2.061,0.617,-2.489,happy
4.29,3408,3938,3552,3207,1323,0,0,0,0,45,0,0,0,0,8,717,1.559,3.955,9.134,1.373,0.29,0.205,-9.325,6.495,9.594,-3.063,0.264,-1.216,happy
4.3,3471,3894,3527,3211,1192,0,0,0,0,0,0,9,0,0,0,1207,1.113,3.78,9.433,1.608,0.332,0.288,-13.748,-7.298,19.613,-3.844,-0.399,-0.568,happy
4.31,3664,3889,3705,3134,993,0,0,0,0,573,0,0,0,28,397,1811,1.645,3.919,9.55,2.139,0.723,0.46,-11.049,-5.131,16.697,-2.421,-0.09,0.609,happy
4.32,3669,3406,3568,2557,544,0,0,0,0,751,0,0,41,0,1340,3035,3.278,4.161,9.922,2.921,1.018,0.468,7.436,-4.008,9.28,-2.041,-0.583,0.396,happy
4.33,3583,2927,2835,2081,0,0,0,0,0,439,0,0,439,0,2351,3555,3.247,4.927,13.034,3.823,1.161,-0.228,2.512,-4.245,4.769,-0.057,1.683,0.964,happy
4.34,3601,1888,2000,1535,0,0,0,0,85,375,0,0,843,0,2637,3710,2.365,4.652,13.98,5.737,0.992,-1.375,1.14,-3.22,10.197,-0.372,1.608,0.958,happy
4.35,2749,636,60,303,0,0,0,0,226,413,0,0,1800,0,2867,3837,3.515,6.345,13.252,7.02,1.003,-2.745,2.516,-3.675,9.68,-0.536,1.443,0.827,happy
4.36,1293,0,0,0,0,0,0,0,551,663,0,0,2387,0,3045,3915,2.073,14.748,14.408,7.129,0.955,-2.976,-0.048,-4.413,11.296,-0.833,0.675,0.539,happy
4.37,416,0,0,0,0,0,0,0,743,971,0,0,2579,0,3149,3968,0.177,12.421,19.613,3.677,0.408,-2.959,1.101,-4.171,10.685,-0.483,0.744,0.495,happy
4.38,0,0,0,0,0,0,0,0,883,1149,25,2,2739,0,3239,3979,12.634,2.77,19.613,1.098,0.341,-3.286,2.037,-3.68,9.615,-0.29,0.61,0.412,happy
4.39,0,0,0,0,0,0,0,0,949,1309,1448,137,2863,22,3303,4008,13.841,-2.406,17.703,-1.067,0.112,-2.026,1.863,-3.943,9.529,-0.267,0.391,0.274,happy
4.4,0,0,0,0,0,0,0,0,1001,1463,1855,693,2917,51,3351,4011,7.408,-2.265,9.95,-1.325,0.192,-0.069,1.788,-3.625,9.538,-0.189,0.338,0.172,happy
4.41,0,0,0,0,0,0,0,0,1095,1708,2083,1418,3007,45,3340,3987,6.874,0.457,11.607,-2.127,-1.26,0.957,0.912,-3.74,9.754,-0.126,0.139,0.043,happy
4.42,0,0,0,0,0,0,0,0,1252,1789,2144,1927,3019,52,3236,3911,3.385,0.62,10.214,-3.268,-0.752,1.589,1.369,-3.5,9.5,0.064,0.196,0.033,happy
4.43,0,0,0,0,0,0,0,0,1161,1845,2157,2122,2942,51,3164,3861,-0.405,1.614,9.345,-3.955,-1.169,1.589,1.413,-3.651,9.529,0.076,0.206,0.017,happy
4.44,0,0,0,0,0,0,0,0,1401,1845,2221,2361,2767,55,2842,3741,-0.259,2.885,9.663,-4.338,-1.402,1.267,1.259,-3.409,9.431,0.092,0.256,-0.01,happy
4.45,0,0,0,0,0,0,0,0,1519,1971,2239,2620,2534,47,2351,3563,-0.876,5.207,12.256,-4.78,-1.322,0.887,1.202,-3.388,9.476,0.079,0.26,0,happy
4.46,0,0,0,0,0,0,0,0,1718,1997,2249,2695,2374,48,1999,3545,-0.175,6.898,13.245,-5.076,-1.479,0.796,1.233,-3.309,9.416,0.068,0.243,0.022,happy
4.47,0,0,0,0,0,0,0,0,2181,2065,2259,3003,2205,48,1558,3357,-1.69,8.978,15.115,-5.053,-1.791,1.024,1.314,-3.132,9.402,-0.027,0.197,0.026,happy
4.48,0,0,0,0,0,0,0,0,2731,2351,2272,3197,2233,58,1159,3205,-1.642,12.553,18.352,-4.994,-2.034,0.919,1.087,-3.156,9.529,-0.141,0.12,0.002,happy
4.49,0,0,0,0,0,0,0,0,2969,2485,2267,3295,2382,47,1033,3042,-2.207,16.822,19.613,-4.67,-2.325,0.844,0.974,-3.225,9.222,-0.207,0.038,-0.008,happy
4.5,0,0,0,0,0,0,0,0,3368,2651,2285,3453,2531,69,738,2468,1.58,19.613,14.155,-4.733,-1.562,1.183,1.152,-3.596,9.78,-0.184,0.048,-0.004,happy
4.51,36,0,0,0,119,0,0,0,3677,2757,2293,3561,2445,35,183,1383,-1.24,19.613,1.733,-3.131,-1.093,2.087,1.087,-3.354,9.902,-0.23,0.052,-0.021,happy
4.52,42,0,0,0,270,0,0,0,3803,2809,2313,3623,2374,23,93,1127,-8.291,19.613,-5.95,-1.605,-1.047,3.409,1.228,-3.464,9.172,-0.283,0.073,-0.039,happy
4.53,184,0,0,0,224,0,0,0,3950,2845,2321,3711,2037,6,5,429,-19.613,19.613,-19.204,1.58,1.72,1.265,1.226,-3.065,9.546,-0.388,0.104,-0.096,happy
4.54,0,0,0,0,64,0,0,0,4071,2741,2331,3820,1177,3,8,371,-3.081,9.134,19.613,1.612,2.603,-1.577,1.245,-3.165,9.22,-0.488,0.058,-0.16,happy
4.55,107,0,0,0,160,0,0,1392,4095,2635,2515,3877,663,5,18,339,-3.191,-8.712,19.613,1.379,0.582,-1.705,1.283,-3.28,8.595,-0.654,-0.036,-0.193,happy
4.56,158,0,0,0,0,0,405,2913,4095,2568,2349,3912,467,6,4,302,8.839,10.513,12.811,3.121,0.471,-1.93,1.413,-3.383,9.167,-0.669,0.007,-0.247,happy
4.57,126,0,0,0,203,0,1104,3362,4095,2111,2375,3973,56,3,3,167,1.518,4.096,12.608,2.012,-0.565,-0.261,1.666,-3.618,8.78,-1.162,0.131,-0.448,happy
4.58,0,0,0,0,842,0,2000,3487,4095,1715,2454,3949,3,1,23,173,-1.547,4.164,12.234,1.775,-0.095,0.357,2.583,-2.291,9.802,-2.578,0.6,-0.53,happy
4.59,0,198,0,0,1344,0,2533,3536,4095,1310,2526,3877,0,0,0,125,11.028,9.831,11.447,1.109,0.892,-0.173,3.527,-2.389,9.833,-3.338,1.073,-0.329,happy
4.6,0,1142,0,0,1909,0,2716,3541,4095,0,2395,3293,0,0,1,97,-2.701,2.868,12.905,0.71,1.139,-0.306,2.339,-1.822,13.02,-5.39,1.713,1.131,happy
4.61,1,2137,0,0,2402,0,2945,3625,3929,0,0,1611,0,0,0,18,0.702,3.888,11.305,0.434,1.046,-0.137,2.296,-6.5,19.611,-6.674,0.819,3.694,happy
4.62,188,2593,0,0,2557,0,3007,3618,3288,0,0,811,0,0,0,0,-0.309,2.856,11.921,0.719,0.626,-0.248,3.311,-13.496,18.136,-6.962,1.172,3.893,happy
4.63,418,3088,976,0,2800,0,3095,3637,2473,0,0,170,0,0,0,0,-0.247,2.672,9.443,0.488,-0.005,-0.389,0.285,-7.819,19.613,-3.153,0.559,4.227,happy
4.64,715,3312,1987,80,2969,0,3151,3603,0,0,0,0,0,0,0,0,2.32,3.433,10.022,0.154,-0.285,-0.372,3.979,-5.284,19.613,-1.069,-0.751,3.824,happy
4.65,852,3466,2467,296,3168,0,3247,3607,0,0,0,0,1,0,0,0,0.886,2.844,9.527,0.319,0.028,0.031,12.57,1.128,6.694,1.131,0.318,1.441,happy
4.66,948,3535,2684,455,3235,0,3239,3555,0,0,0,0,0,0,0,0,1.25,3.179,9.414,0.296,0.03,0.011,7.879,4.52,7.398,1.296,-0.342,0.306,happy
4.67,934,3583,2807,635,3325,0,3227,3475,0,0,0,36,0,0,0,0,1.051,3.201,9.634,0.243,0.044,-0.083,7.63,1.81,8.147,1.556,-1.154,-0.697,happy
4.68,1069,3634,2928,780,3363,0,3200,3364,0,0,2,0,0,0,0,0,1.286,3.259,9.498,0.237,-0.014,-0.058,6.381,0.85,10.534,2.169,-1.277,-1.335,happy
4.69,1223,3645,3062,1006,3360,0,3139,3103,0,0,0,0,0,0,0,0,1.317,3.213,9.337,0.271,-0.044,-0.039,2.95,-0.117,10.846,2.937,-1.142,-1.623,happy
4.7,1355,3740,3183,1431,3440,0,3056,3036,0,0,0,0,0,0,0,0,1.398,3.251,9.359,0.292,-0.08,-0.096,-1.98,-1.152,9.115,3.765,-1.717,-1.192,happy
4.71,1422,3744,3280,1709,3417,0,2927,2871,0,0,0,0,0,0,0,0,1.154,3.419,9.28,0.257,-0.023,-0.108,-0.661,-3.287,10.537,4.257,-1.554,-0.576,happy
4.72,1623,3813,3388,2061,3470,0,2867,2693,0,0,0,0,0,0,0,0,1.149,3.393,9.316,0.215,0.031,-0.055,1.168,-4.949,11.492,4.491,-1.893,-0.744,happy
4.73,1840,3845,3411,2254,3469,0,2726,2437,0,0,0,0,0,0,0,0,1.154,3.407,9.416,0.182,-0.009,-0.038,1.425,-5.447,12.112,4.456,-1.958,-1.108,happy
4.74,2097,3885,3510,2367,3498,0,2665,2064,0,0,0,0,0,0,0,0,1.147,3.479,9.323,0.177,-0.036,-0.032,0.347,-7.017,16.175,4.515,-2.025,-1.636,happy
4.75,2334,3914,3553,2475,3509,0,2488,1067,0,0,0,0,0,0,0,0,1.188,3.527,9.299,0.164,-0.028,-0.061,-0.639,-7.173,17.48,4.387,-1.846,-1.727,happy
4.76,2498,3929,3599,2587,3495,0,2198,0,0,0,0,0,0,0,0,0,1.238,3.503,9.345,0.168,-0.023,-0.062,-2.433,-11.847,19.613,4.151,-1.915,-1.462,happy
4.77,2655,3943,3552,2672,3473,0,1838,0,0,0,0,0,0,0,0,0,1.257,3.306,9.369,0.224,-0.036,-0.062,-2.399,-19.309,15.629,3.319,-2.595,-1.774,happy
4.78,2805,3943,3647,2716,3334,0,1235,0,0,0,0,0,0,0,0,0,1.35,3.5,9.316,0.283,0.004,-0.054,-1.434,-19.613,2.65,2.172,-1.497,-2.384,happy
4.79,2887,3947,3665,2757,3157,0,590,0,0,0,0,0,0,0,0,27,1.149,3.618,9.273,0.32,0.05,-0.054,-6.122,-19.613,-2.167,1.419,-1.881,-2.051,happy
4.8,3024,3951,3692,2831,2489,0,285,0,1565,2553,0,2491,2584,1690,1575,3103,1.293,3.378,9.131,0.606,0.044,0.108,-12.493,-19.613,-6.914,0.371,-2.053,-1.699,happy
4.81,3157,3953,3703,2899,2134,0,74,0,0,0,0,0,21,0,0,0,1.477,3.656,9.385,0.835,0.149,0.176,-5.521,-8.636,-6.835,-2.473,2.122,0.11,happy
4.82,3236,3965,3727,2934,1951,0,0,0,0,0,0,0,0,0,0,0,1.652,3.491,9.151,1.019,0.171,0.199,5.612,3.201,19.613,-1.632,2.497,0.229,happy
4.83,3325,3959,3741,2971,1679,0,0,0,0,0,0,0,0,0,0,348,1.075,3.742,8.93,1.219,0.337,0.204,1.111,7.47,14.674,-1.815,-0.511,-0.951,happy
4.84,3425,3964,3728,3014,1531,0,0,0,0,0,0,0,0,0,0,943,1.396,3.802,9.419,1.373,0.324,0.241,-1.848,3.73,-0.582,-3.759,-0.176,-0.375,happy
4.85,3493,3957,3739,3024,1453,0,0,0,0,0,0,0,0,0,22,1562,0.881,3.852,9.21,1.753,0.485,0.335,-10.285,-7.202,19.613,-2.953,0.346,0.509,happy
4.86,3568,3935,3708,2992,1258,0,0,0,0,0,0,0,0,0,618,2229,1.65,3.338,9.136,2.077,0.544,0.436,-6.474,-6.203,17.018,-2.606,-0.076,0.564,happy
4.87,3615,3808,3632,2622,706,0,0,0,0,0,0,0,0,0,1065,2741,1.688,3.347,9.352,2.858,0.782,0.468,4.049,-10.862,19.613,-2.077,1.334,0.713,happy
4.88,3630,3424,3521,2287,528,0,0,0,0,0,0,0,35,0,1803,3219,1.97,3.371,10.209,3.311,0.957,0.398,6.551,-10.862,19.613,-2.077,1.721,0.722,happy
4.89,3614,2899,2883,1730,0,0,0,0,0,267,0,0,926,0,2447,3563,0.34,3.11,11.528,4.822,0.613,-0.467,2.562,-4.037,11.964,-0.378,1.849,0.796,happy
4.9,3398,1942,1519,923,0,0,0,0,0,937,0,0,1723,0,2707,3773,3.177,5.763,13.925,6.455,0.062,-1.797,1.003,-5.152,11.028,-0.454,0.736,0.461,happy
4.91,2185,679,0,0,0,0,0,0,53,1158,33,214,2031,1,2809,3835,1.968,9.167,14.935,7.816,0.007,-2.845,1.465,-3.989,9.122,-0.325,0.076,0.201,happy
4.92,752,0,0,0,0,0,0,0,143,1417,1215,829,2414,36,3076,3923,-0.326,13.118,19.613,3.91,-0.278,-2.949,0.618,-2.796,9.692,-0.134,0.079,0.239,happy
4.93,0,0,0,0,0,0,0,0,240,1799,2124,1100,2825,44,3278,3997,13.561,7.341,13.779,0.265,-0.35,-2.59,1.647,-3.247,9.464,-0.104,0.093,0.253,happy
4.94,0,0,0,0,0,0,0,0,275,1862,2067,1239,2943,43,3357,4013,10.171,-0.962,9.51,-1.19,0.696,-1.508,1.678,-3.218,9.668,-0.092,0.254,0.276,happy
4.95,0,0,0,0,0,0,0,0,453,1947,2096,1679,3123,50,3477,4013,8.169,-1.01,10.142,-1.725,-0.439,-0.103,1.446,-2.998,9.357,-0.228,0.024,0.167,happy
4.96,0,0,0,0,0,0,0,0,552,2102,2185,1817,3183,51,3421,3965,6.936,0.666,11.564,-2.722,-0.917,0.998,1.255,-3.172,9.371,-0.148,0.075,0.216,happy
4.97,0,0,0,0,0,0,0,0,589,2203,2198,1947,3205,47,3375,3921,2.282,0.898,9.615,-3.787,-0.828,1.661,1.247,-3.505,9.541,-0.096,0.056,0.182,happy
4.98,0,0,0,0,0,0,0,0,669,2408,2239,2247,3225,50,3231,3857,-0.421,1.767,8.361,-4.173,-1.38,1.492,1.403,-3.292,9.464,-0.042,0.104,0.124,happy
4.99,0,0,0,0,0,0,0,0,911,2510,2249,2440,3219,48,3003,3735,-0.84,3.632,10.867,-4.442,-1.383,1.034,1.448,-3.68,9.632,-0.054,0.105,0.082,happy
5,0,0,0,0,0,0,0,0,997,2597,2265,2556,3161,47,2827,3682,-0.012,5.993,12.814,-4.844,-1.39,0.561,1.398,-3.369,9.373,-0.009,0.156,0.095,happy
5.01,0,0,0,0,0,0,0,0,1445,2679,2285,2719,3125,51,2461,3557,-0.273,7.757,13.862,-4.868,-1.458,0.539,1.156,-3.409,9.404,0.011,0.114,0.056,happy
5.02,0,0,0,0,0,0,0,0,1901,2779,2311,2970,3066,39,2088,3405,-0.675,11.009,16.922,-4.765,-1.705,0.6,1.245,-3.419,9.524,0.053,0.156,0.046,happy
5.03,0,0,0,0,0,0,0,0,2185,2811,2293,3050,3013,51,1941,3289,-0.824,15.062,18.455,-4.489,-1.598,0.567,1.243,-3.309,9.244,0.01,0.145,0.044,happy
5.04,0,0,0,0,0,0,0,0,2724,2843,2316,3255,2915,47,1507,2901,-2.114,19.075,16.843,-3.993,-1.601,0.718,0.819,-5.004,9.096,-0.207,0.18,0.013,happy
5.05,64,0,0,0,0,0,0,0,3219,2955,2336,3413,2852,47,923,2291,-1.422,19.613,9.079,-3.409,-1.712,1.229,1.183,-3.558,9.586,-0.195,0.063,0.017,happy
5.06,190,0,0,0,0,0,0,0,3407,3027,2321,3486,2791,47,616,1823,-7.283,19.613,0.373,-2.307,-1.349,2.924,1.441,-3.63,9.103,-0.224,0.01,-0.01,happy
5.07,354,0,0,0,403,0,0,0,3709,3103,2341,3577,2677,13,253,862,-14.988,19.613,-18.095,-0.754,-0.665,3.157,1.231,-3.584,9.227,-0.225,0.051,-0.009,happy
5.08,362,0,0,0,187,0,0,0,3911,3189,2341,3717,2503,5,6,382,-4.468,14.03,-10.285,3.296,1.234,1.244,0.931,-2.662,9.601,-0.215,-0.015,0.035,happy
5.09,0,0,0,0,230,0,0,0,3979,3221,2346,3731,2043,6,5,371,-2.641,6.981,19.613,1.592,1.112,0.044,1.326,-4.022,9.457,-0.464,0.12,-0.113,happy
5.1,0,0,0,0,208,0,150,1046,4021,3208,2349,3769,1873,5,3,405,0.625,-3.067,5.722,1.823,0.238,0.236,1.463,-3.469,9.469,-0.464,0.12,-0.113,happy
5.11,0,0,0,0,448,0,707,2641,4093,3039,2357,3835,733,12,4,181,-1.544,4.331,14.66,2.918,-0.661,-0.817,1.233,-3.467,8.708,-0.596,0.042,-0.144,happy
5.12,0,0,0,0,838,0,1616,3155,4095,2911,2393,3883,137,5,3,136,1.267,5.382,10.934,2.29,-0.652,-0.06,1.104,-3.002,9.61,-1.373,0.128,-0.34,happy
5.13,0,567,0,0,1695,0,2402,3344,4095,2837,2408,3995,2,3,0,143,-1.975,7.566,10.427,1.291,1.511,-0.043,2.093,-2.306,9.364,-2.87,0.6,-0.443,happy
5.14,0,1825,0,0,2156,0,2682,3447,4095,2188,2531,3768,12,0,0,77,0.053,4.099,11.803,0.436,1.448,-0.413,3.01,-2.545,10.403,-3.639,0.974,-0.488,happy
5.15,224,2526,0,0,2407,0,2881,3538,4095,1001,2433,3145,0,1,0,87,0.084,3.412,10.898,0.666,1.012,-0.282,1.86,-2.571,12.869,-5.355,1.573,0.827,happy
5.16,700,2978,0,0,2647,0,2953,3537,4063,314,555,2611,0,0,0,69,1.322,3.017,9.737,0.648,0.201,-0.261,3.309,-6.656,18.859,-6.332,0.774,3.141,happy
5.17,891,3259,1505,0,2864,0,3134,3632,3419,0,0,839,0,0,0,9,0.611,4.132,10.044,0.624,0.043,-0.306,1.386,-12.713,17.221,-7.063,0.734,3.233,happy
5.18,980,3408,2289,391,3026,0,3233,3643,0,0,0,59,0,9,0,0,1.877,2.935,9.1,0.525,-0.085,-0.116,-0.11,-4.508,19.613,-3.148,0.363,4.074,happy
5.19,1169,3510,2674,757,3225,0,3297,3638,0,0,0,0,0,0,0,0,0.891,3.699,9.591,0.196,-0.035,0.024,11.286,3.747,19.613,0.388,-0.636,3.001,happy
5.2,1246,3583,2846,996,3315,0,3311,3628,0,0,0,0,0,0,0,0,0.699,0.443,8.923,0.233,-0.008,-0.107,11.286,3.747,19.613,0.388,-0.636,3.001,happy
5.21,1395,3662,3024,1298,3424,0,3306,3543,0,0,0,0,0,0,0,0,1.295,3.51,9.354,0.232,-0.035,-0.035,8.164,3.785,8.475,1.373,-0.455,0.874,happy
5.22,1443,3694,3120,1510,3454,0,3275,3465,0,0,0,0,0,0,0,0,1.19,3.548,9.457,0.208,-0.09,-0.024,8.126,1.889,8.485,1.692,-1.097,-0.241,happy
5.23,1511,3760,3235,1713,3506,0,3211,3291,0,0,0,0,0,0,0,0,1.231,3.706,9.369,0.139,-0.124,0.016,2.523,0.192,11.31,2.992,-1.419,-1.478,happy
5.24,1535,3806,3313,1834,3533,0,3125,3071,0,23,0,0,0,0,0,0,1.058,3.512,9.416,0.041,-0.057,-0.026,-0.716,-0.237,9.864,3.523,-1.598,-1.404,happy
5.25,1559,3836,3419,1893,3541,0,3012,2776,0,0,0,0,0,93,0,0,1.362,3.512,9.194,0.108,-0.017,0.001,-1.111,-1.312,8.495,3.967,-1.551,-0.742,happy
5.26,1578,3868,3483,2013,3545,0,2908,2480,0,0,0,0,0,0,0,0,1.147,3.522,9.194,0.093,0.042,-0.014,0.225,-3.828,11.598,4.374,-1.822,-0.606,happy
5.27,1600,3873,3509,2138,3534,0,2815,2210,0,0,0,0,0,0,0,0,1.24,3.397,9.048,0.097,0.046,-0.056,0.656,-4.791,12.026,4.533,-1.842,-0.779,happy
5.28,1654,3905,3568,2229,3526,0,2703,1995,0,0,0,0,0,0,0,0,1.276,3.462,9.122,0.02,0.057,-0.07,-0.694,-5.504,14.052,4.56,-2.01,-1.143,happy
5.29,1825,3917,3617,2355,3522,0,2582,1733,0,0,0,0,0,0,0,0,1.326,3.615,9.22,-0.016,0.101,-0.077,-0.345,-6.929,18.019,4.632,-1.548,-1.162,happy
5.3,1904,3943,3651,2544,3519,0,2495,1392,0,0,0,0,0,0,0,0,1.02,3.361,9.352,-0.038,0.135,-0.062,-1.058,-8.186,19.613,4.474,-1.355,-1.08,happy
5.31,2055,3959,3689,2677,3520,0,2268,55,0,0,0,0,0,0,0,0,1.13,3.529,9.402,0.021,0.095,-0.08,-3.448,-15.627,19.199,3.737,-2.457,-1.313,happy
5.32,2178,3975,3721,2784,3473,0,1872,0,0,0,0,0,0,0,0,0,1.281,3.541,9.155,0.057,0.146,-0.063,-2.729,-19.613,9.996,3.133,-1.726,-1.993,happy
5.33,2169,3983,3742,2874,3404,0,1445,0,0,0,0,0,0,0,0,0,1.12,3.548,9.285,0.072,0.164,-0.049,-9.237,-19.613,-0.532,2.236,-1.518,-2.304,happy
5.34,2395,3997,3761,2978,2960,0,697,0,0,0,0,0,7,0,0,0,1.087,3.467,9.364,0.131,0.185,-0.026,-13.702,-19.613,-5.758,1.122,-1.58,-1.981,happy
5.35,2595,3994,3795,3094,2509,0,257,0,0,0,0,0,0,0,0,0,1.14,1.652,8.866,0.436,0.203,-0.002,-7.661,-19.613,-9.876,-2.258,0.002,-1.374,happy
5.36,2671,4016,3799,3138,2275,0,109,0,0,0,0,0,0,0,0,0,0.919,3.639,9.764,0.697,0.109,0.126,-2.351,-7.269,-0.342,-2.305,1.458,0.028,happy
5.37,2750,4016,3808,3184,2013,0,0,0,0,0,0,0,0,0,0,0,1.204,3.366,9.378,0.891,0.249,0.179,3.584,1.274,19.613,-0.88,1.939,0.493,happy
5.38,2841,4017,3813,3234,1866,0,0,0,0,0,0,0,0,0,0,331,1.149,3.515,9.419,1.091,0.261,0.216,4.946,7.484,9.967,-2.081,-0.67,-0.309,happy
5.39,2935,4022,3817,3266,1446,0,0,0,0,0,0,4,0,0,0,901,0.831,3.388,9.201,1.393,0.339,0.265,2.363,1.006,1.458,-2.934,0.133,0.034,happy
5.4,3024,4025,3823,3289,1393,0,0,0,0,0,0,0,0,0,0,1321,0.967,3.335,9.732,1.644,0.467,0.375,-5.15,-7.484,19.613,-2.541,0.024,0.164,happy
5.41,3131,3981,3812,3285,1200,0,0,0,3,0,0,0,0,0,217,2069,1.257,3.103,9.28,1.969,0.524,0.516,-5.533,-3.184,14.983,-2.313,-0.289,0.343,happy
5.42,3218,3794,3723,2959,630,0,0,0,0,0,0,0,0,36,1212,2986,2.253,3.433,9.685,2.829,0.752,0.637,4.123,-5.332,11.231,-1.937,-0.428,0.302,happy
5.43,3364,3344,3599,2446,0,0,0,0,0,30,0,0,29,0,1853,3317,3.074,4.439,10.058,3.747,0.908,0.473,3.934,-4.41,10.597,-0.931,0.85,0.388,happy
5.44,3398,3081,3322,2035,0,0,0,0,0,0,76,0,473,0,2264,3542,-1.156,2.021,13.446,4.709,0.355,-0.314,3.215,-4.429,12.73,-0.611,0.978,0.52,happy
5.45,3136,2079,2176,1587,0,0,0,0,27,0,0,0,1429,21,2743,3763,1.286,4.839,17.032,6.565,-0.03,-1.723,1.415,-3.12,10.341,-0.362,0.802,0.374,happy
5.46,2045,815,112,259,0,0,0,0,0,470,0,1,2285,0,3081,3896,0.596,9.33,17.133,7.705,-0.125,-2.941,1.633,-2.988,10.211,-0.2,0.469,0.278,happy
5.47,270,0,0,0,0,0,0,0,0,600,0,9,2511,6,3188,3945,-0.014,13.094,19.613,4.094,0.029,-2.928,1.171,-3.306,10.542,-0.158,0.237,0.195,happy
5.48,0,0,0,0,0,0,0,0,86,821,43,165,2745,3,3327,3943,8.978,-2.574,19.613,0.697,0.299,-4.142,1.504,-2.658,9.38,-0.234,0.17,0.204,happy
5.49,0,0,0,0,0,0,0,0,83,1191,1062,276,2902,0,3422,3998,11.576,1.956,16.513,-0.174,-0.028,-2.117,1.511,-2.658,9.38,-0.234,0.17,0.202,happy
5.5,0,0,0,0,0,0,0,0,187,1311,1635,623,3145,38,3591,4031,8.535,-1.367,7.717,-0.872,0.561,-0.834,1.8,-3.124,9.582,-0.163,0.068,0.104,happy
5.51,0,0,0,0,0,0,0,0,221,1545,1909,850,3319,45,3625,4008,7.626,0.005,9.383,-1.556,-0.715,0.331,1.437,-2.978,9.282,-0.123,-0.06,0.029,happy
5.52,0,0,0,0,0,0,0,0,181,1627,2014,893,3381,41,3653,3991,6.768,1.106,10.113,-2.561,-0.651,1.334,1.494,-2.84,9.471,-0.075,-0.022,0.068,happy
5.53,0,0,0,0,0,0,0,0,145,1789,2096,1003,3495,39,3624,3957,2.54,2.006,9.213,-3.543,-0.537,1.822,1.779,-3.01,9.615,-0.083,0.004,0.051,happy
5.54,0,0,0,0,0,0,0,0,170,1978,2249,1109,3557,39,3551,3807,-0.172,2.622,8.073,-3.978,-1.02,1.721,1.686,-2.981,9.586,-0.088,-0.028,0.045,happy
5.55,0,0,0,0,0,0,0,0,139,1981,2162,1103,3591,33,3514,3741,-0.982,4.417,10.463,-4.276,-1.3,1.18,1.599,-2.969,9.522,-0.09,-0.043,0.044,happy
5.56,0,0,0,0,0,0,0,0,140,2252,2160,1019,3637,31,3405,3613,-0.46,6.718,12.06,-4.672,-1.345,0.745,1.757,-2.835,9.345,-0.063,0.011,0.091,happy
5.57,0,0,0,0,0,0,0,0,216,2509,2178,1014,3688,50,3195,3470,-1.034,7.932,12.763,-4.682,-1.61,0.639,1.822,-2.849,9.143,-0.139,0.025,0.181,happy
5.58,0,0,0,0,0,0,0,0,278,2659,2198,1175,3693,47,3123,3420,-1.372,10.623,15.862,-4.551,-1.961,0.57,1.724,-2.823,9.091,-0.18,0.051,0.232,happy
5.59,0,0,0,0,0,0,0,0,519,2757,2224,1555,3727,47,3163,3337,-1.827,12.972,16.065,-4.282,-1.691,0.451,2.119,-3.685,9.601,-0.17,0.133,0.262,happy
5.6,0,0,0,0,0,0,0,0,856,2885,2329,2123,3759,49,3065,3263,-1.607,17.2,16.226,-3.987,-1.277,0.444,1.329,-3.658,10.005,-0.227,0.05,0.295,happy
5.61,0,0,0,0,0,0,0,0,1175,2923,2280,2327,3635,51,3013,3224,-2.193,18.526,10.412,-3.494,-1.167,0.831,1.58,-3.661,9.491,-0.218,0.037,0.193,happy
5.62,89,0,0,0,0,0,0,0,2141,3063,2280,2612,3830,47,2772,2924,-3.191,17.21,2.344,-2.482,-0.719,1.498,1.616,-3.603,9.675,-0.258,0.045,0.112,happy
5.63,176,0,0,0,185,0,0,0,2915,3212,2372,2932,3838,72,2236,2098,-7.906,19.613,-4.065,-1.006,-1.115,2.199,1.118,-3.994,9.187,-0.416,0.049,0.03,happy
5.64,268,0,0,0,206,0,0,0,3211,3293,2275,3033,3795,48,1653,1388,-9.323,14.083,-8.545,1.02,-0.016,1.27,1.097,-4.041,9.373,-0.377,0.161,0.008,happy
5.65,89,0,0,0,149,0,0,0,3601,3452,2341,3231,3279,27,61,600,-1.149,6.73,6.795,2.114,1.913,-0.205,1.161,-3.56,9.096,-0.055,0.182,0.206,happy
5.66,0,0,0,0,176,0,0,0,3837,3547,2318,3385,2581,10,0,596,3.251,-0.972,14.952,1.402,0.241,0.324,1.695,-4.027,9.486,-0.765,0.109,-0.051,happy
5.67,0,0,0,0,190,0,438,1691,3923,3571,2326,3452,2122,5,5,447,-0.378,-2.744,6.91,2.655,0.484,-0.35,1.391,-3.759,9.416,-0.823,0.143,-0.062,happy
5.68,0,0,0,0,464,0,1115,2765,4041,3500,2346,3531,1021,6,25,244,1.267,4.444,11.768,2.821,-0.339,0.02,1.556,-3.567,9.292,-1.218,0.318,-0.081,happy
5.69,0,0,0,0,1191,0,2192,3198,4095,3055,2400,3548,291,6,3,211,-2.207,10.702,19.613,2.037,1.539,-1.127,3.273,-2.488,10.008,-2.341,0.513,-0.229,happy
5.7,0,1229,0,0,1811,0,2559,3376,4095,2708,2490,3534,201,5,4,159,0.757,2.729,10.465,0.655,2.067,-0.843,3.041,-2.629,10.223,-3.987,1.103,-0.329,happy
5.71,260,2144,0,0,2246,0,2802,3567,4095,1852,2520,3189,22,2,0,209,0.151,3.749,10.355,0.722,1.622,-0.612,3.531,-4.827,13.668,-4.576,1.386,-0.011,happy
5.72,726,2831,0,0,2501,0,3015,3659,4044,63,0,1883,0,1,0,119,0.144,5.069,13.001,0.618,0.705,-0.498,1.8,-9.517,19.613,-6.547,0.667,1.829,happy
5.73,1200,3199,1310,0,2695,0,3083,3701,3629,0,0,808,0,0,0,105,0.891,4.118,10.175,0.461,0.2,-0.462,5.246,-11.064,16.695,-5.58,2.296,3.546,happy
5.74,1435,3318,2318,694,2731,0,3111,3686,2041,0,0,0,0,0,0,17,1.003,3.761,9.828,0.381,0.033,-0.268,-5.25,-4.834,18.076,-4.021,2.496,3.647,happy
5.75,1611,3435,2739,1308,2912,0,3168,3698,0,41,0,12,58,0,0,19,1.183,4.288,10.027,0.203,0.151,-0.063,1.044,0.905,19.613,-0.278,-0.352,5.047,happy
5.76,1759,3507,2923,1730,2992,0,3191,3696,0,0,0,0,0,0,0,9,1.073,3.531,9.536,0.122,0.183,0.021,14.662,0.522,9.165,1.576,0.133,2.158,happy
5.77,1850,3556,3008,1899,3022,0,3170,3675,0,0,0,0,0,0,0,9,0.917,3.393,9.263,0.075,0.171,-0.019,15.16,1.465,9.608,2.025,-0.885,-0.051,happy
5.78,1991,3605,3118,2112,3013,0,3107,3632,0,0,0,0,0,0,0,6,1.092,3.426,9.395,0.098,0.128,-0.022,11.037,0.85,10.487,2.544,-1.225,-1.803,happy
5.79,2128,3645,3199,2270,2963,0,3011,3549,0,0,0,0,0,0,0,0,0.955,3.306,9.4,0.055,0.117,-0.031,-4.269,0.457,10.376,3.568,-1.964,-2.357,happy
5.8,2240,3664,3259,2404,2887,0,2894,3459,0,0,0,0,0,0,0,0,0.927,3.373,9.385,0.053,0.111,-0.054,-5.832,-0.036,9.51,3.939,-1.939,-1.332,happy
5.81,2287,3667,3310,2527,2737,0,2768,3351,0,0,0,0,0,0,0,0,0.84,3.409,9.376,0.038,0.107,-0.027,-3.596,-2.198,10.398,4.417,-1.428,0.459,happy
5.82,2405,3698,3376,2657,2663,0,2702,3294,0,0,0,0,0,0,0,0,0.962,3.354,9.333,0.018,0.131,-0.013,2.267,-5.188,11.736,4.659,-1.719,0.465,happy
5.83,2449,3728,3425,2767,2599,0,2621,3229,0,0,0,0,41,0,0,0,0.874,3.349,9.251,0.014,0.097,-0.046,1.051,-6.304,14.947,4.561,-2.464,-0.817,happy
5.84,2527,3728,3274,2862,2657,0,2410,3152,0,0,0,0,0,0,0,0,1.176,3.701,8.605,-0.046,0.12,-0.026,-1.152,-7.233,17.255,4.678,-2.628,-1.016,happy
5.85,2707,3777,3529,2959,2717,0,2438,3008,0,0,0,0,0,0,0,0,0.769,3.256,9.397,0.027,0.066,-0.021,-5.883,-9.907,19.613,4.539,-2.685,-0.252,happy
5.86,2832,3797,3569,3053,2727,0,2250,2742,0,0,0,0,0,1,0,0,0.809,3.287,9.357,0.051,0.035,-0.018,-4.676,-13.283,18.359,4.132,-3.018,0.082,happy
5.87,2938,3825,3622,3154,2722,0,1884,2231,0,0,0,0,0,0,0,0,0.907,3.268,9.294,0.069,0.052,-0.021,-5.48,-18.608,12.27,3.283,-3.147,-0.57,happy
5.88,3070,3856,3661,3242,2626,0,1217,1299,0,0,0,43,0,0,0,1,0.876,3.428,9.57,0.067,0.119,-0.015,-6.445,-19.613,1.942,1.537,-1.719,-1.557,happy
5.89,3163,3890,3695,3322,2399,0,615,0,0,0,0,0,0,0,0,0,0.749,3.625,9.143,0.094,0.168,0.03,-12.888,-19.613,-0.402,0.996,-0.759,-1.491,happy
5.9,3189,3911,3712,3363,2261,0,240,0,0,0,0,0,0,0,0,0,0.587,3.445,9.656,0.083,0.19,0.024,-13.762,-17.312,-4.35,-1.108,0.491,-0.525,happy
5.91,3232,3909,3731,3403,2123,0,0,0,0,0,0,0,0,0,0,0,1.025,3.065,9.443,0.182,0.203,0.037,-8.787,-17.312,-4.35,-1.108,0.491,-0.525,happy
5.92,3266,3917,3742,3438,1923,0,0,0,0,0,0,0,0,0,17,0,1.135,2.614,9.213,0.362,0.199,0.09,-2.806,-2.655,6.479,-1.692,1.963,0.237,happy
5.93,3287,3916,3761,3469,1623,0,0,0,0,0,0,0,0,0,0,0,1.013,3,9.301,0.54,0.185,0.131,-0.342,3.577,4.992,-2.065,-0.481,-0.167,happy
5.94,3301,3893,3735,3495,1365,0,0,0,0,0,0,0,0,0,0,92,0.761,2.926,9.392,0.75,0.185,0.2,2.574,6.515,4.992,-2.065,-0.481,-0.167,happy
5.95,3351,3892,3760,3510,1229,0,0,0,0,0,0,0,0,0,0,727,0.469,3.282,9.041,0.988,0.189,0.282,3.33,2.303,0.742,-2.512,0.95,0.55,happy
5.96,3411,3862,3766,3505,1098,0,0,0,12,0,0,0,0,0,0,1043,0.606,3.199,9.395,1.239,0.297,0.373,-0.18,-5.99,18.833,-2.351,-0.328,0.116,happy
5.97,3455,3803,3761,3495,809,0,0,0,0,0,0,0,0,0,0,1573,0.962,3.117,10.101,1.479,0.332,0.485,-3.847,-4.238,13.47,-2.351,-0.328,0.116,happy
5.98,3502,3635,3741,3447,544,0,0,0,0,0,0,0,0,0,230,2264,1.319,3.151,9.682,1.872,0.469,0.573,0.848,-1.334,11.128,-2.106,0.227,0.612,happy
5.99,3549,3538,3713,3332,285,0,0,0,0,0,0,0,0,0,717,2798,1.092,3.146,9.876,2.245,0.502,0.6,4.623,-5.064,10.317,-1.762,0.517,0.26,happy
6,3583,3433,3667,2958,0,0,0,0,0,0,0,0,1,0,1379,3237,1.358,3.235,9.718,2.761,0.676,0.635,3.496,-3.273,10.317,-1.762,0.517,0.26,happy
6.01,3600,3138,3540,2629,0,0,0,0,0,0,0,0,149,0,1640,3529,1.968,3.077,11.147,3.179,0.833,0.407,1.753,-7.652,14.011,-1.741,1.223,0.582,happy
6.02,3611,2992,3226,2182,0,0,0,0,191,4,0,0,295,0,2043,3669,0.634,3.883,12.763,4.051,0.715,-0.01,0.601,-2.205,10.147,-1.202,1.913,0.979,happy
6.03,3526,2128,2222,1730,0,0,0,0,813,119,0,0,967,0,2462,3725,1.159,4.209,15.376,5.986,0.117,-1.429,1.12,-5.035,12.206,-1.195,0.427,0.307,happy
6.04,2350,805,163,865,0,0,0,0,1250,893,7,670,1445,3,2747,3900,2.014,6.373,14.904,7.026,0.122,-2.571,0.67,-3.211,9.457,-0.73,-0.142,0.138,happy
6.05,1356,0,0,0,0,0,0,0,1559,1227,1374,971,1727,50,2889,3939,2.131,13.161,12.574,7.238,0.173,-2.746,1.279,-3.27,10.183,-0.411,-0.117,0.012,happy
6.06,0,0,0,0,0,0,0,0,2204,1689,1940,1437,2299,48,3147,3999,7.396,0.486,19.613,0.87,0.3,-3.182,1.226,-3.077,9.474,-0.424,-0.06,-0.006,happy
6.07,0,0,0,0,0,0,0,0,2631,2043,2114,1765,2709,51,3346,4011,4.958,-4.776,14.454,-0.533,0.122,-0.815,1.657,-3.397,9.433,-0.279,0.022,-0.006,happy
6.08,0,0,0,0,0,0,0,0,2749,2133,2111,1989,2764,52,3382,4004,4.47,-0.915,10.187,-1.004,-0.683,0.481,1.171,-3.354,9.613,-0.134,0.106,0.021,happy
6.09,0,0,0,0,0,0,0,0,2957,2213,2147,2157,2787,47,3339,3977,4.245,-0.541,11.492,-2.001,-0.07,1.12,1.288,-3.352,9.536,-0.116,0.122,0.041,happy
6.1,0,0,0,0,0,0,0,0,3119,2291,2162,2419,2699,47,3246,3917,0.345,-0.338,9.78,-3.092,-0.001,1.455,1.087,-3.359,9.395,-0.095,0.145,0.029,happy
6.11,0,0,0,0,0,0,0,0,3239,2247,2193,2606,2526,43,3119,3853,0.069,0.522,7.982,-3.697,-0.141,1.338,1.199,-3.462,9.582,-0.085,0.157,0.028,happy
6.12,0,0,0,0,0,0,0,0,3301,2232,1986,2707,2447,47,3039,3863,1.865,3.139,10.123,-4.144,0.264,1.26,1.245,-3.519,9.45,-0.048,0.157,0.041,happy
6.13,0,0,0,0,0,0,0,0,3415,2249,2206,2893,2287,46,2910,3770,4.547,5.835,10.783,-4.695,0.347,1.52,1.099,-3.448,9.412,-0.076,0.088,0.029,happy
6.14,0,0,0,0,0,0,0,0,3509,2253,2218,3014,2428,47,2848,3721,9.795,9.354,10.283,-4.847,0.542,2.341,1.003,-3.464,9.392,-0.075,0.058,0.032,happy
6.15,0,0,0,0,0,0,0,0,3555,2316,2239,3081,2547,48,2851,3699,16.362,14.961,8.954,-4.591,1.116,4.352,1.118,-3.488,9.493,-0.048,0.048,0.038,happy
6.16,0,0,0,0,0,0,0,0,3631,2423,2244,3111,2727,46,2797,3647,10.53,19.613,10.264,-3.754,1.334,6.872,1.113,-3.457,9.431,-0.034,-0.007,0.046,happy
6.17,0,0,0,0,0,0,0,0,3719,2549,2267,3175,2942,47,2763,3603,4.365,19.613,5.219,-2.495,1.147,7.182,0.979,-3.45,9.34,-0.026,-0.09,0.038,happy
6.18,0,0,0,0,0,0,0,0,3742,2616,2267,3217,3022,47,2707,3563,4.525,19.613,2.758,-0.988,1.813,6.312,1.204,-3.405,9.357,-0.026,-0.082,0.041,happy
6.19,0,0,0,0,160,0,0,0,3759,2759,2290,3196,3163,39,2521,3419,-1.494,18.67,2.231,-0.171,0.218,4.938,1.396,-3.598,9.448,-0.033,-0.084,0.025,happy
6.2,0,0,0,0,208,0,0,0,3863,2825,2311,3160,3229,59,2119,3099,3.024,16.807,0.275,0.522,-0.658,3.254,1.324,-3.694,9.505,-0.052,-0.075,0.01,happy
6.21,0,0,0,0,263,0,0,0,3921,2874,2341,3125,3225,46,1864,2924,7.084,14.188,-1.537,1.238,0.192,2.714,1.377,-3.589,9.498,-0.047,-0.074,0.003,happy
6.22,0,0,0,0,290,0,0,0,3995,3017,2311,3123,3003,41,1002,2315,6.639,11.866,0.249,2.049,0.788,2.659,1.441,-3.565,9.431,-0.085,-0.04,-0.04,happy
6.23,0,0,0,0,284,0,0,0,4051,2965,2316,3161,2631,47,333,1557,4.331,10.482,4.164,2.675,0.017,3.507,1.346,-3.644,9.29,-0.063,0.07,-0.045,happy
6.24,108,1232,0,0,950,0,0,0,4051,2860,2323,3183,2407,21,52,1165,-19.613,10.307,19.613,-0.382,1.502,1.328,1.298,-3.788,9.364,-0.032,0.132,-0.053,happy
6.25,283,2180,0,0,1461,0,409,0,3965,2717,2339,3171,1875,6,17,1000,-1.686,1.056,7.372,0.907,0.416,-0.44,1.334,-3.294,9.457,-0.104,0.274,0.035,happy
6.26,663,2651,729,0,1664,0,1074,1950,3817,2411,2341,3284,874,5,5,535,6.483,3.455,6.926,0.358,-0.367,-0.572,1.504,-3.443,9.74,-0.313,0.359,0.034,happy
6.27,1008,3065,2034,272,2158,0,1875,2784,3911,1948,2336,3291,487,9,3,471,0.771,4.685,10.156,0.242,-0.406,-0.339,0.946,-3.622,9.05,-0.424,0.241,0.19,happy
6.28,1360,3215,2388,567,2438,0,2345,3135,4028,1543,2316,3287,157,4,3,392,0.156,3.706,10.096,0.17,-0.291,0.026,-2.081,-5.576,10.369,-0.581,-0.274,1.034,happy
6.29,1600,3355,2597,531,2614,0,2665,3250,4039,558,2249,3241,0,1,0,508,1.362,3.285,9.443,0.302,-0.141,0.098,0.608,-7.14,7.592,-0.098,-1.09,2.96,happy
6.3,1731,3488,2642,432,2811,0,2847,3312,4041,0,2165,3128,0,0,0,431,1.674,3.57,9.129,0.227,-0.206,0.047,3.378,-4.408,9.055,-0.083,-1.418,3.703,happy
6.31,1811,3568,2758,541,2975,0,2941,3382,3947,0,1755,2469,0,25,1,347,1.647,3.587,9.184,0.078,-0.065,0.074,3.565,-4.269,9.064,-0.217,-1.322,4.285,happy
6.32,1893,3632,2835,653,3045,0,3009,3427,3857,0,0,1464,0,0,0,207,1.398,3.682,9.158,-0.027,0.022,0.064,1.539,-4.001,8.504,-0.254,-1.561,4.425,happy
6.33,1907,3660,2918,847,3085,0,3035,3463,3619,0,0,1099,0,0,0,159,1.29,3.663,9.471,-0.183,0.154,0.038,0.405,-3.754,9.819,-0.173,-1.897,4.512,happy
6.34,1851,3664,2988,1023,3100,0,3059,3469,3154,31,0,335,0,0,0,191,1.132,3.129,9.299,-0.181,0.159,0.12,0.508,-4.302,9.742,0.165,-1.945,4.441,happy
6.35,1847,3696,3062,1301,3133,0,3088,3497,1455,0,0,0,0,0,0,63,1.089,3.168,9.278,-0.075,0.153,0.106,-2.047,-3.627,9.857,0.664,-2.026,4.204,happy
6.36,1872,3706,3088,1491,3105,0,3093,3507,612,0,0,0,0,0,0,14,0.967,3.153,9.325,-0.035,0.153,0.039,-6.416,-3.455,10.585,0.903,-2.069,4.452,happy
6.37,1935,3699,3127,1621,3056,0,3092,3504,262,0,0,0,0,0,0,0,1.14,3.256,9.323,0.03,0.094,-0.007,-5.289,-4.685,10.712,1.764,-2.251,4.385,happy
6.38,1997,3699,3152,1793,3071,0,3097,3499,121,0,12,0,0,0,0,0,1.053,3.294,9.328,0.05,0.101,-0.006,-5.578,-4.053,8.401,1.587,-2.195,4.407,happy
6.39,2098,3728,3215,1968,3086,0,3111,3515,0,0,0,0,0,0,0,0,0.986,3.27,9.548,0.035,0.111,0.015,-6.584,-4.264,9.507,1.606,-2.07,4.638,happy
6.4,2155,3727,3241,2077,3103,0,3103,3505,0,0,0,0,0,0,0,0,0.903,3.237,9.61,0.079,0.123,-0.001,-7.013,-4.396,10.02,1.664,-1.974,4.99,happy
6.41,2256,3712,3248,2175,3063,0,3071,3479,0,0,0,0,0,0,0,0,0.953,3.278,9.39,0.131,0.083,-0.013,-5.83,-4.815,9.031,1.728,-1.575,5.683,happy
6.42,2363,3714,3280,2288,2996,0,3031,3455,0,0,0,0,0,0,0,0,0.802,3.364,9.371,0.106,0.087,-0.007,-3.941,-5.176,7.913,1.498,-1.1,6,happy
6.43,2505,3717,3294,2356,2997,81,3035,3433,0,0,0,0,0,0,0,0,0.836,3.361,9.369,0.087,0.067,0.002,-2.605,-5.717,8.013,1.34,-0.94,6.014,happy
6.44,2555,3717,3326,2416,2992,227,2998,3471,0,0,0,0,0,17,0,0,0.972,3.342,9.404,0.091,0.062,0.001,-0.34,-6.309,8.351,1.066,-0.763,5.617,happy
6.45,2621,3701,3339,2422,3002,374,3020,3391,0,0,0,0,0,0,5,0,0.855,3.316,9.337,0.063,0.093,0.017,0.318,-6.596,8.267,0.771,-1.149,4.918,happy
6.46,2687,3698,3350,2482,3003,660,2995,3363,0,16,0,0,0,0,0,0,0.883,3.316,9.407,0.08,0.067,0.012,0.314,-6.337,7.956,0.645,-1.406,4.585,happy
6.47,2752,3725,3379,2544,3066,631,2983,3344,0,0,0,0,0,5,0,0,0.857,3.294,9.4,0.078,0.087,0.014,0.9,-6.117,7.786,0.409,-1.33,4.143,happy
6.48,2807,3733,3408,2628,3023,647,2944,3311,0,0,0,0,0,0,0,0,0.893,3.247,9.28,0.074,0.083,0,2.334,-6.792,8.878,0.487,-1.071,3.511,happy
6.49,2829,3687,3407,2652,2949,577,2802,3131,0,0,0,0,0,0,0,0,0.886,3.371,9.373,0.087,0.115,0.001,2.459,-7.451,7.355,0.435,-0.939,3.156,happy
6.5,2944,3737,3454,2771,2964,225,2707,2832,0,0,0,0,0,0,0,12,0.85,3.259,9.493,0.116,0.153,-0.002,11.14,-5.066,7.441,-0.847,-1.269,2.317,happy
6.51,3038,3760,3450,2829,2883,0,2448,2449,0,0,0,0,0,0,0,685,0.826,3.215,9.5,0.162,0.152,-0.029,19.613,-4.348,4.025,-1.425,-1.473,-0.652,happy
6.52,3107,3760,3503,2875,2768,0,1917,1769,0,0,0,0,0,0,237,1307,0.742,3.306,9.469,0.225,0.165,-0.064,4.144,-3.812,9.814,-1.07,-0.328,-0.462,happy
6.53,3146,3774,3513,2886,2408,0,1033,37,0,0,135,0,0,0,875,2379,0.915,3.218,9.57,0.3,0.195,-0.042,2.538,-2.437,7.681,-0.095,0.544,0.229,happy
6.54,3127,3725,3503,2943,1344,0,81,0,0,0,2,0,63,0,1117,2863,0.718,2.452,9.483,0.62,0.341,0.255,-2.72,-0.797,12.143,-0.671,-0.116,0.13,happy
6.55,2847,3420,3402,2677,713,0,0,0,0,4,0,73,292,0,1135,3051,2.119,2.89,9.51,0.725,0.605,0.254,0.974,-3.869,10.003,-0.317,-0.047,0.109,happy
6.56,2974,3170,3189,2513,0,0,0,0,116,315,5,492,719,4,1895,3315,3.29,4.927,10.932,0.728,1.221,0.33,1.618,-3.017,9.629,-0.228,-0.134,0.107,happy
6.57,2819,1670,2384,2251,0,0,0,0,188,639,161,957,979,19,2406,3513,4.171,4.683,11.758,0.185,2.871,0.078,0.994,-3.005,9.598,-0.096,-0.006,0.126,happy
6.58,2558,134,150,1344,0,0,0,0,171,638,1072,1041,1205,38,2591,3615,3.395,2.09,11.193,0.763,3.546,-0.831,0.852,-3.127,9.603,-0.123,-0.086,0.052,happy
6.59,1561,0,0,0,0,0,0,0,221,760,1353,1334,1790,44,2965,3829,5.595,4.997,11.167,1.179,4.315,-2.188,1.178,-3.141,9.646,0.051,-0.078,0.013,happy
6.6,370,0,0,0,0,0,0,0,306,841,1778,1381,2312,47,3232,3885,13.692,15.153,16.587,-0.047,4.467,-0.327,1.437,-3.017,9.471,0.019,-0.072,0.056,happy
6.61,187,0,0,0,0,0,0,0,295,1004,1870,1459,2468,47,3301,3912,12.457,8.203,5.047,-0.528,2.254,4.687,1.48,-3.438,9.905,0.069,-0.014,0.053,happy
6.62,142,0,0,0,0,0,0,0,295,1200,1952,1550,2709,51,3455,3911,1.578,7.973,6.072,-0.201,1.244,5.502,1.245,-3.067,9.572,0.022,-0.055,-0.022,happy
6.63,1,0,0,0,0,0,0,0,267,1271,2037,1573,2857,46,3499,3925,2.789,6.232,8.61,-0.097,0.736,4.886,1.353,-3.093,9.632,0.065,-0.016,-0.001,happy
6.64,0,0,0,0,0,0,0,0,221,1278,2034,1559,2860,44,3519,3912,1.709,4.764,8.861,-0.263,0.962,4.314,1.288,-3.117,9.565,0.077,-0.01,0.005,happy
6.65,0,0,0,0,0,0,0,0,238,1195,2034,1503,2907,55,3529,3893,2.081,4.135,9.06,-0.46,0.736,3.995,1.276,-2.995,9.491,0.071,-0.008,0.007,happy
6.66,0,0,0,0,0,0,0,0,175,1148,2019,1482,2923,40,3519,3839,2.804,3.972,9.246,-0.594,0.718,3.743,1.341,-3.029,9.5,0.054,-0.014,-0.002,happy
6.67,0,0,0,0,0,0,0,0,139,1127,1993,1414,2981,33,3555,3859,4.824,4.396,8.435,-1.026,0.66,3.617,1.305,-2.988,9.548,0.059,0.007,0.01,happy
6.68,0,0,0,0,0,0,0,0,121,1188,1988,1417,3006,31,3488,3831,5.212,5.988,8.938,-1.235,0.672,3.71,1.29,-2.859,9.412,0.035,0.005,0.021,happy
6.69,0,0,0,0,0,0,0,0,147,1325,1940,1427,3036,37,3563,3820,6.177,4.654,8.423,-1.192,0.811,4.38,1.235,-2.866,9.51,0.006,0.002,0.035,happy
6.7,0,0,0,0,0,0,0,0,147,1391,1988,1434,3068,37,3562,3817,6.191,5.665,8.866,-1.397,0.794,4.848,1.348,-3.002,9.524,-0.002,-0.001,0.051,happy
6.71,0,0,0,0,0,0,0,0,123,1541,2085,1434,3180,87,3563,3756,5.945,6.642,9.342,-1.708,0.834,5.246,1.195,-2.883,9.613,-0.02,-0.033,0.07,happy
6.72,0,0,0,0,0,0,0,0,169,1639,2103,1348,3253,40,3517,3797,5.145,7.331,10.032,-2.03,0.827,5.571,0.828,-1.511,9.352,-0.001,-0.11,0.113,happy
6.73,17,0,0,0,0,0,0,0,217,1820,2162,1357,3373,45,3534,3615,3.534,7.961,10.609,-2.309,0.686,5.663,1.446,-2.753,9.392,-0.083,-0.05,0.115,happy
6.74,29,0,0,0,0,0,0,0,247,2065,2193,1257,3487,44,3347,3455,2.035,6.637,8.459,-2.171,0.629,5.162,1.355,-3.148,9.481,-0.123,-0.05,0.136,happy
6.75,26,0,0,0,0,0,0,0,303,2312,2206,1317,3541,48,3429,3343,2.234,6.665,8.918,-1.523,0.666,4.311,1.35,-3.141,9.503,-0.139,-0.082,0.147,happy
6.76,0,0,0,0,0,0,0,0,493,2585,2262,1385,3607,51,3311,3182,2.986,10.35,13.063,-1.052,0.624,3.552,1.513,-2.954,9.354,-0.18,-0.082,0.18,happy
6.77,0,0,0,0,0,0,0,0,1061,2792,2270,1677,3677,51,3222,3143,-2.121,17.494,19.613,-1.84,-0.31,2.972,1.456,-3.565,9.467,-0.248,-0.089,0.189,happy
6.78,0,0,0,0,112,0,0,0,1307,2840,2280,1979,3717,0,3132,3079,-5.966,16.333,9.512,-3.145,-2.111,2.037,1.595,-3.112,9.282,-0.224,-0.003,0.137,happy
6.79,18,0,0,0,113,0,0,0,2387,3019,2313,2298,3748,48,2935,2986,-4.59,14.437,-4.961,-1.746,-1.11,1.254,1.599,-3.4,9.534,-0.321,0.119,0.1,happy
6.8,65,0,0,0,137,0,0,0,3077,3207,2321,2617,3747,47,2485,2523,-7.41,16.63,-3.529,-0.116,0.61,0.169,1.463,-3.369,9.488,-0.327,0.148,0.037,happy
6.81,109,0,0,0,106,0,0,0,3429,3251,2285,2751,3719,47,2212,2215,-2.509,13.357,1.02,0.904,0.255,-0.315,1.379,-3.421,9.292,-0.33,0.104,0.019,happy
6.82,146,0,0,0,87,0,0,0,3831,3325,2308,2901,3434,59,1315,1161,-1.47,9.656,4.525,1.872,1.842,0.488,1.489,-4.671,9.318,-0.271,0.018,0.056,happy
6.83,0,0,0,0,205,0,0,622,4011,3501,2311,3037,3189,28,88,533,-2.607,-2.167,14.478,1.057,0.707,0.919,1.472,-3.57,9.668,-0.081,-0.024,0.24,happy
6.84,0,0,0,0,215,0,368,2558,4091,3534,2316,3177,2940,54,20,629,-11.068,-0.895,9.009,2.904,-0.151,-0.379,1.302,-2.619,9.773,-0.509,0.146,0.017,happy
6.85,0,0,0,0,474,0,945,3131,4095,3515,2329,3252,2181,6,4,453,5.938,8.926,12.04,2.046,-0.631,-0.353,1.654,-3.405,9.055,-0.67,0.07,-0.113,happy
6.86,0,0,0,0,849,0,1779,3341,4095,3407,2346,3346,1369,5,0,239,6.371,6.404,17.684,1.285,1.621,-1.24,1.42,-3.414,9.17,-1.076,-0.019,-0.078,happy
6.87,56,945,0,0,1390,0,2309,3455,4095,3285,2346,3354,847,0,5,245,-0.587,3.342,12.246,0.612,1.381,-0.624,1.274,-2.957,9.85,-1.599,0.071,-0.108,happy
6.88,313,1988,0,0,1819,0,2481,3547,4095,2855,2413,3239,391,0,2,240,0.06,3.124,12.438,0.512,0.933,-0.472,1.377,-2.693,9.086,-2.948,0.337,-0.144,happy
6.89,592,2646,197,0,2209,0,2645,3597,4095,2121,2449,2773,200,6,3,203,0.986,3.043,10.022,0.359,0.147,-0.218,1.829,-1.954,11.923,-4.109,0.592,0.364,happy
6.9,852,3026,1647,184,2390,0,2826,3641,4095,1383,1957,2011,99,6,2,175,0.946,3.512,9.941,0.3,0.129,-0.21,1.645,-4.59,14.269,-4.696,0.225,0.995,happy
6.91,1111,3203,2303,694,2598,0,2944,3658,3783,111,0,421,0,0,0,39,0.606,3.321,9.567,0.251,-0.016,-0.077,3.862,-9.922,15.807,-6.45,-1.109,2.09,happy
6.92,1201,3322,2682,1210,2765,0,3025,3666,2790,0,0,0,0,0,0,95,0.891,3.29,9.589,0.2,0.018,-0.028,-1.446,-10.795,16.798,-5.846,-2.322,2.935,happy
6.93,1363,3439,2887,1623,2882,0,3110,3693,118,0,0,0,0,0,0,37,0.752,3.955,9.984,0.156,0.002,0.01,2.071,-7.046,19.462,-3.282,-2.392,3.533,happy
6.94,1520,3527,3056,1921,2964,0,3151,3680,0,0,120,0,0,0,0,6,1.109,3.467,9.498,0.156,0.002,0.009,-0.936,-1.085,19.613,1.065,-0.299,4.159,happy
6.95,1662,3610,3177,2122,3044,0,3139,3654,0,0,0,0,0,0,0,0,1.113,3.364,9.39,0.108,0.019,0.025,6.297,7.58,5.923,1.775,-0.323,3.194,happy
6.96,1685,3601,3197,2079,3020,0,3097,3561,0,0,0,0,0,0,0,0,0.627,3.036,9.009,-0.06,0.04,0.007,7.633,2.473,8.602,1.765,-1.049,1.908,happy
6.97,1729,3664,3271,2214,3088,0,3090,3600,0,0,0,0,0,0,0,0,0.874,3.472,9.39,0.008,0.049,0.021,6.699,1.891,11.265,2.362,-1.575,0.753,happy
6.98,1759,3680,3313,2261,3111,0,3059,3554,0,0,0,0,0,0,0,0,0.922,3.27,9.421,0.03,0.033,0.021,5.315,0.632,11.044,2.924,-1.958,-0.267,happy
6.99,1766,3696,3335,2288,3123,0,3035,3509,0,0,17,0,0,0,0,0,0.903,3.239,9.409,0.055,0.013,0.019,1.262,0.373,10.233,3.445,-2.116,-0.889,happy
7,1809,3723,3376,2371,3170,0,2982,3415,0,0,0,0,0,0,0,0,0.862,3.218,9.325,0.076,-0.013,0.009,-2.073,-0.522,9.21,3.768,-2.204,-0.953,happy
7.01,1807,3703,3387,2377,3134,0,2916,3294,0,0,0,0,0,0,0,0,0.9,3.232,9.316,0.106,-0.048,0.003,-3.977,-2.581,10.752,4.2,-1.841,-0.41,happy
7.02,1941,3769,3459,2479,3237,0,2884,3217,0,0,0,0,0,0,0,0,0.982,3.287,9.323,0.09,-0.031,-0.009,-3.153,-4.527,12.687,4.564,-1.761,0.138,happy
7.03,2007,3789,3477,2512,3263,0,2848,3101,0,0,0,0,0,0,0,0,1.003,3.347,9.306,0.05,-0.025,-0.026,-1.779,-5.308,13.226,4.673,-1.771,0.124,happy
7.04,2047,3823,3534,2589,3311,0,2823,2955,0,0,0,21,0,0,6,27,0.883,3.359,9.313,0.041,0.014,-0.031,0.062,-6.287,14.947,4.547,-1.769,-0.313,happy
7.05,2081,3839,3579,2674,3355,0,2779,2686,0,0,0,0,0,0,0,0,0.977,3.354,9.378,0.03,0.011,-0.051,-1.207,-9.732,18.059,4.16,-1.815,-0.877,happy
7.06,2169,3862,3615,2742,3392,0,2702,2372,0,0,0,0,0,0,0,0,1.061,3.225,9.33,0.086,-0.008,-0.056,-3.388,-13.367,17.667,3.789,-2.314,-1.227,happy
7.07,2339,3870,3649,2799,3393,0,2509,1808,0,0,0,0,0,0,0,0,1.051,3.242,9.349,0.152,-0.022,-0.051,-1.152,-19.613,12.876,2.906,-2.289,-1.565,happy
7.08,2493,3925,3682,2859,3431,0,2129,43,0,0,0,0,0,0,0,0,0.986,3.369,9.282,0.224,-0.01,-0.07,-7.372,-19.613,-1.609,2.107,-0.917,-2.124,happy
7.09,2640,3952,3710,2930,3303,0,1500,0,0,0,0,0,0,0,0,0,1.027,3.515,9.476,0.179,0.092,-0.073,-11.289,-19.613,-6.574,1.1,-1.03,-1.977,happy
7.1,2777,3979,3758,3035,2657,0,594,0,0,0,0,0,0,0,0,0,1.137,3.589,9.507,0.264,0.131,-0.065,-8.878,-11.641,-12.483,-2.084,1.108,-0.591,happy
7.11,2954,4002,3765,3085,2208,0,304,0,0,8,0,0,0,0,0,1,1.197,2.94,9.261,0.763,0.022,0.115,1.386,6.965,19.613,-1.241,0.27,-0.467,happy
7.12,3048,3986,3771,3157,2091,0,86,0,0,0,61,0,0,0,0,566,1.142,3.316,9.397,0.922,0.114,0.147,2.796,5.947,-3.857,-2.729,-0.541,-0.605,happy
7.13,3142,4007,3776,3202,1839,0,4,0,0,0,0,0,0,0,0,905,1.061,3.278,9.254,1.116,0.2,0.193,-1.772,-2.878,10.415,-2.998,0.374,0.372,happy
7.14,3226,3988,3791,3199,1450,0,0,0,0,0,0,0,0,0,0,1303,0.79,3.567,9.469,1.321,0.2,0.24,-6.369,-8.258,18.115,-2.662,-0.258,0.102,happy
7.15,3309,3985,3785,3195,1296,0,0,0,33,0,0,0,0,0,277,2141,1.317,3.45,9.534,1.565,0.258,0.314,-3.247,-1.623,11.866,-2.457,-0.187,0.445,happy
7.16,3440,3950,3771,3065,913,0,0,0,0,3,0,0,0,0,737,2742,1.695,3.211,9.639,1.994,0.533,0.477,3.735,-4.369,10.364,-2.222,-0.256,0.555,happy
7.17,3447,3853,3676,2842,537,0,0,0,0,0,0,0,0,0,1102,3141,1.53,3,9.548,2.278,0.626,0.521,19.613,-0.824,16.644,-1.788,-0.744,0.353,happy
7.18,3355,3279,3413,2382,41,0,0,0,0,202,0,0,680,0,1855,3431,1.958,3.158,9.639,2.943,0.879,0.434,2.31,-3.505,10.183,-0.419,1.611,0.864,happy
7.19,3552,2974,3188,1874,0,0,0,0,0,733,0,0,1561,0,2583,3605,1.865,4.973,11.339,4.12,0.409,-0.478,1.027,-4.187,10.953,-0.39,0.525,0.312,happy
7.2,3341,2066,2154,1514,0,0,0,0,45,879,0,99,1823,0,2575,3672,1.02,4.47,14.246,5.649,-0.126,-1.622,1.697,-3.864,10.271,-0.273,0.332,0.176,happy
7.21,2239,1084,176,268,0,0,0,0,149,1303,43,218,2301,2,2876,3771,2.832,8.337,13.932,6.95,-0.108,-2.652,1.097,-3.412,9.919,-0.056,0.12,0.142,happy
7.22,999,21,0,0,0,0,0,0,218,1396,1210,670,2728,41,3161,3896,1.389,11.768,14.705,5.603,0.528,-3.028,1.676,-3.014,9.572,0.005,0.096,0.175,happy
7.23,0,0,0,0,0,0,0,0,243,1489,1461,846,2871,45,3287,3940,11.509,1.733,16.146,0.7,0.345,-3.19,1.437,-2.861,9.598,-0.039,0.074,0.169,happy
7.24,0,0,0,0,0,0,0,0,284,1738,1771,1144,3060,46,3495,3859,8.674,-3.01,8.313,-0.682,0.808,-1.498,1.386,-3.1,9.383,-0.096,0.009,0.087,happy
7.25,0,0,0,0,0,0,0,0,367,1901,2024,1320,3227,46,3507,3987,6.074,-1.214,8.54,-1.023,-0.603,-0.312,1.367,-3.005,9.646,-0.033,-0.042,0.078,happy
7.26,0,0,0,0,0,0,0,0,395,1996,2065,1363,3283,21,3605,3816,6.646,0.371,11.016,-1.986,-1.287,0.589,1.408,-3.041,9.529,-0.029,-0.055,0.077,happy
7.27,0,0,0,0,0,0,0,0,421,2157,2111,1533,3373,47,3589,3915,2.449,0.843,9.665,-3.045,-1.132,1.154,1.379,-2.978,9.488,-0.05,0.027,0.075,happy
7.28,0,0,0,0,0,0,0,0,445,2365,2142,1471,3405,50,3481,3853,0.081,1.221,8.215,-3.465,-1.508,1.128,1.621,-3.1,9.498,-0.073,0.049,0.078,happy
7.29,0,0,0,0,0,0,0,0,263,2429,2162,1591,3413,47,3436,3823,-0.172,2.875,10.247,-3.775,-1.564,0.908,0.611,-2.72,9.632,-0.113,0.072,0.115,happy
7.3,0,0,0,0,0,0,0,0,296,2423,2178,1547,3413,39,3303,3767,-0.529,4.484,11.626,-4.184,-1.714,0.789,1.367,-3.16,9.522,-0.011,0.065,0.139,happy
7.31,0,0,0,0,0,0,0,0,493,2575,2149,1877,3416,51,3231,3721,-0.002,5.557,12.325,-4.328,-1.686,0.904,1.286,-3.182,9.488,-0.022,0.055,0.119,happy
7.32,0,0,0,0,0,0,0,0,629,2603,2224,1897,3431,50,3213,3704,-0.065,8.528,15.878,-4.317,-1.612,1.121,1.441,-3.024,9.364,-0.029,0.059,0.119,happy
7.33,0,0,0,0,0,0,0,0,765,2678,2239,2266,3477,50,3141,3645,-1.324,10.324,16.527,-4.317,-1.631,1.139,1.405,-3.302,9.632,-0.035,0.087,0.112,happy
7.34,0,0,0,0,0,0,0,0,1179,2791,2229,2426,3543,47,2998,3549,-0.215,14.954,17.004,-3.773,-1.316,1.289,1.448,-3.031,9.342,-0.119,0.066,0.098,happy
7.35,0,0,0,0,0,0,0,0,1711,2875,2262,2585,3544,55,2873,3475,-0.565,19.613,16.369,-3.738,-0.628,1.604,1.642,-3.182,8.712,-0.219,0.049,0.082,happy
7.36,0,0,0,0,0,0,0,0,2551,3028,2270,2783,3612,47,2675,3178,-6.464,19.613,3.342,-3.139,-1.033,2.037,1.362,-3.179,9.663,-0.239,0.004,0.052,happy
7.37,107,0,0,0,112,0,0,0,3254,3155,2282,2983,3620,45,2239,2360,-8.349,19.613,-6.297,-1.674,-1.375,2.137,1.489,-3.381,9.579,-0.289,0.033,0.019,happy
7.38,308,0,0,0,144,0,0,0,3425,3189,2280,3049,3596,47,1928,1952,-10.551,17.801,-19.594,1.186,0.571,1.718,1.453,-3.575,9.711,-0.301,0.099,0.021,happy
7.39,0,0,0,0,93,0,0,0,3719,3303,2305,3263,3319,47,693,735,-1.499,6.697,19.613,2.064,2.405,-0.513,1.377,-3.785,9.146,-0.251,0.2,0.033,happy
7.4,11,0,0,0,71,0,146,1103,3957,3400,2346,3427,2655,7,0,308,0.891,-3.84,3.39,1.908,-0.199,0.056,1.662,-2.394,10.858,-0.292,0.189,0.131,happy
7.41,0,0,0,0,240,0,634,2722,3980,3356,2349,3431,2239,12,5,344,-1.446,3.376,15.119,2.91,-0.394,-0.891,0.912,-4.501,8.473,-0.764,0.317,-0.187,happy
7.42,0,0,0,0,1013,0,1677,3222,4095,3052,2354,3565,965,0,5,170,3.203,4.82,10.795,2.212,-0.522,0.155,0.383,-3.349,10.084,-0.742,0.125,-0.209,happy
7.43,0,402,0,0,1558,0,2480,3427,4095,2836,2372,3666,181,7,2,111,-2.579,5.404,9.261,0.956,1.157,-0.046,2.399,-1.81,10.834,-1.848,0.254,-0.438,happy
7.44,64,1600,0,0,2078,0,2736,3536,4073,2539,2444,3671,90,31,2,124,1.365,3.733,10.649,0.356,1.066,-0.356,5.08,-2.65,11.803,-3.014,0.577,-0.549,happy
7.45,174,2194,0,0,2373,0,2902,3600,4095,1286,2515,3375,0,0,0,108,0.414,3.893,11.073,0.285,0.715,-0.147,1.975,-2.191,10.913,-4.336,1.802,-0.031,happy
7.46,176,2672,0,0,2629,0,3040,3681,3961,59,0,2393,0,0,0,41,0.867,2.658,10.118,0.273,0.648,-0.199,4.269,-5.437,17.846,-6.137,1.34,2.155,happy
7.47,332,3024,0,0,2798,0,3154,3718,3765,0,0,1429,0,0,0,3,1.36,2.672,9.768,0.279,0.158,-0.37,2.239,-4.561,14.056,-6.433,1.132,3.293,happy
7.48,485,3205,687,0,2881,0,3215,3710,3357,0,0,533,0,1,0,0,0.869,3.965,10.285,0.332,-0.12,-0.287,1.487,-6.795,19.46,-5.828,1.102,3.565,happy
7.49,593,3345,1595,0,3094,0,3312,3712,0,0,0,0,0,0,0,0,1.223,3.177,9.462,0.216,0.114,-0.052,1.554,-2.081,19.613,-1.604,0.676,4.106,happy
7.5,639,3419,1947,59,3202,0,3330,3701,0,0,0,0,0,0,0,21,1.065,3.407,9.84,0.152,0.042,0.009,3.469,-8.885,19.613,-0.479,-0.588,2.741,happy
7.51,673,3478,2167,160,3311,0,3353,3691,0,0,0,0,0,0,0,0,1.061,2.892,9.606,0.176,0.031,-0.018,9.965,4.946,10.324,0.926,0.095,2.539,happy
7.52,784,3520,2321,214,3365,0,3365,3649,0,0,0,0,0,0,0,0,1.286,2.83,9.4,0.229,0.018,-0.072,9.048,3.335,4.851,1.157,0.374,1.439,happy
7.53,777,3567,2453,293,3421,0,3361,3615,0,0,0,0,0,0,0,0,1.168,3,9.44,0.261,-0.064,-0.091,6.97,2.023,6.567,1.171,-0.305,0.558,happy
7.54,738,3583,2462,352,3424,0,3159,3536,0,0,0,0,0,8,0,0,1.137,3.244,9.51,0.245,-0.084,-0.082,7.877,0.757,8.748,1.61,-0.798,-0.315,happy
7.55,811,3646,2741,442,3492,0,3342,3440,0,0,0,17,0,0,0,0,1.173,3.194,9.553,0.232,-0.122,-0.056,6.704,0.038,9.488,2.146,-0.922,-1.066,happy
7.56,880,3673,2838,479,3526,0,3306,3333,0,0,0,0,0,9,0,0,1.147,3.211,9.522,0.234,-0.106,-0.031,3.642,-0.476,9.347,2.663,-0.991,-1.479,happy
7.57,919,3703,2912,553,3545,0,3271,3221,0,0,0,0,0,0,0,0,1.109,3.11,9.371,0.244,-0.046,-0.053,1.053,-1.02,8.815,3.034,-1.235,-1.587,happy
7.58,941,3728,2965,625,3557,0,3246,3146,0,0,0,0,0,0,0,0,1.269,3.134,9.244,0.192,-0.046,-0.051,0.239,-1.314,8.6,3.283,-1.364,-1.47,happy
7.59,970,3750,3023,705,3569,0,3214,3101,0,0,0,0,3,0,0,0,1.348,3.196,9.323,0.206,-0.034,-0.044,-0.314,-1.973,9.349,3.535,-1.397,-1.276,happy
7.6,1054,3803,3122,844,3605,0,3175,2994,0,0,0,0,0,0,0,0,1.322,3.1,9.266,0.226,-0.032,-0.053,-0.572,-3.414,11.08,4.035,-1.599,-0.949,happy
7.61,1113,3825,3238,1011,3614,0,3105,2864,0,0,0,0,0,0,0,0,1.202,3.484,9.507,0.206,-0.066,-0.052,-0.455,-3.886,11.399,4.141,-1.726,-0.909,happy
7.62,1258,3856,3323,1216,3634,0,3056,2714,0,0,0,0,0,0,0,0,1.228,3.4,9.316,0.171,-0.054,-0.105,-0.364,-5.234,14.028,4.179,-1.971,-1.006,happy
7.63,1376,3903,3410,1505,3664,0,3011,2602,0,0,0,0,0,0,0,0,1.281,3.268,9.227,0.187,-0.015,-0.116,-0.517,-6.721,17.459,4.379,-1.758,-1.054,happy
7.64,1453,3920,3494,1817,3669,0,2934,2462,0,0,0,0,0,0,0,0,1.468,3.309,9.282,0.169,0.028,-0.106,-1.587,-7.973,18.478,4.226,-1.767,-0.912,happy
7.65,1520,3950,3559,2044,3682,0,2807,2196,0,0,0,0,0,0,0,0,1.252,3.534,9.507,0.176,0.001,-0.074,-3.44,-13.987,17.408,3.549,-2.502,-0.894,happy
7.66,1595,3969,3423,2177,3666,0,2449,850,3,0,0,0,0,0,0,0,1.207,3.472,9.321,0.256,0.007,-0.084,-2.284,-19.613,11.14,2.995,-1.67,-1.43,happy
7.67,1741,3996,3661,2304,3659,0,2302,0,0,0,0,0,0,0,0,0,1.207,3.709,9.246,0.277,0.02,-0.089,-6.912,-19.613,2.418,2.564,-1.255,-1.881,happy
7.68,1841,4011,3683,2399,3583,0,1982,0,1589,2552,0,2491,2585,1671,1567,3101,1.223,3.713,9.182,0.268,0.139,-0.055,-12.694,-19.613,-5.583,1.43,-1.157,-1.784,happy
7.69,1968,4026,3728,2582,3345,0,994,0,0,0,0,0,0,0,0,0,1.369,3.481,9.29,0.292,0.234,-0.048,-11.454,-19.613,-12.201,-1.836,1.401,-0.717,happy
7.7,2134,4029,3574,2740,2538,0,423,0,0,0,0,0,0,0,0,0,1.954,1.975,8.6,0.591,0.254,-0.004,0.089,1.906,19.613,-0.861,2.122,0.403,happy
7.71,2310,4025,3600,2789,2306,0,271,0,0,0,0,5,3,0,0,525,1.592,3.766,9.328,0.768,0.235,0.109,4.374,2.921,4.444,-2.438,-0.953,-0.269,happy
7.72,2471,4032,3603,2864,2055,0,93,0,0,0,0,0,0,0,0,956,1.233,3.859,9.404,0.941,0.334,0.143,2.15,-1.032,2.82,-2.593,0.1,0.143,happy
7.73,2665,3898,3559,2761,1786,0,0,0,0,0,0,0,0,0,0,1343,1.571,3.476,9.493,1.109,0.288,0.157,-6.776,-6.639,18.007,-2.303,-0.186,0.087,happy
7.74,2870,4016,3611,3018,1461,0,0,0,0,0,0,0,0,0,185,2021,1.918,3.409,9.816,1.417,0.396,0.277,-4.805,-0.953,13.417,-2.26,-0.487,0.416,happy
7.75,3197,3984,3795,3013,1152,0,0,0,0,0,0,0,0,0,599,2495,1.865,3.215,9.311,2.081,0.618,0.455,4.848,-3.797,10.441,-2.332,-0.702,0.509,happy
7.76,3330,3935,3771,2883,972,0,0,0,0,0,0,0,0,0,911,2844,1.48,2.923,9.196,2.546,0.829,0.548,5.011,-4.243,10.697,-2.26,-0.967,0.015,happy
7.77,3438,3649,3713,2617,714,0,0,0,0,0,0,0,9,0,1639,3162,1.738,3.934,10.989,3.056,0.858,0.434,2.423,-9.029,18.443,-1.567,0.832,0.555,happy
7.78,3504,3312,3578,2233,362,0,0,0,0,0,0,0,271,0,2037,3407,-0.733,3.122,11.138,3.685,0.682,0.227,3.917,-3.685,9.989,-0.359,1.061,0.549,happy
7.79,3503,2835,2847,1699,0,0,0,0,0,91,0,0,1172,0,2527,3694,1.741,4.879,15.649,5.651,-0.199,-0.974,1.082,-3.498,10.151,-0.27,0.89,0.427,happy
7.8,2609,1623,678,851,0,0,0,0,0,627,0,0,1855,9,2857,3859,3.575,7.499,16.041,7.216,0.186,-2.103,1.494,-3.06,10.005,-0.239,0.374,0.294,happy
7.81,1616,182,0,0,0,0,0,0,55,686,0,142,2104,0,3019,3930,-0.278,9.031,14.356,7.564,-0.06,-2.929,1.082,-3.424,10.163,-0.148,0.317,0.196,happy
7.82,0,0,0,0,0,0,0,0,89,990,952,359,2407,25,3220,4024,4.185,1.082,19.613,0.977,0.232,-3.437,1.448,-3.218,10.324,-0.01,0.243,0.101,happy
7.83,0,0,0,0,0,0,0,0,102,1108,913,475,2523,27,3335,4063,11.823,7.408,9.898,-0.083,-0.119,-1.9,1.494,-3.259,9.776,0.028,0.198,0.096,happy
7.84,0,0,0,0,0,0,0,0,150,1032,1138,599,2629,31,3406,4079,6.184,-4.81,9.507,-0.826,0.61,-2.089,1.693,-3.062,9.708,-0.012,0.138,0.04,happy
7.85,0,0,0,0,0,0,0,0,175,727,1305,768,2642,37,3449,4095,6.108,-1.951,9.361,-1.587,-0.55,-0.854,1.645,-3.117,9.723,-0.01,0.164,0.061,happy
7.86,0,0,0,0,0,0,0,0,175,685,1169,789,2571,20,3423,4095,6.103,0.18,10.374,-2.586,-1.152,0.165,1.425,-2.919,9.546,0.018,0.141,0.091,happy
7.87,0,0,0,0,0,0,0,0,151,703,1164,778,2447,36,3417,4091,4.499,0.697,10.01,-3.214,-1.018,0.682,1.281,-3.031,9.704,0.013,0.104,0.072,happy
7.88,0,0,0,0,0,0,0,0,215,651,1144,715,2348,43,3371,4053,2.447,1.195,8.741,-3.59,-1.052,1.004,1.298,-2.978,9.606,0.027,0.113,0.048,happy
7.89,0,0,0,0,0,0,0,0,267,532,1138,661,2204,47,3326,4079,0.795,1.551,7.898,-3.835,-1.257,0.987,1.341,-3.01,9.498,0.037,0.127,0.048,happy
7.9,0,0,0,0,0,0,0,0,237,415,1133,699,1993,44,3291,4073,0.615,2.253,8.198,-3.974,-1.385,0.897,1.381,-2.904,9.457,0.023,0.127,0.04,happy
7.91,0,0,0,0,0,0,0,0,239,261,1164,747,1751,43,3253,4069,0.146,3.287,9.74,-4.109,-1.348,0.736,1.341,-2.866,9.479,0.04,0.143,0.058,happy
7.92,0,0,0,0,0,0,0,0,229,231,1210,652,1645,41,3255,4060,0.266,4.767,11.214,-4.325,-1.432,0.566,1.298,-2.784,9.436,0.042,0.125,0.069,happy
7.93,0,0,0,0,0,0,0,0,307,220,1241,631,1645,41,3277,4057,1.154,5.916,11.849,-4.51,-1.452,0.509,1.336,-2.684,9.388,0.009,0.094,0.094,happy
7.94,0,0,0,0,0,0,0,0,327,243,1292,675,1853,43,3260,4061,1.815,6.783,12.273,-4.576,-1.522,0.595,1.317,-2.567,9.347,-0.047,0.083,0.123,happy
7.95,0,0,0,0,0,0,0,0,329,354,1420,763,2041,47,3278,4021,2.586,7.987,13.771,-4.49,-1.54,0.77,1.293,-2.763,9.402,-0.103,0.085,0.168,happy
7.96,0,0,0,0,0,0,0,0,427,537,1430,843,2233,51,3299,4041,2.626,9.859,15.479,-4.443,-1.483,1.063,1.381,-2.931,9.459,-0.102,0.076,0.169,happy
7.97,0,0,0,0,0,0,0,0,439,831,1771,1267,2425,51,3321,4027,1.034,10.781,16.606,-4.369,-1.524,1.295,1.238,-3.103,9.572,-0.081,0.111,0.175,happy
7.98,0,0,0,0,0,0,0,0,555,1229,2188,1419,2650,51,3373,4012,0.804,14.042,16.788,-3.847,-1.492,1.454,1.19,-2.816,9.464,-0.105,0.111,0.189,happy
7.99,0,0,0,0,0,0,0,0,682,1555,2157,2059,2900,56,3383,3958,0.168,18.974,16.982,-3.533,-0.833,1.861,1.362,-2.605,9.385,-0.223,0.042,0.222,happy
8,34,0,0,0,0,0,0,0,887,1895,2226,2293,3045,51,3359,3917,-4.903,19.613,8.938,-3.402,-0.777,2.09,1.36,-3.024,9.536,-0.291,0.005,0.245,happy
8.01,336,0,0,0,243,0,0,0,1999,2568,2249,2659,3251,51,3135,3751,-8.399,19.613,-8.624,-2.126,-1.785,2.433,1.271,-3.098,9.629,-0.285,-0.081,0.105,happy
8.02,291,0,0,0,335,0,0,0,2939,2807,2290,2917,3372,47,2483,3435,-7.274,16.884,-19.613,1.841,0.421,2.009,1.166,-3.388,9.649,-0.282,-0.132,0.047,happy
8.03,63,0,0,0,132,0,0,0,3261,2916,2308,3028,3477,48,2211,3099,-1.915,10.558,19.613,2.553,2.387,0.011,1.563,-3.548,9.78,-0.282,-0.058,0.062,happy
8.04,146,0,0,0,131,0,257,1411,3607,3107,2316,3094,3465,45,1122,1509,-1.937,-7.288,1.599,2.007,0.336,0.338,1.489,-3.184,9.572,-0.403,0.098,0.017,happy
8.05,55,0,0,0,332,0,641,2790,3848,3288,2326,3283,2641,6,5,739,-9.079,3.51,15.476,3.159,-0.715,-0.737,2.734,-6.515,8.787,0.04,0.159,0.211,happy
8.06,0,0,0,0,676,0,1588,3214,3925,3278,2326,3368,1961,5,5,367,4.585,6.634,11.382,2.36,-0.536,-0.181,1.288,-5.035,8.296,-0.936,0.359,-0.233,happy
8.07,186,340,0,0,1435,0,2315,3376,4095,3005,2341,3519,613,0,3,459,-0.419,7.168,9.433,1.137,1.519,-0.371,2.066,-2.502,8.954,-1.099,0.252,-0.25,happy
8.08,425,1840,0,0,1910,0,2334,3457,4095,2366,2380,3567,0,0,0,169,-0.022,3.91,11.566,0.702,1.564,-0.688,4.116,-1.365,11.059,-2.825,0.552,-0.587,happy
8.09,767,2669,0,0,2325,0,2736,3581,4095,2026,2439,3497,0,1,0,235,-0.089,7.922,15.938,0.63,0.112,-0.121,5.729,-3.926,13.211,-3.639,1.155,-0.614,happy
8.1,1011,3105,780,0,2559,0,2913,3650,4085,74,1563,2731,4,0,0,126,-0.002,4.073,10.975,0.452,0.07,-0.207,0.031,-0.737,17.578,-5.409,1.726,1.016,happy
8.11,1108,3294,1853,383,2671,0,2847,3670,3657,0,0,1195,0,0,0,28,0.735,3.239,9.543,0.302,-0.033,-0.314,3.85,-6.541,13.479,-6.514,1.876,3.351,happy
8.12,1271,3399,2543,886,2771,0,3110,3654,3209,50,0,277,0,16,0,0,1.022,3.824,9.704,0.408,-0.019,-0.064,1.288,-3.845,19.386,-5.364,2.243,3.746,happy
8.13,1435,3500,2818,1359,2972,0,3174,3673,0,0,0,0,0,0,2,0,1.487,3.924,9.567,0.113,0.039,0.071,-0.11,5.037,19.613,-0.652,-0.041,4.622,happy
8.14,1535,3568,2787,1667,3035,0,3070,3667,0,0,0,0,0,0,0,0,1.111,3.237,9.306,0.092,0.093,0.006,10.137,3.481,6.603,1.162,-0.275,2.53,happy
8.15,1631,3605,2864,1840,3031,0,3024,3639,0,0,0,0,0,0,0,0,1.123,3.464,9.333,0.079,0.078,0.001,6.919,6.036,8.033,1.337,-0.968,1.572,happy
8.16,1616,3678,2930,1947,2999,0,2943,3565,0,35,0,0,0,0,0,0,1.118,3.515,9.301,0.011,0.045,0.017,7.81,4.283,7.956,1.458,-1.793,0.66,happy
8.17,1713,3662,2994,2075,3062,0,2995,3562,0,0,0,0,0,0,0,0,1.195,3.627,9.474,-0.053,0.052,0.027,6.821,3.168,10.93,1.844,-2.028,-0.158,happy
8.18,1767,3707,3301,2191,3056,0,3066,3472,0,0,0,0,7,0,0,0,1.01,3.328,9.357,0,0.086,0.014,3.922,1.748,12.656,2.508,-2.186,-0.805,happy
8.19,1769,3727,3330,2271,3051,0,2993,3408,0,0,0,0,0,0,0,0,0.977,3.376,9.376,0.039,0.099,-0.007,0.294,1.267,11.514,3.078,-2.365,-1.015,happy
8.2,1827,3749,3398,2394,3038,0,2897,3314,0,0,0,0,0,0,0,0,1.041,3.314,9.345,0.022,0.098,-0.009,-2.528,-0.048,10.508,3.61,-2.339,-0.62,happy
8.21,1840,3762,3232,2462,2978,0,2670,3223,0,0,0,0,0,0,0,0,0.855,3.409,9.376,-0.01,0.095,-0.007,-1.753,-2.454,12.835,3.986,-2.366,-0.254,happy
8.22,1906,3792,3493,2559,2947,0,2751,3130,0,0,0,0,0,0,0,0,0.893,3.263,9.323,-0.002,0.048,-0.01,-0.838,-3.491,13.915,4.075,-2.543,-0.429,happy
8.23,1986,3805,3536,2650,2928,0,2671,3013,0,0,0,0,0,0,0,0,0.874,3.326,9.335,-0.009,0.02,-0.019,0.599,-5.14,16.53,4.33,-2.179,-1.12,happy
8.24,2032,3813,3372,2718,2923,0,2478,2866,0,0,0,0,0,0,0,0,1.02,3.266,9.328,-0.005,0.039,-0.039,-1.219,-7.824,19.613,4.306,-1.791,-1.601,happy
8.25,2238,3861,3614,2800,2997,0,2507,2634,0,0,0,0,0,0,0,0,0.85,3.196,9.373,0.027,0.037,-0.032,-2.794,-10.992,19.613,4.137,-2.077,-1.852,happy
8.26,2355,3881,3647,2891,3093,0,2373,1968,0,0,0,0,0,0,0,0,0.934,3.223,9.455,0.112,-0.056,-0.034,-1.228,-18.61,12.701,3.071,-2.37,-2.225,happy
8.27,2451,3889,3456,2955,3088,0,1827,505,0,0,0,0,0,0,0,0,1.118,3.196,9.301,0.111,0.034,-0.038,-7.429,-19.613,2.172,1.803,-1.412,-2.454,happy
8.28,2667,3923,3715,3035,2896,0,1402,0,0,0,0,0,0,0,0,0,1.14,3.213,9.263,0.078,0.15,-0.039,-10.939,-19.613,-4.096,1.067,-1.701,-2.353,happy
8.29,2802,3949,3735,3150,2559,0,628,0,0,0,0,0,0,0,0,2,0.888,3.172,9.464,0.22,0.185,-0.021,-11.779,-19.613,-14.995,-2.376,0.585,-1.165,happy
8.3,2915,3952,3562,3237,2134,0,29,0,0,0,0,0,0,0,0,28,1.156,2.466,9.294,0.628,0.155,0.109,3.433,-7.499,19.613,0.669,1.435,-0.026,happy
8.31,2886,3762,3777,3071,1717,0,0,0,0,0,0,0,0,0,0,773,1.085,3.354,9.242,0.849,0.241,0.182,2.557,7.3,-0.711,-2.877,-0.895,-0.798,happy
8.32,2995,3946,3583,3312,1535,0,0,0,0,0,0,0,0,0,0,1149,1.027,3.199,9.184,1.087,0.332,0.272,-3.946,-2.085,6.812,-3.652,0.43,0.386,happy
8.33,3086,3927,3573,3333,1232,0,0,0,0,0,0,0,18,0,0,1773,1.391,2.981,9.704,1.341,0.411,0.36,-6.871,-10.508,19.613,-2.78,0.051,0.442,happy
8.34,3221,3715,3783,3279,1008,0,0,0,0,0,0,0,0,0,399,2355,1.209,3.191,9.919,1.663,0.538,0.509,-0.555,-0.85,12.467,-2.318,0.048,0.621,happy
8.35,3212,3806,3541,3344,805,0,0,0,0,2,0,0,0,0,872,2804,2.162,3.395,10.218,1.9,0.735,0.644,6.285,-4.934,10.242,-2.348,-0.139,0.507,happy
8.36,3261,3546,3479,3296,124,0,0,0,9,0,0,0,0,0,1244,3119,2.602,3.316,10.163,2.21,0.841,0.664,19.613,-11.392,17.447,-2.493,1.466,0.377,happy
8.37,3454,3169,3573,2653,0,0,0,0,0,0,12,0,125,0,1753,3399,5.076,6.165,13.111,2.844,1.175,0.436,3.747,-7.24,13.506,-0.605,1.459,0.624,happy
8.38,3520,2355,2710,2071,0,0,0,0,0,0,0,0,678,0,2393,3624,-0.601,1.544,13.664,4.399,0.964,-0.705,-1.913,-5.629,15.268,-0.915,0.778,0.559,happy
8.39,3312,1385,1276,1573,0,0,0,0,75,395,2,273,1544,1,2759,3795,0.862,7.611,16.254,6.336,1.22,-2.361,0.79,-3.314,10.391,-0.296,0.243,0.174,happy
8.4,2112,319,0,202,0,0,0,0,115,947,959,610,1898,27,2891,3857,2.071,6.613,14.918,7.126,0.517,-3.495,1.738,-3.467,9.582,-0.148,0.161,0.163,happy
8.41,612,0,0,0,0,0,0,0,187,1188,1248,989,2245,39,3055,3859,-1.415,12.677,19.613,3.862,1.637,-3.236,1.319,-3.077,9.706,0.055,0.078,0.182,happy
8.42,0,0,0,0,0,0,0,0,232,1366,1742,1165,2637,43,3289,4025,14.612,4.97,14.535,-0.098,-0.605,-1.021,1.408,-3.045,9.668,-0.013,0.076,0.119,happy
8.43,0,0,0,0,0,0,0,0,223,1527,1916,1273,2741,43,3421,4041,5.277,-2.09,8.861,-0.519,0.124,0.291,1.415,-3.067,9.625,-0.067,0.069,0.07,happy
8.44,0,0,0,0,0,0,0,0,236,1582,2014,1430,2888,89,3504,4042,4.606,-0.924,9.902,-1.187,-1.297,0.693,1.633,-3.378,9.505,0.006,0.104,0.126,happy
8.45,0,0,0,0,0,0,0,0,312,1721,2070,1507,2963,47,3508,4015,1.896,-0.383,10.546,-2.233,-1.427,0.745,1.317,-3.041,9.67,-0.029,0.001,0.114,happy
8.46,0,0,0,0,0,0,0,0,319,1802,2108,1575,3007,47,3499,3995,0.359,0.69,9.4,-3.145,-1.48,0.781,1.369,-3.203,9.778,-0.025,0.036,0.111,happy
8.47,0,0,0,0,0,0,0,0,443,1929,2124,1725,3067,88,3455,3945,-0.089,1.257,7.774,-3.505,-1.577,0.572,1.295,-3.048,9.512,-0.058,0.026,0.067,happy
8.48,0,0,0,0,0,0,0,0,447,2011,2152,1695,3113,51,3410,3894,-0.637,2.942,10.08,-3.786,-1.647,0.419,1.219,-2.916,9.428,-0.016,0.081,0.127,happy
8.49,0,0,0,0,0,0,0,0,361,2035,2167,1881,3131,49,3375,3871,0.397,4.779,11.315,-4.065,-1.777,0.462,1.317,-3.048,9.483,-0.048,0.064,0.151,happy
8.5,0,0,0,0,0,0,0,0,477,2269,2198,2151,3178,48,3307,3819,0.23,5.768,12.598,-4.07,-1.743,0.69,1.374,-3.093,9.469,-0.076,0.07,0.159,happy
8.51,0,0,0,0,0,0,0,0,711,2489,2216,2375,3189,44,3257,3741,-0.711,7.932,15.095,-4.13,-1.704,0.802,1.183,-3.225,9.424,-0.111,0.094,0.171,happy
