timestamp,L1,L2,L3,L4,L5,L6,L7,L8,R1,R2,R3,R4,R5,R6,R7,R8,acc_x_left,acc_y_left,acc_z_left,gyro_x_left,gyro_y_left,gyro_z_left,acc_x_right,acc_y_right,acc_z_right,gyro_x_right,gyro_y_right,gyro_z_right,mood
0.00,1284,331,0,0,0,0,0,0,542,1719,2065,1699,2133,51,3291,4095,2.526,7.968,9.129,4.791,1.238,-1.499,1.350,-3.460,9.378,0.013,-0.037,0.058,happy
0.01,370,0,0,0,0,0,0,0,618,1683,2085,1751,2279,47,3383,4095,-1.034,6.756,15.737,3.215,1.577,-1.410,1.384,-3.479,9.462,0.004,0.031,0.064,happy
0.02,0,0,0,0,0,0,0,0,709,1725,2121,1881,2487,51,3507,4095,3.177,0.599,13.087,0.542,0.952,-1.654,1.346,-3.354,9.414,-0.007,0.027,0.058,happy
0.03,0,0,0,0,0,0,0,0,715,1655,2124,2105,2569,49,3531,4095,4.166,0.453,13.048,-0.668,1.075,-0.814,1.334,-3.330,9.337,-0.046,0.011,0.045,happy
0.04,0,0,0,0,0,0,0,0,489,1662,2126,2088,2588,47,3527,4069,5.607,1.901,10.511,-1.776,0.803,0.135,1.367,-3.405,9.364,-0.021,0.012,0.058,happy
0.05,0,0,0,0,0,0,0,0,571,1659,2142,2124,2642,51,3475,4095,5.734,3.077,9.280,-2.607,0.687,1.049,1.393,-3.455,9.395,-0.015,-0.002,0.054,happy
0.06,0,0,0,0,0,0,0,0,759,1651,1934,2162,2748,48,3465,4095,5.583,4.401,7.891,-3.381,0.876,1.577,1.365,-3.519,9.373,0.020,-0.023,0.039,happy
0.07,0,0,0,0,0,0,0,0,823,1555,2142,2199,2719,12,3479,4095,5.425,4.889,6.902,-3.568,0.998,1.840,1.417,-3.464,9.359,0.035,-0.022,0.034,happy
0.08,0,0,0,0,0,0,0,0,845,1579,2152,2207,2751,47,3503,4095,5.057,6.426,6.996,-3.646,0.972,2.132,1.391,-3.443,9.397,0.044,-0.011,0.037,happy
0.09,0,0,0,0,0,0,0,0,932,1559,2126,2208,2716,47,3534,4095,5.284,7.008,5.792,-3.674,0.912,2.417,1.460,-3.381,9.306,0.048,-0.017,0.042,happy
0.10,0,0,0,0,0,0,0,0,901,1543,2154,2180,2830,45,3575,4095,5.545,7.891,5.696,-3.458,0.896,2.680,1.381,-3.419,9.359,0.050,-0.019,0.041,happy
0.11,0,0,0,0,0,0,0,0,909,1620,2154,2191,2877,47,3607,4095,5.459,9.290,7.061,-3.266,0.813,3.019,1.410,-3.373,9.380,0.045,-0.019,0.037,happy
0.12,0,0,0,0,0,0,0,0,919,1703,2157,2197,2926,52,3607,4095,5.080,10.262,7.913,-3.141,0.766,3.381,1.463,-3.613,9.486,0.044,0.005,0.037,happy
0.13,0,0,0,0,0,0,0,0,931,1669,2152,2195,2941,50,3659,4095,3.417,10.427,7.815,-2.924,0.705,3.619,1.415,-3.381,9.337,0.051,-0.009,0.027,happy
0.14,0,0,0,0,0,0,0,0,975,1655,2157,2215,3003,51,3673,4095,2.172,11.217,8.341,-2.449,0.666,3.526,1.381,-3.323,9.352,0.035,-0.002,0.030,happy
0.15,0,0,0,0,0,0,0,0,1053,1508,2152,2167,3080,47,3687,4095,3.740,12.311,7.954,-2.225,1.285,3.059,1.470,-3.299,9.335,0.011,0.001,0.034,happy
0.16,0,0,0,0,0,0,0,0,1079,1555,2106,2151,3111,47,3707,4095,4.413,12.165,7.894,-1.794,1.504,2.665,1.355,-3.361,9.404,0.003,-0.015,0.039,happy
0.17,0,0,0,0,0,0,0,0,1123,1647,1955,2164,3143,47,3736,4095,8.578,12.732,6.874,-1.510,1.553,2.985,1.410,-3.381,9.354,0.000,-0.012,0.037,happy
0.18,0,0,0,0,0,0,0,0,987,1837,2167,2024,3255,61,3773,4095,7.812,11.978,4.458,-1.026,1.595,3.899,1.386,-3.357,9.266,0.001,-0.036,0.040,happy
0.19,0,0,0,0,0,0,0,0,989,1963,2188,2119,3264,47,3784,4095,6.589,12.055,4.901,-0.365,0.956,4.917,1.420,-3.354,9.380,0.006,-0.006,0.044,happy
0.20,0,0,0,0,0,0,0,0,1013,1979,2188,2099,3284,47,3771,4095,2.720,11.540,5.962,0.184,0.644,5.639,1.372,-3.357,9.438,-0.001,-0.018,0.047,happy
0.21,0,0,0,0,0,0,0,0,971,2002,2178,2095,3320,48,3763,4095,0.943,10.748,7.027,0.439,0.729,5.541,1.417,-3.431,9.313,0.015,-0.000,0.043,happy
0.22,0,0,0,0,0,0,0,0,1036,1993,2175,2029,3311,51,3759,4095,-0.536,9.821,7.918,0.473,0.679,5.172,1.470,-3.464,9.404,0.028,0.004,0.041,happy
0.23,0,0,0,0,28,0,0,0,1003,1977,2157,2013,3294,50,3759,4095,-0.275,9.086,6.991,0.535,0.571,4.784,1.432,-3.397,9.323,0.026,0.005,0.035,happy
0.24,0,0,0,0,102,0,0,0,1047,1995,2178,1913,3346,37,3768,4095,-0.120,7.520,6.376,0.709,0.495,3.956,1.453,-3.361,9.416,0.039,0.024,0.032,happy
0.25,0,0,0,0,141,0,0,0,987,2001,2178,1933,3345,52,3767,4095,0.891,6.699,6.713,0.740,0.289,3.172,1.295,-3.433,9.507,0.066,0.042,0.029,happy
0.26,0,0,0,0,140,0,0,0,921,1791,2152,1686,3315,41,3748,4095,0.903,6.321,6.912,0.746,0.220,2.715,1.338,-3.371,9.474,0.074,0.041,0.035,happy
0.27,0,0,0,0,146,0,0,0,875,1676,2096,1619,3258,48,3736,4095,1.233,5.679,5.935,0.681,0.080,2.233,1.353,-3.381,9.165,0.053,0.009,0.046,happy
0.28,0,145,0,0,422,0,0,0,791,1498,2060,1465,3187,51,3724,4095,-11.157,4.702,6.220,0.900,1.396,0.558,3.124,-4.463,10.044,0.119,0.036,0.026,happy
0.29,0,731,0,0,699,0,0,0,649,1375,2032,1133,3067,46,3707,4095,3.026,7.436,10.649,0.322,1.868,-1.011,1.154,-3.974,9.838,0.240,0.129,0.042,happy
0.30,209,1136,0,0,861,0,58,538,406,1245,2001,939,2549,47,3579,4095,-6.723,-0.551,11.205,0.257,-0.105,-0.511,1.932,-2.504,8.174,0.073,0.112,0.035,happy
0.31,395,2079,816,272,1093,0,293,1798,494,1212,1922,637,2397,47,3324,4095,1.693,5.138,10.223,0.082,0.022,-0.509,1.001,-3.383,9.045,0.114,0.093,0.010,happy
0.32,511,2477,1680,559,1259,0,722,2237,345,1212,1852,619,2220,47,3129,4095,0.223,3.984,10.513,0.082,-0.217,-0.130,1.487,-3.582,9.251,0.086,0.065,-0.001,happy
0.33,564,2695,2017,688,1440,0,1242,2474,333,1045,1159,368,1900,46,2827,4095,1.621,3.196,9.804,0.112,-0.145,0.261,1.927,-3.711,10.300,0.002,-0.002,0.019,happy
0.34,544,2823,2119,560,1841,0,1712,2661,269,981,0,300,1736,3,2427,4029,1.532,3.182,9.196,0.165,-0.159,0.227,1.844,-2.995,9.033,-0.046,-0.076,0.048,happy
0.35,491,2953,2145,451,2207,0,2146,2849,250,969,0,212,1417,5,1957,3740,1.144,3.455,9.330,0.010,-0.010,0.086,0.484,-2.808,9.254,-0.050,0.000,0.015,happy
0.36,464,3006,2180,409,2374,0,2450,3040,365,877,0,106,887,2,1447,3711,1.216,3.062,9.290,-0.023,-0.086,0.021,1.681,-3.273,9.438,-0.104,-0.021,0.046,happy
0.37,464,3031,2236,461,2535,0,2667,3172,344,500,0,45,541,0,1051,3590,1.183,2.619,9.064,-0.002,-0.243,-0.083,1.049,-3.517,9.500,0.006,0.036,0.059,happy
0.38,352,3102,2275,368,2655,0,2812,3280,1591,2557,5,2495,2582,1686,1575,3115,1.456,3.175,9.318,-0.062,-0.021,0.026,1.302,-3.610,9.596,0.045,0.088,0.078,happy
0.39,317,3158,2383,384,2799,0,2915,3362,1592,2584,0,2488,2578,1659,1565,3103,1.326,2.808,9.359,0.022,0.024,0.063,-6.273,-3.697,12.016,0.256,-0.112,0.898,happy
0.40,301,3206,2485,462,2906,0,2997,3431,215,0,0,0,1,0,200,2902,1.135,3.103,9.337,0.045,0.059,0.044,-15.002,-4.606,12.864,1.164,-0.696,4.366,happy
0.41,365,3249,2559,580,2981,0,3069,3477,0,0,0,0,0,0,0,2520,1.386,3.048,9.318,0.038,0.015,-0.004,-8.830,-7.831,10.341,1.251,-0.958,4.366,happy
0.42,384,3296,2640,752,3018,0,3120,3514,0,0,0,0,0,0,0,2329,1.494,3.084,9.416,0.068,0.019,-0.048,-0.180,-16.496,10.396,1.251,-0.123,4.366,happy
0.43,400,3341,2695,1009,3063,0,3141,3535,0,6,74,0,0,0,0,2393,1.247,3.017,9.462,0.093,0.050,-0.043,-0.144,-8.619,7.640,0.951,-0.341,4.366,happy
0.44,464,3354,2752,1319,3102,0,3147,3536,0,0,0,0,0,0,2,2276,1.061,3.237,9.440,0.087,0.052,0.013,-4.700,-6.397,8.866,0.810,-0.884,4.366,happy
0.45,486,3370,2773,1535,3142,0,3142,3555,0,0,0,0,0,0,0,1541,1.199,3.163,9.510,0.048,0.083,0.044,2.713,-5.085,7.362,0.492,-2.079,4.366,happy
0.46,535,3376,2799,1695,3152,0,3146,3553,0,0,0,0,0,0,0,1362,1.106,3.232,9.527,0.034,0.056,0.018,1.415,-5.241,10.048,0.429,-0.181,4.366,happy
0.47,466,3369,2823,1744,3155,0,3143,3567,0,0,0,0,0,0,0,1271,1.109,3.110,9.440,0.025,0.048,0.019,1.690,-5.104,9.919,0.329,-0.736,3.895,happy
0.48,471,3346,2813,1773,3141,0,3146,3568,0,0,0,0,0,0,0,1102,1.147,3.136,9.474,0.018,0.060,0.020,0.000,-3.881,8.878,0.309,-0.647,2.750,happy
0.49,464,3355,2810,1761,3168,0,3152,3579,1589,2552,0,2489,2582,1661,1611,3123,1.135,3.127,9.469,0.009,0.061,0.009,-1.027,-3.369,8.140,0.105,-0.284,2.370,happy
0.50,432,3354,2807,1648,3185,0,3148,3583,1587,2548,0,2487,2581,1659,1565,3103,1.082,3.091,9.462,0.006,0.064,0.022,-0.857,-3.455,8.238,-0.027,-0.052,2.139,happy
0.51,340,3335,2796,1535,3187,0,3151,3600,0,0,0,0,0,0,0,862,1.135,3.036,9.404,0.015,0.054,0.009,-0.457,-3.699,8.396,-0.244,0.085,1.703,happy
0.52,370,3313,2782,1391,3184,0,3152,3609,0,0,0,0,0,6,0,813,1.041,3.060,9.462,0.023,0.042,-0.008,-0.467,-4.693,9.129,-0.163,0.233,1.643,happy
0.53,357,3313,2777,1417,3194,0,3152,3612,0,0,0,0,0,0,0,767,1.183,3.055,9.424,0.045,0.045,-0.014,-1.566,-4.731,8.483,-0.146,-0.074,1.813,happy
0.54,351,3313,2781,1427,3197,0,3157,3626,6,0,10,0,0,16,0,638,1.164,3.053,9.438,0.030,0.058,-0.013,-0.934,-4.499,7.439,-0.257,-0.274,2.452,happy
0.55,323,3303,2768,1353,3197,0,3161,3619,0,0,0,0,0,0,0,611,1.223,3.060,9.364,0.017,0.070,-0.006,-0.900,-5.160,8.040,-0.378,-0.439,3.050,happy
0.56,278,3280,2739,1306,3179,0,3161,3632,0,0,0,0,0,0,0,637,1.199,3.103,9.421,0.020,0.071,-0.003,0.048,-5.768,8.710,-0.372,-0.608,3.224,happy
0.57,254,3270,2726,1378,3174,0,3177,3632,0,0,0,0,0,0,4,599,1.164,3.005,9.369,0.028,0.090,0.007,1.185,-6.366,8.863,-0.158,-0.740,3.290,happy
0.58,285,3245,2705,1521,3111,0,3189,3642,0,0,0,0,0,0,0,531,1.128,2.931,9.507,0.043,0.100,-0.000,-1.444,-7.961,6.038,0.383,-0.735,3.234,happy
0.59,307,3217,2672,1718,3038,0,3184,3655,0,0,0,0,0,0,0,559,1.094,2.964,9.428,0.058,0.091,-0.000,1.243,-3.237,11.157,-0.211,-1.993,3.140,happy
0.60,340,3197,2672,1895,2907,0,3150,3664,0,0,0,0,0,0,0,987,1.085,3.146,9.553,0.067,0.098,0.008,3.117,10.791,16.439,-0.519,-1.609,2.712,happy
0.61,384,3168,2690,1962,2768,0,3097,3648,0,0,0,0,0,0,9,2323,1.065,3.055,9.474,0.068,0.111,0.000,19.613,-0.261,0.996,-2.550,-2.326,-0.457,happy
0.62,384,3129,2693,1993,2740,0,3024,3625,0,0,0,139,0,0,29,2652,1.080,3.038,9.495,0.072,0.118,-0.016,5.215,-18.639,19.613,-1.769,-1.639,-0.221,happy
0.63,414,3082,2667,1992,2703,0,2906,3583,45,0,7,247,2,0,277,2957,0.939,3.108,9.474,0.070,0.126,-0.019,1.899,-3.005,9.328,0.051,-0.159,-0.224,happy
0.64,400,3022,2629,1970,2619,0,2769,3536,43,0,0,425,0,0,573,3341,0.888,3.124,9.560,0.045,0.121,-0.011,0.294,-3.510,9.632,-0.356,-0.300,-0.073,happy
0.65,362,2940,2595,1857,2515,0,2637,3505,119,0,0,444,0,0,669,3477,0.955,3.103,9.522,0.016,0.120,-0.019,0.172,-3.259,9.464,-0.159,-0.215,-0.097,happy
0.66,321,2818,2477,1686,2380,0,2499,3491,52,72,0,633,14,0,941,3591,0.943,3.158,9.534,-0.009,0.139,-0.026,1.233,-3.510,9.500,-0.157,-0.321,-0.120,happy
0.67,262,2657,2219,1422,2011,0,2327,3476,103,157,135,649,85,1,1014,3683,0.883,3.086,9.527,-0.028,0.141,-0.025,0.996,-3.472,9.574,0.044,-0.162,-0.074,happy
0.68,176,2281,1760,1184,1383,0,2105,3440,148,319,0,638,219,1,1619,3814,1.030,3.084,9.498,-0.037,0.193,-0.044,0.974,-3.211,9.505,0.048,-0.098,-0.076,happy
0.69,114,1728,1195,1003,971,0,1705,3359,85,324,0,679,492,1,2027,3929,1.109,2.995,9.385,-0.039,0.262,-0.076,1.197,-3.208,9.414,0.000,-0.145,-0.118,happy
0.70,49,1330,448,801,542,0,1177,3243,0,481,0,601,739,0,2483,3997,1.274,3.242,9.840,-0.102,0.352,-0.062,1.168,-3.196,9.445,0.066,-0.092,-0.065,happy
0.71,0,715,0,303,367,0,689,3005,53,537,2,593,855,1,2578,4024,1.939,4.187,10.360,-0.230,0.565,-0.147,1.348,-3.086,9.402,0.082,-0.054,-0.057,happy
0.72,0,0,0,0,0,0,44,2557,45,531,923,647,1021,16,2811,4095,2.552,3.874,10.963,-0.516,1.082,-0.261,1.293,-3.196,9.467,0.042,-0.060,-0.077,happy
0.73,0,0,0,0,0,0,0,1443,71,539,1202,710,1365,0,3083,4095,5.432,2.581,9.776,-0.753,1.942,-0.142,1.343,-3.206,9.436,0.069,-0.034,-0.026,happy
0.74,0,0,0,0,0,0,0,0,53,551,1297,719,1553,11,3210,4095,9.246,3.658,11.959,-0.629,1.295,1.468,1.226,-3.136,9.505,0.078,-0.029,-0.021,happy
0.75,0,0,0,0,0,0,0,0,40,629,1238,715,1705,13,3337,4095,7.884,2.794,8.406,-0.436,1.713,2.206,1.257,-3.203,9.503,0.097,-0.040,-0.017,happy
0.76,0,0,0,0,0,0,0,0,86,680,1246,714,1875,23,3511,4095,6.941,3.503,7.056,-0.130,1.982,2.690,1.358,-3.065,9.594,0.092,-0.029,-0.011,happy
0.77,0,0,0,0,0,0,0,0,77,623,1282,767,2008,25,3477,4095,6.670,5.476,7.432,0.059,2.194,3.264,1.310,-3.065,9.287,0.071,-0.043,0.005,happy
0.78,0,0,0,0,0,0,0,0,77,635,1302,799,2123,21,3579,4095,3.699,3.862,6.285,0.206,1.910,3.573,1.262,-3.057,9.438,0.064,-0.014,0.011,happy
0.79,0,0,0,0,0,0,0,0,35,639,1297,741,2204,3,3527,4095,6.103,5.933,7.302,0.427,1.289,4.032,1.274,-3.079,9.529,0.052,-0.015,0.014,happy
0.80,0,0,0,0,0,0,0,0,37,662,1297,813,2255,17,3591,4095,4.721,5.629,8.382,0.554,1.317,4.239,1.279,-3.151,9.452,0.055,-0.005,0.021,happy
0.81,0,0,0,0,0,0,0,0,38,668,1297,872,2317,40,3625,4095,2.660,5.399,8.746,0.632,1.229,4.404,1.295,-3.050,9.464,0.033,-0.017,0.015,happy
0.82,0,0,0,0,0,0,0,0,33,665,1297,890,2340,10,3638,4095,1.686,5.114,8.966,0.612,1.089,4.357,1.326,-3.019,9.335,0.036,0.012,0.029,happy
0.83,0,0,0,0,0,0,0,0,28,673,1205,921,2397,9,3686,4095,0.745,4.221,8.892,0.632,0.916,4.149,1.312,-3.134,9.586,0.043,-0.011,0.018,happy
0.84,0,0,0,0,0,0,0,0,35,653,1364,907,2429,10,3661,4095,0.364,3.800,9.254,0.635,0.762,3.847,1.283,-3.151,9.550,0.055,-0.034,0.007,happy
0.85,0,0,0,0,0,0,0,0,31,599,1341,906,2456,0,3675,4095,0.208,3.448,9.730,0.567,0.653,3.553,1.302,-3.086,9.349,0.064,-0.032,-0.010,happy
0.86,0,0,0,0,0,0,0,0,48,647,1420,905,2506,9,3685,4095,0.055,2.861,9.948,0.495,0.539,3.244,1.425,-3.084,9.407,0.056,-0.018,-0.000,happy
0.87,0,0,0,0,0,0,0,0,0,596,1430,923,2523,0,3694,4095,0.146,2.782,10.333,0.385,0.376,2.930,1.338,-3.036,9.450,0.050,0.006,0.011,happy
0.88,0,0,0,0,0,0,0,0,8,587,1456,920,2580,4,3707,4095,0.584,2.334,10.161,0.252,0.285,2.617,1.331,-3.017,9.438,0.045,0.013,0.018,happy
0.89,0,0,0,0,0,0,0,0,6,583,1425,910,2663,4,3709,4095,0.812,2.176,10.178,0.168,0.235,2.309,1.470,-2.945,9.658,0.046,0.027,0.018,happy
0.90,0,0,0,0,0,0,0,0,6,568,1492,853,2707,2,3724,4095,1.410,2.057,10.025,0.054,0.175,2.047,1.367,-2.890,9.531,0.033,0.011,0.013,happy
0.91,0,0,0,0,0,0,0,0,8,629,1440,830,2699,4,3709,4095,1.824,2.045,10.444,-0.036,0.045,1.868,1.267,-3.017,9.495,0.041,0.016,0.028,happy
0.92,0,0,0,0,0,0,0,0,10,459,1295,759,2524,7,3365,3755,2.552,2.279,11.068,-0.191,-0.090,1.785,1.238,-3.014,9.488,0.040,0.031,0.035,happy
0.93,0,0,0,0,0,0,0,0,0,504,1428,727,2713,4,3641,4071,3.038,2.258,11.111,-0.370,-0.139,1.775,1.279,-2.904,9.443,0.023,0.019,0.051,happy
0.94,0,0,0,0,0,0,0,0,21,520,1425,743,2838,6,3765,4095,3.084,2.030,10.927,-0.501,-0.186,1.821,1.322,-2.954,9.527,0.012,0.006,0.063,happy
0.95,0,0,0,0,0,0,0,0,27,557,1502,623,2893,10,3787,4095,3.232,2.385,11.018,-0.663,-0.282,1.905,1.290,-2.909,9.438,-0.020,0.002,0.071,happy
0.96,0,0,0,0,0,0,0,0,26,583,1658,603,2927,10,3784,4095,2.933,2.358,10.664,-0.800,-0.309,1.997,1.207,-3.086,9.591,-0.017,0.007,0.083,happy
0.97,0,0,0,0,0,0,0,0,39,751,1712,527,2973,12,3769,4095,2.464,2.373,9.878,-0.881,-0.304,2.067,1.226,-2.971,9.527,-0.030,-0.010,0.087,happy
0.98,0,0,0,0,0,0,0,0,83,754,1758,563,3036,7,3788,4095,2.179,2.210,8.887,-0.859,-0.233,2.061,1.276,-3.069,9.541,-0.032,-0.013,0.099,happy
0.99,0,0,0,0,0,0,0,0,149,1003,1773,525,3103,29,3803,4095,1.796,2.334,8.401,-0.773,-0.068,1.988,1.252,-2.959,9.452,-0.057,-0.049,0.108,happy
1.00,0,0,0,0,0,0,0,0,75,1144,1829,533,3193,25,3763,4095,0.761,3.081,9.596,-0.554,-0.094,1.871,1.101,-2.887,9.261,-0.078,-0.076,0.106,happy
1.01,0,0,0,0,0,0,0,0,77,1255,1947,647,3231,23,3725,4095,0.661,3.828,10.738,-0.563,-0.244,1.848,1.599,-2.916,9.268,-0.084,-0.078,0.119,happy
1.02,0,0,0,0,0,0,0,0,123,1354,2101,601,3297,31,3647,4019,0.395,4.922,11.712,-0.671,-0.430,1.843,0.946,-2.303,8.985,-0.204,-0.092,0.162,happy
1.03,0,0,0,0,0,0,0,0,157,1722,2101,815,3307,37,3646,3863,-1.221,5.112,10.602,-0.602,-0.861,1.859,1.544,-2.919,9.450,-0.234,-0.125,0.180,happy
1.04,0,0,0,0,0,0,0,0,315,2055,2065,1055,3421,48,3554,3849,-1.743,6.642,9.673,-0.515,-1.333,1.648,1.583,-3.340,9.349,-0.200,-0.121,0.159,happy
1.05,0,0,0,0,0,0,0,0,805,2404,2175,1431,3477,57,3443,3763,-1.784,6.773,9.345,-0.282,-1.007,1.488,1.468,-3.194,9.369,-0.118,-0.104,0.099,happy
1.06,0,0,0,0,0,0,0,0,1179,2505,2114,1523,3506,40,3415,3752,-1.645,8.396,10.202,-0.309,-1.155,1.270,1.539,-3.385,9.321,-0.107,-0.127,0.047,happy
1.07,0,0,0,0,0,0,0,0,1845,2695,2193,1801,3587,46,3317,3686,-0.824,8.882,8.722,-0.636,-0.950,1.080,1.607,-3.364,9.299,-0.100,-0.038,0.046,happy
1.08,0,0,0,0,0,0,0,0,2294,2787,2259,2022,3764,47,3159,3623,-1.523,7.894,6.165,-0.772,-0.145,0.737,1.439,-3.409,9.337,-0.101,0.048,0.070,happy
1.09,0,0,0,0,0,0,0,0,2461,2937,2234,2189,3579,85,3127,3593,-2.990,7.128,5.595,-0.452,0.241,0.216,1.607,-3.469,9.347,-0.111,0.074,0.077,happy
1.10,0,0,0,0,0,0,0,0,2723,2913,2244,2575,3539,47,2805,3503,-2.162,7.484,7.489,-0.209,0.363,-0.258,1.420,-3.467,9.457,-0.110,0.226,0.092,happy
1.11,0,0,0,0,0,0,0,0,2955,2999,2208,2811,3077,47,2345,3286,-3.024,6.067,1.128,0.371,1.320,-0.529,1.652,-3.565,9.469,-0.112,0.396,0.118,happy
1.12,0,0,0,0,0,0,0,0,3061,2807,2265,2905,2941,47,2018,3124,-0.532,0.915,16.721,0.124,1.135,-0.944,1.683,-3.077,10.108,-0.290,0.320,0.114,happy
1.13,0,0,0,0,0,0,0,16,3328,2745,2201,3147,2833,45,1253,2837,0.223,-1.623,5.164,0.542,0.005,-0.890,1.188,-3.630,9.445,-0.149,0.276,0.090,happy
1.14,0,0,0,0,0,0,433,1589,3547,2739,2270,3303,2607,47,572,2411,4.305,0.809,8.583,1.470,-0.589,-0.796,1.401,-3.809,9.105,-0.116,0.237,0.138,happy
1.15,0,0,0,0,347,0,1104,2537,3623,2761,2270,3370,2413,18,57,2278,8.981,4.051,8.894,1.615,-0.614,-0.416,1.111,-3.199,9.574,-0.200,0.198,0.146,happy
1.16,0,58,0,0,803,0,2032,2870,3749,2631,2272,3545,1461,3,33,1753,0.924,6.536,10.027,0.574,0.839,0.030,1.288,-3.711,9.701,-0.589,0.345,-0.068,happy
1.17,0,783,0,0,1296,0,2299,2998,3852,2505,2275,3653,681,1,0,1590,0.682,5.282,12.716,0.575,0.907,-0.299,0.871,-3.646,9.321,-0.638,0.269,-0.187,happy
1.18,0,1367,0,0,1840,0,2426,3018,3887,2428,2280,3683,384,5,3,1515,1.125,2.823,10.290,0.341,0.695,-0.200,0.984,-3.460,9.438,-0.664,0.221,-0.215,happy
1.19,0,1815,0,0,2037,0,2597,2965,3939,2200,2290,3720,12,1,0,1165,1.911,2.500,9.294,0.376,0.596,-0.199,1.144,-3.484,9.275,-1.291,0.231,-0.337,happy
1.20,0,2262,0,0,2343,0,2679,2917,3961,1741,2387,3668,0,0,0,980,1.791,2.727,9.328,0.378,0.523,-0.210,1.403,-4.099,9.663,-2.017,0.397,-0.279,happy
1.21,0,2704,64,0,2543,0,2743,2868,3964,1419,2208,3597,0,1,0,905,1.369,3.335,10.494,0.356,0.484,-0.216,1.171,-3.247,9.347,-2.344,0.548,-0.210,happy
1.22,0,2943,1011,0,2799,0,2832,2918,3823,942,2375,3223,12,0,0,758,1.310,3.187,9.833,0.266,0.188,-0.108,0.996,-4.585,9.828,-2.885,0.739,0.115,happy
1.23,0,3059,1719,45,2962,0,2928,2937,3017,662,1328,2019,11,0,0,587,1.573,2.813,9.325,0.305,0.071,-0.109,0.548,-6.110,11.140,-3.707,-0.611,1.104,happy
1.24,0,3197,2112,410,3184,0,3024,3013,2915,503,0,1237,8,0,0,521,1.494,3.089,9.706,0.276,0.051,-0.112,1.128,-5.404,13.496,-4.203,-1.266,1.498,happy
1.25,0,3327,2357,688,3312,0,3120,3095,1507,2551,0,2347,2575,1661,1565,3103,1.290,3.002,9.524,0.168,-0.022,-0.116,0.031,-7.489,13.080,-4.366,-1.027,2.061,happy
1.26,0,3409,2519,914,3387,0,3175,3152,1581,2553,5,2484,2468,1663,1567,3103,1.432,2.782,9.294,0.225,0.005,-0.120,0.285,-9.455,10.247,-4.366,-1.269,2.736,happy
1.27,32,3462,2640,1141,3457,0,3187,3136,1581,2541,0,2483,2575,1667,1572,3107,1.405,3.220,9.455,0.218,0.001,-0.081,2.528,-8.882,12.950,-3.179,-0.800,2.792,happy
1.28,130,3504,2752,1326,3504,0,3195,3086,1593,2468,0,2485,2577,1662,1565,3108,1.427,3.266,9.560,0.189,-0.002,-0.052,-0.529,-10.022,19.613,0.266,0.534,2.523,happy
1.29,198,3558,2845,1445,3531,0,3170,2960,0,0,0,0,0,0,0,227,1.460,3.041,9.424,0.202,0.009,-0.045,4.808,-0.802,6.172,1.533,0.571,2.143,happy
1.30,240,3578,2885,1504,3544,0,3143,2880,0,0,0,0,0,0,0,237,1.439,3.091,9.330,0.216,-0.011,-0.063,4.764,-0.244,7.920,1.761,0.259,1.549,happy
1.31,362,3623,2978,1619,3555,0,3111,2675,0,0,0,0,0,0,0,226,1.425,3.333,9.354,0.200,-0.024,-0.050,6.287,-2.203,9.318,2.322,0.271,0.803,happy
1.32,382,3641,3030,1699,3555,0,3054,2425,17,0,17,0,0,0,0,213,1.403,3.299,9.357,0.155,-0.013,-0.041,3.685,-1.458,7.563,3.041,-0.096,-0.464,happy
1.33,454,3674,3098,1750,3567,0,2995,2190,0,0,0,0,0,0,0,183,1.453,3.266,9.301,0.128,-0.005,-0.047,1.820,-2.411,7.568,3.267,-0.792,-1.013,happy
1.34,496,3683,3142,1794,3563,0,2960,2005,0,0,0,0,0,0,8,149,1.420,3.163,9.366,0.118,-0.022,-0.048,1.417,-2.911,8.183,3.352,-0.840,-1.068,happy
1.35,469,3499,2997,1703,3376,0,2737,1703,0,0,0,0,0,16,0,136,1.528,3.412,9.313,0.141,-0.020,-0.063,0.218,-4.164,10.451,3.678,-0.933,-0.887,happy
1.36,675,3758,3243,1957,3615,0,2912,1808,0,0,0,0,0,0,0,135,1.492,3.366,9.359,0.125,-0.019,-0.062,1.018,-5.171,10.673,3.822,-1.124,-0.763,happy
1.37,715,3760,3296,2013,3623,0,2871,1699,0,0,0,0,0,0,0,103,1.427,3.472,9.392,0.088,-0.011,-0.049,1.257,-5.423,10.939,3.750,-1.296,-0.832,happy
1.38,788,3792,3340,2076,3634,0,2832,1581,0,0,0,0,0,0,0,90,1.408,3.249,9.304,0.119,0.002,-0.054,1.633,-6.244,12.790,3.558,-1.494,-1.047,happy
1.39,816,3803,3363,2123,3643,0,2772,1227,0,0,0,0,0,0,0,36,1.499,3.309,9.304,0.139,-0.003,-0.076,-0.328,-6.002,12.771,3.070,-1.623,-1.066,happy
1.40,876,3832,3410,2211,3648,0,2675,585,0,0,0,0,0,0,31,39,1.496,3.354,9.299,0.162,0.009,-0.082,-1.214,-6.366,13.228,2.658,-1.857,-0.863,happy
1.41,942,3830,3440,2288,3630,0,2512,0,0,1,0,0,0,28,0,20,1.425,3.347,9.352,0.190,-0.003,-0.110,-1.480,-10.997,15.191,1.817,-2.510,-0.437,happy
1.42,1011,3847,3469,2352,3607,0,2321,0,0,0,40,0,0,0,0,0,1.544,3.347,9.134,0.239,0.022,-0.124,-1.369,-18.117,14.246,1.824,-2.175,-0.387,happy
1.43,1067,3857,3497,2447,3562,0,2087,0,1591,2552,0,2489,2587,1659,1568,3109,1.628,3.436,9.146,0.264,0.023,-0.131,-4.056,-19.613,12.742,2.342,-2.131,-0.659,happy
1.44,1261,3877,3539,2559,3493,0,1709,0,1586,2551,0,2487,2580,1661,1565,3096,1.379,3.563,9.182,0.285,0.067,-0.127,-7.937,-19.613,-1.525,2.111,-1.682,-0.998,happy
1.45,1511,3888,3568,2667,3329,0,946,0,1575,2550,0,2488,2581,1671,1567,3103,1.547,3.455,9.220,0.346,0.113,-0.118,-6.144,-18.696,-17.401,-1.554,1.416,-0.821,happy
1.46,1744,3927,3615,2798,2926,0,395,0,1591,2575,0,2507,2607,1717,1591,3117,1.741,3.021,9.419,0.424,0.108,-0.187,3.491,-4.961,6.323,-1.583,3.518,-0.064,happy
1.47,1984,3921,3574,2889,2247,0,418,0,0,0,0,0,0,0,9,1076,1.542,3.618,8.981,0.737,0.051,0.017,-1.803,6.366,12.445,-0.831,0.069,-1.129,happy
1.48,2119,3927,3650,2925,2007,0,333,0,0,0,0,0,0,0,0,1418,1.434,3.783,8.990,0.835,0.136,0.061,-8.691,6.187,0.838,-2.548,0.521,0.332,happy
1.49,2131,3878,3638,2949,1759,0,223,0,0,0,0,0,0,0,16,1940,1.537,3.965,9.153,0.911,0.245,0.098,-7.374,-4.499,15.558,-2.487,0.847,1.300,happy
1.50,2407,3899,3658,3033,1363,0,110,0,0,0,0,0,0,0,917,2840,1.784,3.757,9.335,1.132,0.313,0.140,2.066,-2.277,8.938,-2.012,-0.423,0.226,happy
1.51,2674,3879,3648,3136,1136,0,0,0,0,0,0,0,5,0,1151,3124,1.365,3.484,9.510,1.661,0.434,0.274,-2.873,-2.801,19.613,-0.967,1.802,1.504,happy
1.52,2919,3818,3638,3150,733,0,0,0,6,0,0,0,393,0,1591,2808,2.952,3.742,9.402,2.432,0.508,0.442,4.906,-4.700,10.532,-0.112,1.382,0.537,happy
1.53,3079,3536,3521,2789,306,0,0,0,4,364,0,0,815,0,2311,3760,2.938,4.058,10.233,2.996,0.851,0.355,0.721,-3.539,10.441,-0.195,0.985,0.424,happy
1.54,3151,2615,3009,2307,0,0,0,0,0,343,0,6,1087,0,2443,3849,0.505,4.149,13.379,4.012,0.227,-0.373,-0.225,-3.215,10.965,-0.270,0.374,0.097,happy
1.55,3113,1735,1923,1717,0,0,0,0,89,581,10,164,1615,3,2778,4005,2.078,6.438,16.599,5.503,-0.403,-1.253,0.658,-3.194,10.065,-0.172,-0.014,-0.046,happy
1.56,2092,629,0,370,0,0,0,0,56,858,2,217,2136,2,3113,4015,1.554,7.707,12.115,6.325,0.170,-2.016,1.810,-2.974,9.783,0.053,0.095,0.036,happy
1.57,1571,197,0,0,0,0,0,0,52,903,0,235,2360,3,3339,4095,2.540,8.183,9.685,6.715,0.011,-2.252,1.870,-2.957,9.349,0.052,0.089,0.074,happy
1.58,1005,0,0,0,0,0,0,0,1609,2553,53,2507,2573,1709,1568,3101,0.742,9.907,8.993,6.243,0.140,-2.172,1.654,-3.136,9.452,0.023,0.061,0.027,happy
1.59,0,0,0,0,0,0,0,0,119,924,58,281,2539,3,3413,3923,9.768,6.972,19.613,1.661,0.109,-1.756,1.286,-3.151,9.701,0.072,0.036,0.035,happy
1.60,0,0,0,0,0,0,0,0,119,921,0,295,2748,3,3595,4085,12.859,4.594,12.981,-0.088,1.321,-0.892,1.298,-3.057,9.862,0.058,-0.011,-0.012,happy
1.61,0,0,0,0,0,0,0,0,123,903,0,297,2601,4,3251,3637,5.114,-0.249,14.425,-1.311,1.121,0.071,0.891,-2.816,8.971,0.094,-0.120,0.044,happy
1.62,0,0,0,0,0,0,0,0,33,933,2,235,2719,0,3411,3795,3.943,1.238,7.290,-1.599,1.132,0.481,1.547,-2.849,9.491,0.122,0.094,0.025,happy
1.63,0,0,0,0,0,0,0,0,23,841,2,309,2678,5,3279,3637,2.059,0.014,8.861,-1.972,0.341,0.590,1.432,-2.710,9.333,0.080,0.054,0.031,happy
1.64,0,0,0,0,0,0,0,0,26,799,2,277,2661,0,3257,3609,3.235,1.470,9.146,-2.534,-0.038,0.643,1.453,-2.981,9.708,0.062,0.080,0.037,happy
1.65,0,0,0,0,0,0,0,0,23,790,7,249,2831,0,3549,3870,2.880,1.839,9.560,-3.165,0.134,0.600,1.343,-2.782,9.716,0.027,0.050,-0.010,happy
1.66,0,0,0,0,0,0,0,0,25,821,0,233,2867,0,3576,3916,1.870,2.342,9.002,-3.592,0.166,0.570,1.346,-2.689,9.445,-0.031,-0.001,0.011,happy
1.67,0,0,0,0,0,0,0,0,22,849,0,207,2712,0,3322,3675,0.757,2.902,8.078,-3.950,-0.130,0.395,1.518,-2.705,9.390,-0.056,-0.004,0.046,happy
1.68,0,0,0,0,0,0,0,0,1608,2552,43,2491,2589,1689,1577,3107,1.276,3.031,7.274,-4.172,-0.286,0.116,1.554,-2.966,9.531,-0.083,0.017,0.055,happy
1.69,0,0,0,0,0,0,0,0,99,1082,542,351,3092,27,3996,4095,1.444,4.197,7.896,-4.300,-0.523,-0.159,1.365,-2.818,9.450,-0.080,-0.016,0.090,happy
1.70,0,0,0,0,0,0,0,0,143,1165,964,393,3119,0,3781,4095,1.204,5.013,9.201,-4.350,-0.796,-0.227,1.465,-2.935,9.407,-0.092,-0.038,0.087,happy
1.71,0,0,0,0,0,0,0,0,165,1173,1220,397,3209,39,3781,4095,1.556,5.775,9.608,-4.438,-1.094,-0.256,1.448,-2.847,9.369,-0.115,-0.058,0.093,happy
1.72,0,0,0,0,0,0,0,0,187,1291,1755,409,3087,38,3557,3829,2.842,6.574,9.878,-4.301,-1.242,-0.064,1.451,-2.880,9.402,-0.131,-0.063,0.120,happy
1.73,0,0,0,0,0,0,0,0,1619,2556,1384,2503,2595,1719,1590,3111,3.290,8.145,12.033,-3.952,-1.389,0.497,1.571,-3.206,9.388,-0.127,0.009,0.133,happy
1.74,0,0,0,0,0,0,0,0,269,1884,2044,904,3403,39,3801,4095,1.762,9.275,13.865,-3.557,-1.670,1.016,0.508,-2.722,9.036,-0.157,-0.013,0.136,happy
1.75,0,0,0,0,0,0,0,0,333,2206,2114,1103,3562,47,3775,4091,-0.022,11.569,14.801,-2.898,-1.991,1.440,2.119,-3.500,9.146,-0.056,0.028,0.147,happy
1.76,0,0,0,0,0,0,0,0,437,2222,2147,1125,3483,47,3653,4039,-0.026,16.556,19.199,-3.261,-1.146,1.607,1.360,-2.875,9.357,-0.134,-0.025,0.168,happy
1.77,0,0,0,0,0,0,0,0,394,2403,2201,1355,3591,71,3557,4024,-3.304,16.410,10.968,-3.470,-0.312,1.543,2.473,-4.039,10.305,-0.166,-0.002,0.191,happy
1.78,0,0,0,0,0,0,0,0,571,2476,2208,1589,3630,43,3495,3986,-6.440,14.174,0.474,-2.490,-0.735,0.843,1.592,-3.551,9.574,-0.211,0.013,0.235,happy
1.79,0,0,0,0,0,0,0,0,1115,2668,2226,1937,3676,47,3259,3849,-4.592,19.307,-0.304,-1.217,-1.397,0.582,1.530,-3.462,9.486,-0.191,0.050,0.165,happy
1.80,0,0,0,0,0,0,0,0,1845,2812,2234,2363,3676,47,2795,3509,-2.356,15.986,-6.220,0.082,0.164,0.868,1.559,-3.314,9.459,-0.251,0.056,0.138,happy
1.81,0,0,0,0,0,0,0,0,2439,2940,2242,2716,3532,47,2143,2803,0.984,6.024,1.927,1.593,1.738,0.119,2.152,-4.827,8.179,-0.276,0.249,0.162,happy
1.82,0,0,0,0,32,0,0,0,2723,3003,2242,2856,3094,43,1289,2356,-0.333,1.978,19.613,0.713,1.103,0.495,1.489,-3.383,9.546,-0.413,0.258,0.100,happy
1.83,0,0,0,0,1,0,162,730,2905,3029,2247,2926,2941,45,743,2214,-3.278,-7.910,1.085,1.600,0.245,0.246,1.334,-4.008,9.163,-0.459,0.303,0.084,happy
1.84,0,0,0,0,144,0,537,2446,3172,3019,2249,3167,2213,10,45,1812,-5.401,2.318,13.788,2.944,-1.024,-0.071,1.415,-4.233,9.890,-0.942,0.462,-0.107,happy
1.85,0,0,0,0,593,0,1392,3001,3419,2623,2270,3379,1183,0,3,1714,4.786,4.805,10.800,2.135,-1.008,-0.045,1.623,-2.914,8.337,-0.758,0.361,-0.126,happy
1.86,0,432,0,0,907,0,2128,3180,3492,2637,2275,3461,746,9,3,1653,7.642,10.537,9.325,1.481,1.462,-0.185,1.439,-3.194,9.029,-1.056,0.319,-0.231,happy
1.87,0,1292,0,0,1597,0,2403,3302,3608,2299,2323,3518,98,5,3,1336,-0.520,3.112,12.103,0.548,1.311,-0.451,2.473,-2.365,9.675,-2.468,0.480,-0.385,happy
1.88,0,1821,0,0,1893,0,2633,3382,3588,1181,2520,3347,0,0,0,1107,1.025,4.096,10.760,0.178,0.962,-0.316,2.303,-2.071,10.159,-4.072,1.120,-0.277,happy
1.89,0,2087,0,0,2175,0,2722,3440,3533,1007,2316,3013,0,0,0,1021,1.180,2.921,9.653,0.318,0.923,-0.384,0.067,-2.387,13.154,-4.366,1.242,0.434,happy
1.90,0,2525,22,0,2399,0,2838,3527,2487,21,0,885,24,29,3,699,1.204,3.452,10.362,0.171,0.396,-0.475,2.626,-4.693,16.242,-4.366,1.080,2.389,happy
1.91,0,2753,500,0,2585,0,2971,3570,1591,2551,0,2490,2578,1673,1571,3109,1.149,2.772,9.878,0.195,0.042,-0.179,1.654,-9.177,15.016,-4.366,1.115,3.506,happy
1.92,0,2922,1041,0,2740,0,3095,3602,1583,2551,0,2483,2581,1657,1563,3102,1.403,2.710,9.471,0.218,0.114,-0.023,-0.005,-10.503,14.420,-4.130,0.714,3.249,happy
1.93,0,3037,1535,176,2877,0,3164,3619,0,0,0,0,0,0,0,439,1.458,2.969,9.615,0.193,0.088,-0.094,0.804,-5.346,19.613,-0.110,-0.423,2.748,happy
1.94,0,3109,1730,294,2945,0,3189,3623,0,0,0,0,0,0,0,409,1.324,2.787,9.661,0.143,0.041,-0.094,6.740,4.372,7.259,0.999,-0.272,2.760,happy
1.95,0,3159,1913,390,2992,0,3200,3607,0,0,0,0,0,0,0,479,1.307,2.844,9.589,0.156,0.005,-0.058,6.519,2.962,6.558,1.201,-0.008,2.094,happy
1.96,0,3187,2026,483,3037,0,3207,3598,0,0,0,0,0,0,0,483,1.358,2.899,9.692,0.160,0.003,-0.042,6.914,0.608,8.339,1.380,-0.514,1.381,happy
1.97,0,3232,2157,553,3092,0,3196,3577,0,0,0,0,5,0,0,471,1.271,2.854,9.567,0.175,-0.008,-0.064,8.171,-0.302,10.925,1.988,-0.796,0.567,happy
1.98,10,3263,2288,686,3130,0,3185,3543,0,0,0,0,0,0,0,397,1.279,2.701,9.407,0.193,-0.010,-0.086,7.705,-0.563,10.185,2.569,-1.013,-0.363,happy
1.99,132,3248,2442,831,3167,0,3131,3457,0,0,89,0,0,0,9,333,1.168,2.784,9.522,0.242,0.039,-0.080,1.925,-0.754,8.262,3.159,-1.584,-1.451,happy
2.00,242,3369,2477,1136,3156,0,2909,3401,0,0,0,0,0,0,0,303,1.276,2.806,9.330,0.242,0.043,-0.092,0.041,-0.931,8.406,3.312,-1.743,-1.489,happy
2.01,400,3452,2818,1475,3216,0,3062,3331,0,0,0,0,1,0,0,295,1.441,2.988,9.280,0.283,0.038,-0.127,-2.138,-2.059,11.066,3.757,-1.711,-0.957,happy
2.02,528,3507,2975,1829,3235,0,3017,3248,0,0,0,0,0,0,0,255,1.197,3.203,9.402,0.249,0.001,-0.099,-1.978,-3.280,12.335,4.068,-1.850,-0.462,happy
2.03,663,3557,3114,2153,3252,0,2986,3182,0,0,0,0,0,0,0,246,1.334,3.038,9.536,0.211,-0.011,-0.099,-1.310,-3.833,12.658,4.065,-2.054,-0.414,happy
2.04,766,3607,3216,2384,3267,0,2939,3089,0,0,0,0,0,0,0,230,1.264,3.132,9.402,0.212,-0.007,-0.101,0.752,-5.471,15.318,4.067,-2.093,-0.712,happy
2.05,863,3655,3309,2545,3312,0,2874,2938,0,0,0,0,0,0,0,173,1.226,3.189,9.531,0.213,-0.006,-0.102,-0.199,-6.651,16.678,3.432,-2.528,-1.439,happy
2.06,1062,3695,3381,2685,3354,0,2767,2629,1545,0,0,0,1722,1734,0,95,1.147,3.151,9.390,0.219,-0.044,-0.079,0.788,-9.862,17.425,2.904,-2.989,-1.966,happy
2.07,1255,3730,3463,2842,3358,0,2559,2063,0,0,0,0,0,0,0,121,1.142,3.318,9.462,0.193,-0.017,-0.107,0.603,-19.613,19.613,2.585,-3.299,-3.172,happy
2.08,1488,3775,3499,2953,3347,0,2165,1082,0,0,0,0,56,0,0,41,1.326,3.352,9.359,0.250,0.072,-0.131,-3.318,-19.613,6.026,3.199,-1.020,-3.184,happy
2.09,1847,3707,3545,3015,3169,0,1523,0,1591,2549,0,2488,2586,1663,1567,3100,1.279,3.373,9.278,0.208,0.148,-0.070,-12.079,-19.613,-5.801,2.374,-0.715,-2.884,happy
2.10,2160,3835,3609,3200,2719,0,567,0,1580,2548,0,2509,2617,1735,1593,3116,1.188,3.474,9.524,0.290,0.154,-0.039,-10.613,-19.613,-11.013,-0.639,-0.026,-0.994,happy
2.11,2363,3809,3648,3290,2298,0,183,0,0,0,0,0,0,0,0,77,2.404,1.393,8.997,0.301,0.213,-0.176,3.486,-0.871,19.613,-0.912,2.431,0.615,happy
2.12,2455,3863,3657,3318,1968,0,193,0,0,0,0,0,25,0,0,1008,0.994,4.106,9.847,0.776,0.100,0.047,1.628,8.610,17.006,-1.419,-0.340,-0.096,happy
2.13,2627,3856,3686,3381,1370,0,0,0,0,0,30,0,0,0,0,1445,1.243,3.366,9.285,1.089,0.257,0.195,4.446,5.083,-4.245,-3.193,-0.643,-0.339,happy
2.14,2681,3863,3696,3420,1201,0,0,0,0,0,7,0,0,0,0,1971,1.068,3.563,9.474,1.324,0.279,0.245,-0.532,-4.779,15.067,-3.149,-0.388,0.203,happy
2.15,2767,3856,3691,3435,869,0,0,0,1587,2567,79,2493,2580,1671,1575,3112,1.176,3.809,9.689,1.578,0.465,0.354,-7.922,-7.463,16.158,-2.794,-0.297,0.467,happy
2.16,2883,3732,3658,3429,436,0,0,0,0,0,0,0,0,0,1151,3309,2.006,2.902,9.855,2.149,0.813,0.528,8.092,-6.682,11.997,-2.270,-0.402,0.588,happy
2.17,2946,3316,3606,3389,0,0,0,0,0,0,0,0,31,0,1747,3628,2.962,3.630,9.606,2.624,0.911,0.603,8.313,-8.504,17.236,-1.577,0.954,0.475,happy
2.18,2997,2909,3404,3166,0,0,0,0,0,0,2,0,371,0,2167,3581,2.658,3.093,9.503,3.299,0.990,0.620,-0.311,-4.197,13.436,-0.561,1.531,0.732,happy
2.19,3047,2518,3314,2621,0,0,0,0,0,57,2,0,751,0,2456,3607,0.965,2.682,8.758,3.613,1.281,0.136,1.180,-3.898,11.480,-0.319,1.101,0.377,happy
2.20,3046,2275,2689,2139,0,0,0,0,0,287,2,38,1277,0,2773,4021,-2.557,3.242,15.325,4.464,0.579,-0.715,1.982,-3.366,10.338,-0.323,0.891,0.445,happy
2.21,2353,1165,1574,1634,0,0,0,0,0,459,0,0,1843,0,3103,4092,1.563,8.121,16.597,5.999,0.259,-1.989,2.715,-3.021,9.543,-0.168,0.432,0.217,happy
2.22,1462,301,0,471,0,0,0,0,0,574,0,0,2279,0,3241,4095,2.461,11.083,12.931,6.874,0.379,-2.642,1.190,-3.385,11.310,-0.043,0.376,0.179,happy
2.23,546,0,0,37,0,0,0,0,0,584,0,0,2207,0,3123,3667,2.437,10.647,12.105,6.366,1.123,-3.037,1.836,-2.909,9.586,0.028,0.216,0.155,happy
2.24,0,0,0,0,0,0,0,0,3,687,2,5,2489,0,3509,4095,5.569,9.625,19.613,3.017,1.135,-2.742,1.788,-2.863,10.068,0.055,0.242,0.126,happy
2.25,0,0,0,0,0,0,0,0,0,851,2,1,2681,0,3577,4095,11.186,4.618,19.613,0.539,0.992,-2.534,2.025,-3.021,10.080,0.074,0.148,0.088,happy
2.26,0,0,0,0,0,0,0,0,0,925,0,0,2790,0,3676,4095,12.333,6.306,13.075,-0.287,0.077,-0.136,1.954,-2.907,9.934,0.049,0.033,0.017,happy
2.27,0,0,0,0,0,0,0,0,0,861,0,0,2841,0,3677,4095,6.409,-3.017,7.614,-0.609,0.565,0.297,2.160,-2.840,9.500,0.034,-0.022,-0.016,happy
2.28,0,0,0,0,0,0,0,0,0,765,0,7,2871,0,3661,4095,4.805,0.074,5.358,-0.804,0.214,0.951,2.330,-2.780,9.541,0.056,0.031,-0.085,happy
2.29,0,0,0,0,0,0,0,0,0,766,0,1,2953,0,3763,4095,2.863,-0.383,8.938,-1.181,-0.331,0.936,2.162,-2.916,9.481,0.102,0.120,0.003,happy
2.30,0,0,0,0,0,0,0,0,0,661,0,0,2901,9,3601,3983,1.544,1.841,11.135,-1.908,-0.685,0.945,1.982,-2.667,9.385,0.102,0.158,0.045,happy
2.31,0,0,0,0,0,0,0,0,0,536,0,0,3078,0,3787,4095,0.591,1.590,10.731,-2.705,-0.535,0.891,1.963,-2.330,9.064,0.120,0.257,0.017,happy
2.32,0,0,0,0,0,0,0,0,0,603,0,0,3063,0,3851,4095,-0.761,1.456,8.624,-3.232,-0.747,0.761,2.397,-2.064,9.074,0.053,0.332,0.080,happy
2.33,0,0,0,0,0,0,0,0,12,567,0,0,3115,0,3849,4095,-0.560,1.891,7.496,-3.517,-0.984,0.498,2.543,-2.176,8.602,-0.039,0.414,0.158,happy
2.34,0,0,0,0,0,0,0,0,0,605,0,0,3134,0,3838,4095,0.479,2.555,7.503,-3.723,-1.024,0.224,2.552,-2.152,8.564,-0.151,0.449,0.199,happy
2.35,0,0,0,0,0,0,0,0,0,681,0,0,3172,0,3799,4095,0.407,3.505,8.540,-3.761,-1.081,0.069,1.721,-2.416,9.598,-0.226,0.374,0.256,happy
2.36,0,0,0,0,0,0,0,0,0,665,0,0,3247,0,3832,4095,-0.342,4.238,9.685,-3.940,-1.247,-0.039,1.832,-2.768,9.634,-0.240,0.290,0.258,happy
2.37,0,0,0,0,0,0,0,0,0,725,0,0,3259,0,3835,4095,0.045,5.224,10.412,-4.059,-1.571,-0.112,1.585,-3.045,9.984,-0.213,0.172,0.229,happy
2.38,0,0,0,0,0,0,0,0,0,955,0,45,3317,0,3833,4095,0.764,5.583,10.065,-4.076,-1.620,0.016,1.650,-2.808,9.778,-0.207,0.104,0.212,happy
2.39,0,0,0,0,0,0,0,0,85,1132,2,102,3356,24,3827,4095,1.192,5.859,10.230,-3.979,-1.582,0.312,1.705,-2.763,9.452,-0.191,0.058,0.216,happy
2.40,0,0,0,0,0,0,0,0,133,1298,1443,276,3407,31,3829,4095,1.597,6.409,11.368,-3.846,-1.547,0.647,1.784,-2.514,9.163,-0.258,0.013,0.237,happy
2.41,0,0,0,0,0,0,0,0,217,1806,2044,565,3495,43,3800,4095,1.458,7.647,14.016,-3.768,-1.411,1.207,1.465,-3.203,9.828,-0.267,0.060,0.281,happy
2.42,0,0,0,0,0,0,0,0,279,2261,2106,917,3601,41,3665,4072,-2.085,7.839,14.660,-3.426,-1.481,1.458,1.159,-2.720,9.313,-0.257,0.067,0.279,happy
2.43,0,0,0,0,0,0,0,0,361,2365,2152,1033,3660,51,3653,4030,-1.994,10.673,16.633,-3.103,-1.600,1.331,1.597,-2.832,9.378,-0.299,0.039,0.321,happy
2.44,0,0,0,0,0,0,0,0,607,2575,2249,1431,3694,47,3501,4007,-2.164,14.447,18.419,-3.145,-1.021,1.203,1.719,-3.072,9.395,-0.325,0.060,0.313,happy
2.45,0,0,0,0,0,0,0,0,1365,2749,2224,1997,3750,51,3227,3795,-4.049,14.897,12.397,-3.304,-0.887,0.661,1.595,-3.546,9.572,-0.261,-0.027,0.140,happy
2.46,0,0,0,0,0,0,0,0,1709,2848,2229,2164,3768,48,3053,3641,-8.583,19.530,4.164,-2.899,-2.131,-0.079,1.578,-3.335,9.531,-0.231,-0.037,0.082,happy
2.47,0,0,0,0,0,0,0,0,2416,2923,2236,2316,3786,55,2611,3021,-4.379,19.613,-14.427,-1.452,-1.858,0.507,1.628,-3.445,9.390,-0.235,-0.018,0.087,happy
2.48,0,0,0,0,0,0,0,0,2963,3049,2239,2548,3717,46,1851,2147,-1.686,8.827,-3.730,1.331,2.269,-0.536,1.638,-3.182,9.337,-0.244,0.059,0.045,happy
2.49,0,0,0,0,0,0,0,0,3145,3151,2244,2735,3563,47,1193,2101,1.240,5.555,19.613,0.815,2.087,-0.808,1.566,-3.486,9.337,-0.230,0.157,0.081,happy
2.50,0,0,0,0,0,0,0,413,3423,3271,2249,3016,2891,77,157,1687,6.594,-3.440,1.441,1.082,0.196,0.026,2.334,-0.582,10.072,-0.284,0.308,0.218,happy
2.51,0,0,0,0,51,0,362,2352,3627,3239,2265,3199,2027,5,5,1439,-1.255,1.595,11.629,2.961,0.149,0.187,0.939,-4.300,8.464,-0.643,0.344,0.033,happy
2.52,0,0,0,0,361,0,954,3089,3703,3117,2198,3365,1371,4,10,1305,-1.049,6.146,13.692,2.368,-0.575,-0.114,1.808,-1.638,9.584,-0.907,0.322,0.020,happy
2.53,0,0,0,0,854,0,2066,3350,3832,2551,2290,3517,542,4,46,978,19.613,1.549,14.727,1.515,-0.625,-0.017,2.291,-2.990,9.768,-1.613,0.398,-0.164,happy
2.54,0,815,0,0,1264,0,2426,3479,3901,2104,2395,3556,42,8,1,883,2.995,5.169,10.214,0.869,1.327,-0.248,5.057,-2.887,11.131,-3.177,0.836,-0.412,happy
2.55,0,1600,0,0,1726,0,2629,3565,3913,1659,2474,3481,0,1,0,740,1.116,3.045,11.523,0.515,1.496,-0.433,3.740,-2.761,12.091,-3.884,1.300,-0.267,happy
2.56,0,2123,0,0,2206,0,2797,3639,3767,565,1632,2703,0,0,0,551,0.579,2.959,10.968,0.499,1.023,-0.454,2.988,-3.390,15.318,-4.366,1.004,1.634,happy
2.57,0,2579,329,0,2470,0,2970,3712,3275,136,2,491,4,0,0,409,0.788,3.091,10.621,0.332,0.625,-0.403,3.294,-5.013,14.356,-4.366,0.763,3.313,happy
2.58,0,2835,1181,326,2679,0,3071,3739,1263,2557,0,2679,2552,2106,2215,3563,1.293,2.971,9.723,0.180,0.123,-0.277,2.847,-8.727,14.868,-4.366,1.004,3.881,happy
2.59,0,2996,1757,576,2827,0,3171,3754,1589,2551,0,2488,2579,1660,1565,3103,1.341,3.010,9.704,0.162,0.049,-0.115,4.381,-8.432,19.462,-1.838,1.212,3.824,happy
2.60,47,3137,2149,704,2954,0,3229,3760,0,0,0,0,0,0,0,299,1.341,2.856,9.618,0.171,0.114,-0.083,9.026,3.412,10.563,1.362,0.055,1.965,happy
2.61,114,3197,2331,886,3018,0,3248,3755,0,0,0,0,0,0,0,315,1.326,2.784,9.586,0.203,0.110,-0.084,6.601,2.646,4.310,1.563,0.043,1.217,happy
2.62,177,3251,2466,1006,3047,0,3251,3735,0,5,0,0,0,0,0,315,1.389,2.928,9.498,0.208,0.079,-0.067,5.461,1.741,3.519,1.414,-0.159,0.806,happy
2.63,228,3297,2608,1179,3094,0,3283,3722,0,7,0,0,0,0,0,313,1.314,2.895,9.601,0.209,0.044,-0.075,5.969,0.385,6.663,1.650,-0.418,0.281,happy
2.64,251,3331,2663,1328,3136,0,3209,3676,0,0,0,0,0,0,0,319,1.195,2.801,9.519,0.225,0.019,-0.073,6.352,-1.482,9.431,2.285,-0.552,-0.341,happy
2.65,333,3373,2855,1703,3191,0,3161,3622,3,0,0,0,5,4,0,333,1.168,2.974,9.538,0.247,-0.027,-0.091,4.678,-2.207,11.190,2.959,-0.700,-0.928,happy
2.66,457,3438,2967,1891,3232,0,3122,3486,0,0,43,0,7,7,0,269,1.113,3.117,9.591,0.230,-0.034,-0.057,0.196,-2.387,7.709,3.756,-1.471,-1.455,happy
2.67,545,3520,3071,1920,3280,0,3098,3381,0,0,0,0,0,0,0,233,1.018,3.077,9.562,0.176,-0.017,-0.039,-0.666,-3.203,8.361,3.898,-1.755,-1.194,happy
2.68,594,3551,3154,2203,3301,0,3062,3269,0,0,0,0,0,0,0,226,1.221,3.060,9.369,0.195,-0.047,-0.061,-0.151,-4.094,9.886,4.015,-1.741,-1.030,happy
2.69,672,3600,3238,2320,3353,0,3043,3169,1,0,0,0,0,0,0,205,1.460,3.048,9.498,0.149,-0.047,-0.083,0.323,-5.456,11.832,4.300,-1.864,-1.091,happy
2.70,716,3669,3332,2273,3412,0,3043,3098,0,0,0,39,0,0,0,145,1.219,3.294,9.392,0.116,-0.022,-0.064,-1.245,-6.239,14.272,4.248,-2.274,-1.110,happy
2.71,783,3702,3379,2513,3456,0,3018,3001,0,0,0,25,0,0,0,89,1.650,2.957,9.242,0.114,-0.005,-0.084,-1.978,-7.556,16.968,4.366,-2.340,-0.912,happy
2.72,944,3744,3442,2636,3505,0,2961,2867,0,0,0,0,0,0,0,73,1.250,3.017,9.438,0.179,0.011,-0.103,-2.454,-10.681,18.486,3.984,-2.775,-0.655,happy
2.73,1073,3799,3520,2618,3553,0,2882,2719,1637,2515,0,2489,2581,1663,1565,3108,1.353,3.000,9.316,0.240,0.020,-0.110,-4.563,-19.491,19.613,4.286,-2.712,-0.974,happy
2.74,1237,3837,3568,2870,3558,0,2662,2383,0,0,0,0,0,0,0,0,1.408,3.215,9.354,0.214,0.031,-0.106,-5.224,-19.613,9.184,3.437,-1.887,-1.185,happy
2.75,1366,3888,3619,3015,3537,0,2244,1563,0,0,0,0,0,39,0,0,1.312,3.361,9.258,0.249,0.047,-0.088,-9.838,-19.613,-6.768,1.537,-1.307,-1.374,happy
2.76,1602,3900,3668,3153,3451,0,1712,0,0,0,0,0,0,0,0,0,1.360,3.306,9.352,0.265,0.104,-0.051,-6.998,-19.613,-15.610,-2.184,1.774,-1.968,happy
2.77,1913,3943,3737,3263,3221,0,646,0,1565,2549,0,2549,2615,1820,1619,3127,1.302,3.266,9.292,0.399,0.156,-0.055,1.439,-9.819,15.538,-0.709,3.890,-1.052,happy
2.78,2101,3963,3767,3351,2355,0,195,0,0,0,0,0,0,0,0,1530,1.951,0.745,8.090,0.710,0.193,-0.060,-8.164,7.159,2.976,-2.911,-0.533,-0.515,happy
2.79,2266,3977,3793,3228,1825,0,0,0,39,0,66,0,0,0,0,2317,0.943,3.764,9.222,1.083,0.199,0.147,-4.803,-7.616,19.613,-2.278,0.253,0.503,happy
2.80,2410,3974,3798,3312,1477,0,0,0,0,0,0,0,0,0,459,2847,1.535,3.637,9.105,1.177,0.233,0.222,-1.300,-2.200,13.975,-2.589,-0.841,0.211,happy
2.81,2679,3870,3783,3471,827,0,0,0,37,0,0,0,0,0,777,3115,2.195,3.309,9.349,1.631,0.434,0.293,4.386,-4.010,8.885,-2.350,-0.758,0.339,happy
2.82,2816,3910,3777,3499,850,0,0,0,0,0,0,0,0,0,1075,3335,1.920,2.990,9.452,1.923,0.480,0.382,19.613,-0.254,19.613,-2.836,0.697,0.304,happy
2.83,2953,3826,3763,3494,537,0,0,0,0,0,0,0,84,0,1234,3450,1.587,2.897,9.409,2.303,0.740,0.525,-4.475,-5.009,6.563,-1.070,0.785,0.295,happy
2.84,3054,3472,3697,3439,0,0,0,0,0,0,2,0,249,0,1519,3445,2.746,3.572,9.692,2.671,0.771,0.551,-0.615,-3.893,11.851,-0.580,1.340,0.719,happy
2.85,3149,2994,3599,3088,0,0,0,0,1547,2550,0,2486,2579,1669,1568,3103,1.408,3.620,9.704,3.254,0.771,0.511,0.752,-3.828,13.472,-0.602,0.893,0.571,happy
2.86,3261,2619,3178,2321,0,0,0,0,0,499,7,390,887,0,2287,3941,-1.525,3.479,14.734,4.199,0.329,-0.371,1.580,-4.156,10.563,-0.350,0.306,0.206,happy
2.87,3117,1733,2027,1720,0,0,0,0,110,593,0,729,1287,3,2597,4060,-0.668,8.279,17.585,5.767,-0.022,-1.309,0.924,-3.517,10.156,-0.135,0.096,0.209,happy
2.88,1732,656,67,604,0,0,0,0,157,677,437,955,1383,29,2781,4088,1.688,7.096,11.669,6.722,0.165,-2.415,1.444,-3.196,9.572,-0.067,0.051,0.185,happy
2.89,753,0,0,0,0,0,0,0,211,840,1507,1307,1719,42,3177,4095,1.425,11.598,11.765,6.286,1.063,-2.811,1.513,-2.751,9.254,-0.095,0.080,0.079,happy
2.90,0,0,0,0,0,0,0,0,296,845,1742,1547,2021,47,3381,4095,3.852,2.801,19.613,1.294,-0.161,-3.273,1.451,-2.933,9.380,-0.016,0.024,0.032,happy
2.91,0,0,0,0,0,0,0,0,293,893,1781,1639,2150,48,3479,4095,9.816,-1.310,14.849,-0.944,-0.433,-1.349,1.437,-2.456,8.641,-0.123,-0.037,0.041,happy
2.92,0,0,0,0,0,0,0,0,331,902,1906,1725,2293,51,3544,4095,5.997,-0.184,7.839,-1.563,-0.105,-0.188,1.384,-3.148,9.653,-0.023,0.053,0.105,happy
2.93,0,0,0,0,0,0,0,0,335,985,1945,1718,2342,47,3604,4095,5.169,0.970,9.862,-2.321,-0.772,0.527,1.269,-3.036,9.527,-0.032,0.060,0.073,happy
2.94,0,0,0,0,0,0,0,0,379,1013,1952,1877,2364,47,3551,4095,4.281,1.228,10.214,-3.016,-0.790,0.845,1.343,-3.002,9.515,-0.055,0.045,0.054,happy
2.95,0,0,0,0,0,0,0,0,405,1020,2029,1948,2387,48,3531,4095,0.445,1.439,8.435,-3.741,-0.675,1.045,1.329,-3.017,9.479,-0.055,0.052,0.056,happy
2.96,0,0,0,0,0,0,0,0,413,1053,2060,2001,2407,47,3495,4095,-0.089,2.042,7.436,-4.012,-1.027,0.775,1.195,-3.077,9.433,-0.018,0.035,0.062,happy
2.97,0,0,0,0,0,0,0,0,403,1197,2062,2077,2475,103,3485,4095,-0.285,3.682,10.144,-4.173,-1.192,0.378,1.441,-2.890,8.461,-0.043,-0.026,0.049,happy
2.98,0,0,0,0,0,0,0,0,425,1268,1965,2065,2531,47,3500,4095,1.267,5.339,11.514,-4.440,-1.396,0.190,2.490,-3.407,9.598,0.056,0.068,0.088,happy
2.99,0,0,0,0,0,0,0,0,453,1465,2085,1991,2668,47,3428,4095,2.052,7.077,12.929,-4.375,-1.638,0.477,1.652,-2.909,8.447,-0.070,0.002,0.095,happy
3.00,0,0,0,0,0,0,0,0,491,1465,2126,2285,2859,46,3571,4095,2.160,9.182,14.923,-4.192,-1.606,0.887,1.032,-2.758,9.215,-0.124,0.005,0.116,happy
3.01,0,0,0,0,0,0,0,0,463,1739,2183,2327,2941,47,3592,4095,1.204,11.499,15.320,-3.515,-2.023,1.252,1.156,-2.885,9.560,-0.110,-0.002,0.137,happy
3.02,0,0,0,0,0,0,0,0,1008,2109,2183,2415,3080,47,3547,4095,1.307,17.312,18.440,-3.260,-1.875,1.515,1.384,-3.395,9.613,-0.196,-0.068,0.124,happy
3.03,0,0,0,0,0,0,0,0,1451,2455,2198,2631,3195,47,3359,4069,-1.051,19.613,16.489,-3.664,-1.213,1.701,1.338,-3.239,9.412,-0.158,-0.025,0.112,happy
3.04,0,0,0,0,0,0,0,0,1819,2504,2208,2665,3256,47,3189,4027,-4.123,16.554,3.587,-3.170,-1.486,1.866,1.513,-3.153,9.428,-0.194,-0.053,0.106,happy
3.05,0,0,0,0,0,0,0,0,2523,2671,2218,2923,3301,47,2709,3871,-7.848,19.613,-2.849,-1.777,-1.381,2.114,1.599,-3.493,9.517,-0.352,-0.030,0.068,happy
3.06,0,0,0,0,0,0,0,0,3097,2829,2224,3052,3259,50,2147,3453,-7.606,13.944,-14.461,0.384,-0.653,1.352,1.377,-3.500,9.428,-0.345,0.008,0.061,happy
3.07,0,0,0,0,0,0,0,0,3293,2909,2188,3119,3063,30,1769,3051,1.044,7.980,5.231,2.232,2.725,0.614,1.391,-3.376,9.436,-0.381,0.049,0.045,happy
3.08,0,0,0,0,0,0,0,0,3461,3000,2231,3241,2871,46,1214,2293,-2.624,4.286,19.613,1.310,1.199,1.372,1.494,-3.800,9.493,-0.352,0.143,0.048,happy
3.09,0,0,0,0,107,0,181,683,3667,3129,2221,3379,2473,43,149,1895,-6.009,-7.041,4.685,1.554,0.711,0.667,0.807,-2.270,8.586,0.097,0.265,0.276,happy
3.10,0,0,0,0,16,0,543,2690,3813,2939,2244,3529,1384,1,6,1627,-13.001,1.228,13.245,3.028,-1.124,0.225,1.413,-3.788,8.842,-0.672,0.300,-0.052,happy
3.11,0,0,0,0,230,0,1261,3230,3848,2646,2249,3599,731,9,3,1528,4.204,5.523,12.517,1.896,-1.280,-0.220,1.987,-2.938,8.253,-0.742,0.253,-0.142,happy
3.12,0,144,0,0,589,0,2238,3443,3929,2507,2244,3659,143,7,2,1333,7.772,7.721,17.561,1.128,1.085,-0.804,1.726,-2.471,9.483,-1.483,0.334,-0.336,happy
3.13,0,940,0,0,1274,0,2532,3546,3963,1832,2367,3707,0,0,0,1049,2.547,1.185,9.383,0.527,1.424,-0.354,2.823,-2.365,10.858,-2.676,0.704,-0.450,happy
3.14,0,1414,0,0,1695,0,2666,3607,3961,1222,2431,3627,0,0,0,956,2.014,2.279,9.855,0.439,1.122,-0.305,2.981,-2.969,10.817,-3.342,1.059,-0.418,happy
3.15,0,1812,0,0,2105,0,2759,3658,3909,41,2042,3096,0,7,0,803,1.386,2.559,10.250,0.436,1.109,-0.375,1.329,-3.524,13.616,-4.366,1.597,0.719,happy
3.16,0,2185,0,0,2383,0,2911,3701,3531,0,0,1765,0,0,0,666,1.563,2.710,9.625,0.402,1.118,-0.592,2.832,-6.024,16.664,-4.366,1.612,2.721,happy
3.17,0,2511,112,0,2559,0,2989,3657,3005,0,0,603,0,0,0,485,0.153,2.734,11.878,0.470,0.826,-0.645,3.960,-5.626,12.005,-4.366,1.398,3.363,happy
3.18,0,2879,1315,67,2791,0,3088,3757,2790,0,0,301,0,0,0,391,1.348,3.091,10.379,0.377,0.358,-0.236,1.413,-6.637,13.156,-4.366,1.268,3.642,happy
3.19,0,3062,2166,583,2941,0,3217,3744,1589,2569,0,2507,2607,1701,1607,3103,1.480,2.998,9.790,0.456,0.323,-0.128,-1.657,-6.692,19.613,-1.507,0.429,4.221,happy
3.20,0,3217,2663,1107,3088,0,3251,3746,0,0,0,0,0,0,0,419,1.628,2.780,9.754,0.387,0.269,-0.250,9.584,5.543,10.290,1.029,-0.865,2.874,happy
3.21,134,3265,2799,1631,3115,0,3210,3709,0,0,0,0,0,0,0,537,1.448,2.808,9.567,0.440,0.172,-0.267,8.085,3.199,7.705,1.299,-0.472,1.999,happy
3.22,290,3361,2974,1872,3199,0,3232,3682,0,0,0,0,0,0,0,525,1.348,3.120,9.613,0.429,0.154,-0.209,8.193,0.807,9.620,1.484,-1.059,1.015,happy
3.23,488,3419,3114,2142,3221,0,3184,3631,0,0,0,0,0,0,0,471,1.295,3.084,9.589,0.321,0.133,-0.155,9.131,0.170,11.463,2.103,-1.364,0.050,happy
3.24,758,3504,3250,2559,3227,0,3071,3457,42,0,0,0,0,0,0,421,1.092,3.165,9.589,0.296,0.138,-0.139,7.199,0.012,10.597,2.604,-1.476,-0.883,happy
3.25,945,3568,3354,2743,3184,0,2945,3261,0,0,0,0,0,0,0,307,1.034,3.256,9.385,0.224,0.123,-0.078,-0.678,-0.706,9.855,3.301,-2.150,-1.537,happy
3.26,1152,3638,3444,2720,3170,0,2832,3051,0,0,0,0,0,0,0,287,1.475,3.354,9.067,0.164,0.089,-0.072,-3.414,-1.487,10.441,3.724,-2.196,-0.947,happy
3.27,1329,3678,3483,2974,3152,0,2689,2816,0,0,0,0,0,0,0,314,1.137,3.316,9.426,0.115,0.068,-0.059,-4.003,-2.116,11.595,3.912,-2.193,-0.436,happy
3.28,1465,3714,3536,3082,3146,0,2598,2544,27,0,0,0,0,0,0,299,1.156,3.244,9.510,0.087,0.065,-0.070,-1.549,-3.618,12.404,4.123,-2.401,-0.104,happy
3.29,1626,3754,3579,3161,3159,0,2529,2282,0,0,0,0,0,0,0,264,1.123,3.294,9.431,0.051,0.076,-0.071,0.453,-5.394,14.581,4.085,-2.531,-0.710,happy
3.30,1769,3787,3616,3229,3194,0,2469,1965,0,0,0,0,0,0,0,211,1.065,3.220,9.428,0.021,0.079,-0.056,0.486,-6.287,16.628,4.183,-2.310,-1.074,happy
3.31,1892,3809,3645,3297,3230,0,2368,1627,0,1,0,0,0,0,0,187,1.037,3.144,9.464,0.023,0.070,-0.080,-0.077,-10.470,19.412,4.094,-2.233,-1.547,happy
3.32,2057,3856,3687,3194,3269,0,2217,888,1597,2549,0,2494,2591,1737,1573,3109,1.135,3.043,9.333,0.072,0.059,-0.090,-4.367,-17.856,18.641,3.841,-2.503,-2.364,happy
3.33,2128,3860,3696,3388,3258,0,1790,0,1591,2551,0,2491,2587,1679,1572,3108,1.164,3.084,9.373,0.116,0.086,-0.106,-3.115,-19.613,13.458,3.418,-2.248,-2.490,happy
3.34,2267,3885,3733,3442,3177,0,1079,0,1589,2551,0,2515,2583,1677,1567,3097,1.130,3.168,9.361,0.203,0.094,-0.072,-9.148,-19.613,-5.710,1.858,-0.766,-2.887,happy
3.35,2487,3922,3781,3353,2688,0,486,0,1591,2573,0,2517,2612,1717,1575,3119,1.006,3.158,9.397,0.293,0.130,-0.056,-10.669,-19.613,-10.048,-0.697,-0.289,-1.667,happy
3.36,2672,3926,3791,3543,2278,0,114,0,1590,2556,0,2534,2579,1660,1564,3115,1.958,0.211,8.729,0.545,0.219,0.009,-3.294,-16.170,-12.553,-2.247,2.235,-1.179,happy
3.37,2855,3947,3810,3583,1568,0,0,0,0,0,0,0,0,0,0,1459,1.176,3.124,9.661,1.056,0.211,0.184,-10.144,17.195,19.613,-1.845,0.010,-0.968,happy
3.38,2966,3920,3823,3605,1278,0,0,0,0,0,0,0,0,0,2,1913,0.984,3.132,9.579,1.288,0.262,0.274,-5.394,3.637,-4.468,-3.920,0.035,-0.087,happy
3.39,3057,3893,3804,3632,911,0,0,0,0,0,0,0,0,0,0,2415,-1.202,3.405,9.811,1.571,0.572,0.368,-4.310,-8.770,18.464,-2.736,0.352,0.304,happy
3.40,3159,3818,3802,3629,595,0,0,0,0,0,0,0,0,0,0,2891,1.391,2.880,9.764,1.800,0.606,0.443,-2.270,-6.460,15.160,-2.759,-0.299,-0.193,happy
3.41,3259,3621,3765,3629,374,0,0,0,0,0,0,0,0,3,251,3142,1.322,2.828,9.586,2.167,0.743,0.563,-0.113,0.666,10.822,-2.845,-0.903,0.157,happy
3.42,3328,3235,3714,3606,0,0,0,0,0,0,0,0,0,0,661,3495,2.507,3.496,9.402,2.408,0.881,0.613,4.173,-6.146,11.009,-2.495,-0.755,0.167,happy
3.43,3388,2886,3614,3515,0,0,0,0,0,0,0,0,0,0,1225,3687,2.739,3.237,9.974,2.937,1.009,0.660,2.847,-5.234,12.665,-2.103,-0.498,0.255,happy
3.44,3392,2559,3344,3269,0,0,0,0,41,0,0,0,7,0,1783,3774,1.901,3.496,10.183,3.372,1.165,0.321,4.693,-12.232,13.771,-0.774,0.840,0.479,happy
3.45,3491,2382,2710,2612,0,0,0,0,0,0,0,72,282,0,2159,3903,0.354,3.108,10.398,4.195,1.216,-0.270,2.349,-2.564,9.519,-0.325,1.182,0.618,happy
3.46,3389,1339,1991,1993,0,0,0,0,0,191,0,91,793,0,2731,4083,1.609,4.458,14.257,6.447,0.392,-2.018,0.457,-3.847,11.056,-0.289,0.337,0.217,happy
3.47,2015,505,101,1022,0,0,0,0,0,559,0,315,1093,0,2925,4095,1.183,7.113,14.164,7.095,0.494,-3.125,1.312,-3.160,10.029,-0.089,0.299,0.187,happy
3.48,564,0,0,17,0,0,0,0,0,520,20,539,1447,0,3175,4044,2.818,16.163,11.243,6.457,1.198,-3.035,1.358,-3.136,9.756,-0.001,0.141,0.139,happy
3.49,0,0,0,0,0,0,0,0,0,583,0,603,1770,0,3303,4095,4.853,8.502,19.613,2.484,0.321,-2.951,1.408,-3.378,9.816,0.053,0.171,0.117,happy
3.50,0,0,0,0,0,0,0,0,0,595,0,652,1966,0,3427,4095,9.558,10.563,19.613,0.699,0.475,-1.770,1.920,-3.457,9.517,0.007,0.136,0.054,happy
3.51,0,0,0,0,0,0,0,0,0,639,0,735,2109,0,3499,4095,12.967,-1.642,14.147,-0.954,-0.116,-0.469,1.762,-3.050,9.594,0.053,0.121,0.062,happy
3.52,0,0,0,0,0,0,0,0,0,687,0,761,2227,0,3539,4095,7.762,0.919,3.733,-1.004,0.551,0.410,1.575,-2.938,9.397,0.020,0.069,0.022,happy
3.53,0,0,0,0,0,0,0,0,48,677,957,743,2374,3,3589,4095,3.244,-1.956,4.884,-1.201,-0.242,0.773,1.211,-2.947,9.354,0.028,0.005,0.007,happy
3.54,0,0,0,0,0,0,0,0,67,685,1118,697,2411,21,3605,4095,2.607,0.340,8.660,-1.455,-0.968,0.879,1.506,-2.818,9.426,0.079,0.097,0.047,happy
3.55,0,0,0,0,0,0,0,0,75,669,1159,743,2407,21,3616,4095,2.061,1.298,11.507,-2.353,-1.259,0.732,1.532,-2.780,9.538,0.069,0.110,0.066,happy
3.56,0,0,0,0,0,0,0,0,104,623,1200,687,2438,26,3623,4095,0.898,1.396,9.804,-3.159,-0.948,0.611,1.563,-2.607,9.340,0.036,0.129,0.082,happy
3.57,0,0,0,0,0,0,0,0,138,623,1210,739,2459,31,3623,4084,-1.432,1.073,6.989,-3.526,-1.133,0.482,1.391,-2.476,9.117,-0.018,0.112,0.094,happy
3.58,0,0,0,0,0,0,0,0,159,629,1302,853,2485,37,3623,4095,-1.204,1.848,6.433,-3.635,-1.455,0.112,1.439,-2.722,9.591,-0.057,0.099,0.121,happy
3.59,0,0,0,0,0,0,0,0,182,719,1425,983,2535,40,3621,4095,0.565,2.677,6.881,-3.715,-1.512,-0.192,1.276,-2.904,9.574,-0.085,0.077,0.120,happy
3.60,0,0,0,0,0,0,0,0,165,733,1689,1069,2587,37,3627,4095,0.752,3.519,8.550,-3.825,-1.553,-0.331,1.319,-2.679,9.397,-0.098,-0.005,0.084,happy
3.61,0,0,0,0,0,0,0,0,183,765,1957,1240,2733,43,3655,4095,0.637,5.284,10.386,-4.075,-1.983,-0.318,1.271,-2.744,9.347,-0.063,-0.002,0.138,happy
3.62,0,0,0,0,0,0,0,0,215,923,1814,1315,2809,41,3673,4095,1.290,6.213,10.879,-4.058,-2.142,0.150,1.259,-2.579,9.261,-0.089,0.002,0.153,happy
3.63,0,0,0,0,0,0,0,0,269,1250,2070,1352,2980,47,3710,4095,-0.278,7.415,13.257,-3.891,-2.267,0.672,1.879,-3.335,9.675,-0.118,0.032,0.198,happy
3.64,0,0,0,0,0,0,0,0,360,1374,2098,1480,3126,51,3718,4095,-1.721,9.052,15.895,-3.854,-2.137,0.852,1.633,-3.029,9.689,-0.212,-0.023,0.210,happy
3.65,0,0,0,0,0,0,0,0,420,1655,2065,1575,3189,48,3719,4095,-2.744,10.973,15.830,-3.370,-2.376,1.163,1.733,-3.223,9.328,-0.129,0.034,0.207,happy
3.66,0,0,0,0,0,0,0,0,819,2100,2308,2055,3315,50,3654,4061,-3.524,14.880,16.987,-3.275,-2.282,1.462,1.470,-2.890,9.263,-0.238,-0.017,0.248,happy
3.67,0,0,0,0,0,0,0,0,1471,2485,2193,2335,3387,48,3399,4024,-2.318,16.412,13.800,-3.128,-0.920,1.395,1.650,-3.132,9.218,-0.259,-0.056,0.169,happy
3.68,0,0,0,0,0,0,0,0,2069,2529,2208,2473,3450,37,3155,3948,-9.771,15.823,3.311,-2.555,-1.059,1.155,1.408,-2.892,9.404,-0.348,-0.102,0.151,happy
3.69,0,0,0,0,0,0,0,0,3019,2711,2224,2623,3516,43,2697,3707,-6.124,19.613,-9.055,-1.260,-1.075,1.345,1.448,-3.464,9.577,-0.302,-0.076,0.065,happy
3.70,0,0,0,0,0,0,0,0,3469,2901,2234,2863,3544,51,2024,3028,-6.850,9.941,-13.247,2.152,2.634,0.767,1.484,-3.536,9.438,-0.257,0.003,0.055,happy
3.71,0,0,0,0,0,0,0,0,3627,3017,2239,2966,3496,44,1483,2470,-3.436,5.215,19.613,1.510,2.359,-0.071,1.587,-3.318,9.160,-0.323,0.070,0.061,happy
3.72,0,0,0,0,0,0,0,73,3803,3171,2242,3117,2921,47,581,2003,0.079,-0.172,4.434,1.038,0.732,0.215,1.743,-2.794,11.224,-1.011,0.177,0.082,happy
3.73,0,0,0,0,80,0,406,2214,3919,3209,2249,3348,2131,8,8,1455,-6.129,-1.116,12.081,2.185,-0.092,-0.142,0.802,-4.322,8.650,-0.636,0.246,-0.038,happy
3.74,0,0,0,0,444,0,1069,2944,3838,3157,2259,3434,1621,5,3,1460,1.216,6.292,12.670,2.230,-0.701,-0.195,1.152,-3.723,9.120,-0.659,0.297,-0.084,happy
3.75,0,532,0,0,981,0,1937,3215,3987,2933,2282,3497,711,5,0,1207,3.409,9.656,9.043,1.142,1.161,-0.119,1.262,-3.139,9.376,-1.108,0.387,-0.153,happy
3.76,0,1328,0,0,1467,0,2199,3341,4089,2390,2326,3573,169,4,9,970,-2.679,2.569,13.752,0.634,1.337,-0.311,2.926,-3.144,9.577,-2.253,0.497,-0.268,happy
3.77,0,2030,113,94,1717,0,2365,3410,4095,2029,2439,3533,0,0,0,839,0.869,2.732,10.702,0.577,0.236,-0.116,3.792,-3.476,10.683,-2.991,0.808,-0.254,happy
3.78,0,2490,1266,614,2145,0,2549,3453,4095,985,2346,3205,0,0,0,759,0.871,2.557,9.601,0.582,0.205,-0.281,0.414,-2.780,11.009,-3.942,1.284,0.209,happy
3.79,0,2858,2169,940,2416,0,2736,3518,3960,171,0,1966,0,31,3,595,1.013,2.959,9.586,0.610,0.114,-0.444,2.066,-8.097,16.805,-4.366,0.972,1.863,happy
3.80,419,3058,2661,1845,2627,0,2843,3536,1604,0,0,908,2218,1672,13,485,1.379,3.144,9.321,0.523,-0.224,-0.257,4.554,-8.861,16.125,-4.366,1.479,2.669,happy
3.81,717,3243,2926,2348,2824,0,2937,3565,2551,0,0,152,0,0,0,337,1.018,3.759,9.833,0.385,-0.024,-0.035,1.384,-9.103,8.523,-4.366,2.775,3.445,happy
3.82,958,3417,3127,2473,2995,0,3023,3570,1559,2603,0,2550,2661,1851,1693,3151,0.994,3.280,9.567,0.167,0.023,0.010,-3.045,-2.595,19.613,-1.154,2.346,4.116,happy
3.83,1067,3503,3249,2797,3084,46,3046,3507,0,0,0,0,0,0,0,485,1.209,3.086,9.378,0.203,0.127,-0.042,-4.424,-8.784,19.613,-0.389,0.100,3.339,happy
3.84,1239,3583,3347,2943,3120,187,3015,3382,0,0,0,0,0,0,0,445,1.279,3.136,9.486,0.221,0.033,-0.056,10.599,1.197,6.517,0.897,-0.831,1.758,happy
3.85,1516,3654,3449,2909,3133,0,2926,3184,0,0,0,0,0,0,0,373,1.147,3.280,9.459,0.227,0.029,-0.027,9.543,-0.153,7.879,1.152,-0.182,-0.747,happy
3.86,1868,3680,3504,3179,3057,0,2692,2714,0,5,0,0,0,0,0,347,1.087,3.230,9.500,0.256,0.086,-0.019,5.669,-1.973,12.244,1.711,-0.428,-1.708,happy
3.87,2154,3651,3553,3200,2905,0,2288,1586,1625,2603,0,2488,2584,1661,1565,3108,1.073,3.474,9.493,0.233,0.119,-0.014,-3.239,-3.014,12.234,3.328,-1.748,-2.125,happy
3.88,2365,3764,3601,3130,2913,0,1969,212,0,0,0,0,0,0,0,225,1.192,3.440,9.323,0.183,0.107,-0.009,-2.952,-2.622,7.587,3.734,-1.705,-1.031,happy
3.89,2545,3775,3633,3355,2838,0,1424,0,0,0,0,0,4,0,0,222,1.051,3.402,9.330,0.188,0.084,-0.001,-1.683,-3.553,8.444,3.830,-1.356,-0.686,happy
3.90,2689,3795,3648,3411,2783,0,879,0,0,0,2,0,0,0,0,213,1.070,3.440,9.261,0.173,0.094,-0.022,1.944,-5.430,10.568,3.986,-1.325,-1.070,happy
3.91,2779,3815,3664,3426,2723,0,631,0,0,0,0,0,0,0,0,197,1.228,3.333,9.232,0.171,0.098,-0.028,3.318,-5.717,10.214,3.997,-1.265,-1.717,happy
3.92,2862,3819,3674,3441,2688,0,471,0,0,0,0,0,0,0,0,149,1.037,3.395,9.357,0.154,0.083,-0.023,3.285,-5.835,10.348,3.859,-1.126,-2.412,happy
3.93,2930,3826,3686,3463,2653,0,369,0,0,0,0,0,0,0,0,123,1.185,3.551,9.285,0.141,0.092,-0.013,3.153,-6.505,11.420,3.766,-0.898,-2.975,happy
3.94,3013,3837,3702,3489,2613,0,348,0,1589,2550,0,2517,2573,1663,1567,3107,1.046,3.373,9.349,0.153,0.067,-0.027,3.206,-6.809,12.189,3.638,-0.592,-3.425,happy
3.95,3121,3856,3723,3511,2453,0,176,0,0,1,0,0,0,0,57,95,0.960,3.433,9.369,0.178,0.047,-0.034,7.575,-10.139,13.111,3.195,-0.048,-4.366,happy
3.96,3216,3843,3776,3522,2239,0,51,0,0,0,0,0,0,0,0,51,1.018,3.491,9.323,0.217,0.021,-0.032,9.203,-12.924,11.966,2.810,0.472,-4.366,happy
3.97,3274,3874,3731,3534,2150,0,10,0,0,0,0,0,0,0,0,44,1.092,3.505,9.321,0.235,0.016,-0.036,9.364,-17.198,11.219,2.272,0.993,-4.366,happy
3.98,3317,3883,3745,3546,2107,0,0,0,0,2678,0,69,0,0,0,3623,1.142,3.591,9.299,0.252,-0.021,-0.043,9.459,-19.613,11.744,1.825,1.498,-4.366,happy
3.99,3387,3883,3742,3549,1979,0,0,0,1591,2586,0,2521,2639,1703,1597,3149,1.142,3.572,9.222,0.288,0.002,-0.037,3.467,-19.613,6.043,2.158,1.761,-4.366,happy
4.00,3305,3779,3633,3325,1744,0,0,0,1589,2549,28,2487,2582,1673,1563,3079,0.941,3.620,9.373,0.353,-0.010,-0.028,-6.519,-18.390,-0.800,0.878,-2.282,-3.139,happy
4.01,3413,3869,3728,3534,1609,0,0,0,1589,2601,0,2488,2580,1657,1563,3103,1.144,3.608,9.369,0.438,-0.015,-0.001,-1.293,-19.613,0.589,0.525,-2.749,-1.882,happy
4.02,3435,3887,3722,3539,1136,0,0,0,1588,2551,0,2486,2579,1663,1549,3087,1.398,3.761,9.337,0.531,0.164,0.023,2.741,-14.559,-0.543,0.714,-0.185,-0.682,happy
4.03,3454,3879,3746,3368,994,0,0,0,1589,2550,0,2488,2571,1657,1563,3102,0.996,3.836,9.120,0.654,0.270,0.063,15.737,-3.766,3.369,-0.734,1.868,-1.582,happy
4.04,3422,3833,3731,3525,717,0,0,0,1587,2551,0,2463,2579,1663,1564,3110,0.898,4.056,9.752,0.823,0.335,0.181,-13.388,7.858,18.651,-2.499,0.370,-2.101,happy
4.05,3326,3698,3670,3455,483,0,0,0,43,2724,0,2719,2623,651,1951,3254,1.001,4.506,9.175,0.954,0.448,0.229,-14.104,-11.214,19.613,-3.823,-0.661,0.758,happy
4.06,3179,3262,3607,3135,0,0,0,0,47,0,0,0,105,0,1704,3852,0.690,4.331,9.045,1.063,0.336,0.200,-19.613,-8.301,19.613,-1.653,0.804,2.175,happy
4.07,2830,2969,3423,2863,0,0,0,0,403,0,0,0,391,0,2534,4078,1.113,4.274,9.153,1.186,0.371,0.186,4.360,-0.038,5.952,-0.561,0.477,0.554,happy
4.08,2623,2759,2914,2621,0,0,0,0,1607,2556,0,2501,2600,1709,1589,3111,1.425,4.276,8.724,1.257,0.694,0.099,7.360,-9.459,16.108,-0.478,0.232,0.376,happy
4.09,2433,2446,2679,2193,0,0,0,0,1608,2547,15,2486,2581,1663,1568,3099,1.216,5.356,8.291,1.507,0.706,-0.298,4.032,-3.548,7.985,-0.488,0.229,0.363,happy
4.10,2299,1865,2003,1592,0,0,0,0,1607,2555,53,2487,2577,1675,1577,3063,0.508,5.265,9.778,1.674,-0.332,-1.532,1.674,-3.306,9.675,-0.486,0.159,0.193,happy
4.11,2090,1243,1071,1466,0,0,0,0,1644,2605,138,2539,2621,1727,1640,3119,3.203,6.316,8.291,1.611,-0.857,-2.711,1.707,-3.603,9.785,-0.453,0.202,0.222,happy
4.12,1906,726,0,935,0,0,0,0,1529,1695,882,795,2799,47,3543,4095,2.052,7.204,8.423,1.439,-1.334,-4.023,1.678,-3.910,9.479,-0.150,0.365,0.111,happy
4.13,1671,327,0,313,0,0,0,0,1819,1617,1748,1290,2661,77,3497,4070,1.037,7.410,7.879,1.275,-1.816,-5.069,1.099,-3.622,9.565,-0.044,0.212,0.033,happy
4.14,1059,0,0,16,0,0,0,0,1955,1427,1891,1531,2677,47,3542,4095,2.579,7.659,7.922,0.772,-2.078,-6.306,0.857,-3.531,9.589,-0.018,0.135,0.015,happy
4.15,174,0,0,0,0,0,0,0,2091,1419,1901,1719,2742,50,3519,4095,0.838,7.118,6.531,-0.073,-2.176,-7.165,1.195,-3.450,9.357,0.008,0.021,-0.018,happy
4.16,0,0,0,0,0,0,0,0,2077,1501,1937,1739,2809,46,3544,4044,0.194,10.058,7.089,-0.471,-3.258,-6.710,1.472,-3.378,9.213,-0.010,0.046,0.002,happy
4.17,0,0,0,0,0,0,0,0,2117,1519,1960,1725,2824,39,3533,4095,4.532,7.590,3.907,-0.495,-4.418,-5.916,1.372,-3.417,9.380,-0.013,0.081,0.026,happy
4.18,0,0,0,0,0,0,0,0,2071,1581,1947,1784,2779,49,3528,4095,4.583,6.577,4.659,-0.064,-4.052,-4.867,1.372,-3.479,9.301,-0.090,0.066,0.001,happy
4.19,0,0,0,0,0,0,0,0,2139,1583,1988,1895,2758,46,3503,4095,0.208,4.870,7.173,0.185,-4.037,-3.913,1.219,-3.510,9.395,-0.064,0.065,0.038,happy
4.20,0,0,0,0,0,0,0,0,2219,1596,1988,1903,2731,47,3487,4095,-1.343,3.338,9.158,0.306,-3.526,-3.117,1.362,-3.579,9.337,-0.071,0.050,0.022,happy
4.21,0,0,0,0,0,0,0,0,2355,1757,1998,1980,2667,51,3431,4095,-4.322,2.595,11.157,0.188,-2.734,-2.530,1.307,-3.543,9.471,-0.066,0.041,0.006,happy
4.22,0,0,0,0,0,0,0,0,2485,1763,2065,2157,2647,72,3363,4095,-5.224,1.298,10.166,0.008,-2.369,-2.543,1.207,-3.649,9.369,-0.035,0.081,0.004,happy
4.23,0,0,0,0,0,0,0,0,2604,1703,2075,2292,2667,50,3254,4095,-4.666,1.410,11.188,-0.218,-1.998,-2.755,1.231,-3.598,9.378,-0.032,0.068,-0.013,happy
4.24,0,0,0,0,0,0,0,0,2711,1741,2101,2451,2665,48,3242,4095,-2.480,1.805,10.329,-0.479,-1.705,-3.029,1.326,-3.555,9.318,-0.047,0.079,0.005,happy
4.25,0,0,0,0,0,0,0,0,2809,1613,2116,2493,2611,47,3172,4095,-2.037,1.973,9.064,-0.583,-1.806,-3.349,1.250,-3.603,9.347,-0.063,0.073,-0.001,happy
4.26,0,0,0,0,0,0,0,0,2873,1651,2124,2617,2590,45,3100,4095,-0.373,2.274,9.230,-0.569,-1.746,-3.506,1.283,-3.596,9.254,-0.070,0.075,0.001,happy
4.27,0,0,0,0,0,0,0,0,2941,1548,2111,2701,2495,41,2975,4095,0.005,2.152,8.796,-0.514,-1.626,-3.505,1.269,-3.622,9.361,-0.051,0.096,-0.003,happy
4.28,0,0,0,0,0,0,0,0,3001,1445,2116,2781,2367,43,2911,4095,1.808,1.961,7.520,-0.270,-1.321,-3.224,1.298,-3.757,9.347,-0.028,0.118,0.002,happy
4.29,0,0,0,0,0,0,0,0,2982,1335,2114,2799,2333,45,2919,4095,4.010,2.509,7.719,0.109,-0.781,-2.520,1.264,-3.704,9.335,-0.018,0.120,0.001,happy
4.30,0,0,0,0,0,0,0,0,3036,1305,2106,2863,2139,47,2887,4095,11.418,-19.613,1.240,-1.196,-3.567,-1.399,1.271,-3.742,9.287,-0.003,0.128,-0.003,happy
4.31,483,0,0,128,0,0,0,0,2959,1191,2119,2903,1891,48,2867,4079,1.415,-0.043,11.732,0.212,-1.712,-0.264,1.109,-3.692,9.357,0.028,0.136,0.010,happy
4.32,1003,1264,1047,875,309,0,0,0,2887,1188,2162,2903,1743,47,2863,4095,2.303,6.177,9.256,-0.430,-0.239,0.061,1.226,-3.496,9.301,0.004,0.133,0.002,happy
4.33,1289,1920,1938,1458,679,0,0,0,2573,1035,2044,2851,1516,0,2734,4054,-0.227,3.189,10.216,-0.371,-0.506,0.024,1.053,-3.668,9.354,0.038,0.134,0.025,happy
4.34,1454,2429,2320,1673,845,0,0,0,1967,1049,1993,2750,971,47,2533,4095,1.635,2.581,8.854,-0.093,-0.237,0.064,1.207,-3.677,9.412,0.042,0.138,0.040,happy
4.35,1455,2703,2503,1795,1042,0,146,336,1634,948,1952,2675,813,47,2421,4095,1.432,2.765,9.811,-0.004,-0.171,0.132,1.111,-3.663,9.400,0.030,0.140,0.041,happy
4.36,1483,2844,2646,1919,1453,0,619,1134,1013,922,1543,2569,215,8,2009,4095,1.219,3.383,9.373,0.076,-0.153,0.096,1.030,-3.701,9.419,0.030,0.154,0.050,happy
4.37,1434,2958,2765,1894,1791,0,970,1555,811,785,1220,2365,2,3,1576,4095,1.252,3.462,9.364,0.043,-0.099,0.071,1.159,-3.984,9.536,0.147,0.234,0.061,happy
4.38,1446,3017,2843,2093,2090,0,1450,1947,645,535,813,2207,3,2,1131,4095,0.946,3.189,9.261,0.051,-0.088,0.074,0.486,-3.864,9.984,0.259,0.321,0.094,happy
4.39,1493,3043,2891,2172,2286,0,1838,2248,343,393,0,1486,0,0,694,4088,1.051,3.278,9.412,0.079,-0.119,0.055,1.259,-3.826,9.673,0.424,0.424,0.081,happy
4.40,1703,3201,2990,2164,2559,0,2254,2551,157,0,0,846,0,0,375,3977,1.123,3.409,9.342,0.108,-0.097,0.046,1.870,-5.195,10.934,0.998,0.849,0.032,happy
4.41,1802,3250,3039,2416,2695,0,2494,2773,30,0,0,496,0,0,236,3860,1.152,3.407,9.488,0.145,-0.079,0.001,3.699,-5.677,10.101,1.518,1.418,0.161,happy
4.42,1958,3303,3095,2534,2873,59,2704,2960,0,0,0,77,0,0,0,3445,1.118,3.438,9.278,0.126,-0.055,-0.014,7.731,-6.237,11.068,1.859,2.097,-0.783,happy
4.43,2095,3376,3166,2413,3059,947,2852,3081,0,0,0,0,0,0,0,2602,1.274,3.242,9.364,0.104,-0.084,-0.015,16.563,-4.180,10.788,1.297,2.023,-3.689,happy
4.44,2225,3413,3203,2658,3159,1407,2928,3171,0,0,0,0,0,0,0,2287,1.245,3.273,9.275,0.135,-0.066,-0.015,11.990,-6.814,9.416,0.957,1.577,-4.366,happy
4.45,2403,3477,3254,2754,3259,1421,2960,3178,0,0,0,0,0,0,0,2059,1.264,3.369,9.294,0.166,-0.060,-0.016,4.432,-9.002,5.598,0.273,2.195,-4.366,happy
4.46,2589,3524,3301,2684,3328,1405,2967,3059,0,0,0,0,0,0,0,1958,1.302,3.309,9.345,0.177,-0.044,-0.009,-1.063,-8.758,8.662,-0.158,1.339,-4.366,happy
4.47,2743,3551,3327,2918,3344,1174,2910,2929,0,0,0,0,0,0,0,1767,1.214,3.484,9.306,0.183,-0.041,-0.012,2.320,-8.028,7.927,-0.370,0.924,-4.366,happy
4.48,2851,3583,3357,2972,3354,835,2830,2544,0,0,0,0,0,0,0,1560,1.199,3.596,9.282,0.188,-0.023,-0.008,1.683,-4.927,8.911,-0.647,0.569,-3.912,happy
4.49,2933,3633,3401,2879,3370,457,2735,1792,0,0,0,0,0,0,0,1419,1.286,3.670,9.249,0.157,-0.017,-0.012,3.687,-3.120,10.764,-0.570,0.077,-3.327,happy
4.50,2982,3643,3421,3060,3362,367,2631,1504,0,0,0,0,0,0,0,1401,1.279,3.654,9.261,0.117,-0.023,-0.013,3.474,-2.478,11.382,-0.331,-0.068,-3.162,happy
4.51,3026,3681,3458,3091,3379,322,2535,1370,0,0,0,0,0,0,0,1303,1.257,3.670,9.242,0.071,-0.017,-0.018,3.333,-1.609,10.530,0.082,-0.408,-2.914,happy
4.52,3070,3697,3486,2949,3386,315,2473,1398,0,0,0,0,0,0,0,1268,1.377,3.598,9.266,0.042,-0.013,-0.018,3.124,-2.373,10.657,0.410,-0.611,-2.869,happy
4.53,3085,3723,3495,3133,3415,277,2365,1535,0,2,0,0,0,0,0,1178,1.305,3.512,9.349,0.059,-0.029,-0.027,3.184,-2.749,10.041,0.448,-0.744,-2.944,happy
4.54,3117,3732,3518,3131,3436,333,2192,1472,0,0,0,0,0,0,0,1051,1.211,3.491,9.294,0.118,-0.059,-0.026,3.160,-4.063,9.055,0.270,-0.808,-3.175,happy
4.55,3138,3741,3532,2957,3447,239,2074,1246,0,0,0,0,0,0,0,919,1.346,3.598,9.263,0.153,-0.059,-0.034,2.674,-6.424,12.069,0.342,-0.762,-3.414,happy
4.56,3138,3751,3533,3107,3440,42,1991,580,0,0,0,0,0,0,0,919,1.501,3.519,9.182,0.225,-0.083,-0.040,2.528,-7.207,12.462,0.506,-0.853,-3.517,happy
4.57,2928,3526,3315,2879,3229,0,1675,0,0,0,15,0,0,0,0,879,1.386,3.649,9.225,0.228,-0.104,-0.057,2.449,-7.685,10.369,0.556,-0.933,-3.677,happy
4.58,3203,3790,3568,2891,3459,0,1728,0,0,0,7,0,0,0,23,851,1.403,3.694,9.175,0.249,-0.084,-0.074,1.623,-8.648,9.079,0.383,-0.843,-3.702,happy
4.59,3184,3695,3506,2983,3365,0,1410,0,0,0,140,0,0,0,0,679,1.501,3.728,9.122,0.268,-0.080,-0.102,0.512,-8.796,8.413,0.225,-0.962,-3.706,happy
4.60,3243,3806,3564,2977,3297,0,1015,0,1587,0,0,0,2115,2167,0,664,1.369,3.742,9.155,0.297,-0.109,-0.119,-1.355,-8.672,7.654,-0.307,-1.443,-3.674,happy
4.61,3088,3792,3376,2915,3088,0,636,0,1623,2632,0,2219,2661,1819,2149,3165,1.425,3.814,9.120,0.307,-0.164,-0.156,-0.960,-10.465,6.637,-0.606,-0.717,-3.438,happy
4.62,3327,3856,3600,2810,2839,0,530,0,1558,2409,0,2163,2591,2055,2200,377,1.432,3.845,9.086,0.346,-0.201,-0.180,-2.516,-10.190,5.760,-0.797,-0.537,-3.162,happy
4.63,3354,3881,3611,2654,2679,0,466,0,1589,2531,0,2495,2584,1668,1573,3099,1.477,3.917,9.131,0.424,-0.172,-0.149,-1.901,-10.116,5.648,-1.267,-0.502,-2.587,happy
4.64,3381,3919,3632,2336,2544,0,368,0,1662,0,0,0,1575,2030,1,443,1.547,4.017,9.024,0.505,-0.057,-0.104,-0.979,-9.311,6.785,-1.488,-0.218,-2.350,happy
4.65,3391,3888,3617,2261,2294,0,214,0,0,0,0,0,0,0,0,344,1.719,4.032,8.789,0.596,-0.054,-0.070,8.085,-1.832,4.441,-3.601,-0.004,-3.388,happy
4.66,3405,3920,3619,2238,2106,0,147,0,1589,2555,0,2493,2591,1688,1575,3111,1.757,4.207,8.660,0.687,0.012,-0.007,-4.085,-1.405,14.547,-1.736,1.804,-2.971,happy
4.67,3446,3940,3635,2045,1887,0,0,0,1591,2567,0,2504,2589,1597,1581,3113,1.609,4.357,8.856,0.801,0.017,0.043,-15.613,4.365,15.464,-1.845,1.107,-0.821,happy
4.68,3449,3915,3623,2091,1868,0,0,0,1592,2569,0,2509,2605,1705,1587,3119,1.822,4.345,8.909,1.019,-0.033,0.056,-19.613,0.608,13.850,-2.309,0.507,0.551,happy
4.69,3472,3888,3599,1904,1681,0,0,0,0,0,0,40,0,0,747,3095,1.417,4.530,8.803,1.370,-0.080,0.136,5.571,-6.457,9.878,-1.689,-0.598,0.438,happy
4.70,3463,3861,3520,1535,1739,0,0,0,0,2553,0,2631,39,0,1244,3526,1.607,3.962,8.964,1.879,-0.090,0.233,13.396,-14.959,12.299,-0.505,0.580,0.184,happy
4.71,3407,3757,3021,1021,1611,0,0,0,37,0,2,57,425,0,2387,3679,1.346,3.658,10.460,2.769,-0.344,0.240,4.343,-2.923,6.919,-0.068,1.648,0.818,happy
4.72,3345,2787,2773,420,1449,0,0,0,1598,2573,12,2503,2717,1699,1587,3125,0.019,3.792,11.049,4.170,-1.240,0.080,3.749,-3.359,8.815,-0.201,1.488,0.715,happy
4.73,2885,2596,1264,0,959,0,0,0,45,525,7,5,1938,0,3159,4095,-0.151,6.261,12.225,5.182,-2.246,-0.220,2.598,-3.033,8.741,-0.233,0.898,0.424,happy
4.74,2042,1821,0,0,290,0,0,0,87,573,0,1,2093,0,3236,4095,6.531,8.351,9.740,5.679,-2.316,-0.945,-0.692,-4.101,13.649,-0.413,0.543,0.184,happy
4.75,1180,458,0,0,16,0,0,0,147,841,0,21,2443,0,3482,4095,3.172,9.601,8.329,5.919,-2.300,-1.231,1.185,-3.527,10.384,0.111,0.280,0.159,happy
4.76,992,0,0,0,70,0,0,0,170,854,2,30,2541,3,3548,4095,1.820,11.586,8.509,5.491,-2.997,-1.316,1.523,-3.500,9.378,0.072,0.223,0.080,happy
4.77,522,0,0,0,0,0,0,0,153,1048,2,57,2665,2,3631,4095,2.229,14.389,10.903,4.291,-3.228,-1.608,1.666,-3.479,10.003,0.151,0.234,0.084,happy
4.78,0,0,0,0,0,0,0,0,175,953,53,57,2681,3,3555,4085,4.542,15.972,10.307,1.966,-1.715,-2.035,1.951,-3.302,9.759,0.108,0.136,0.003,happy
4.79,0,0,0,0,0,0,0,0,211,997,25,44,2826,25,3736,4095,7.640,8.789,11.279,-0.089,0.295,-2.944,2.049,-2.792,9.675,0.022,0.052,-0.094,happy
4.80,0,0,0,0,0,0,0,0,167,887,48,71,2890,1,3737,4095,-12.560,10.508,19.613,-4.929,-0.384,-2.709,2.066,-3.326,10.132,0.079,0.073,-0.047,happy
4.81,0,0,0,0,0,0,0,0,121,953,0,87,2957,0,3767,4095,-1.226,-0.687,1.195,-3.401,-1.019,-3.414,2.028,-2.909,9.069,0.014,0.234,0.116,happy
4.82,0,0,0,0,0,0,0,0,169,1015,23,181,3017,5,3770,4095,0.002,0.163,2.873,-2.722,-1.502,-3.468,1.937,-2.976,9.412,-0.018,0.264,0.083,happy
4.83,0,0,0,0,0,0,0,0,140,1016,2,251,2965,1,3701,4095,4.391,2.859,5.758,-2.828,-1.611,-3.177,1.561,-3.010,9.448,-0.029,0.246,0.092,happy
4.84,0,0,0,0,0,0,0,0,159,1081,2,331,2935,4,3621,4014,4.973,3.510,8.851,-3.481,-1.005,-2.832,1.499,-2.859,9.761,-0.031,0.214,0.055,happy
4.85,0,0,0,0,0,0,0,0,157,1129,1256,499,2837,39,3516,3951,3.369,2.512,6.869,-3.799,-0.933,-2.275,1.441,-3.060,9.512,-0.087,0.117,0.047,happy
4.86,0,0,0,0,0,0,0,0,173,1171,1494,668,3013,39,3675,4095,1.257,2.030,5.315,-3.629,-1.728,-1.411,1.525,-3.072,9.445,-0.060,0.090,0.042,happy
4.87,0,0,0,0,0,0,0,0,183,1179,1620,747,2809,94,3309,3646,0.893,3.304,7.324,-3.500,-2.194,-0.520,1.623,-3.057,9.436,-0.065,0.079,0.097,happy
4.88,0,0,0,0,0,0,0,0,1613,2553,1353,2491,2441,1676,1579,3109,-3.033,4.120,9.936,-3.613,-2.207,-0.181,1.532,-3.158,9.452,-0.070,0.124,0.073,happy
4.89,0,0,0,0,0,0,0,0,173,1305,1794,1039,2855,36,3301,3640,-2.401,4.717,10.427,-3.686,-1.939,-0.237,1.571,-3.249,9.287,-0.059,0.047,0.067,happy
4.90,0,0,0,0,0,0,0,0,233,1611,2039,1357,3253,39,3757,4095,-2.526,5.239,10.681,-3.543,-1.869,-0.213,1.468,-3.184,9.622,-0.053,0.053,0.100,happy
4.91,0,0,0,0,0,0,0,0,204,1823,2027,1593,3205,44,3608,3918,-1.652,6.065,12.536,-3.408,-1.879,0.185,1.410,-3.139,9.388,-0.084,0.044,0.114,happy
4.92,0,0,0,0,0,0,0,0,279,1989,2096,1691,3293,45,3688,4049,-2.619,5.334,12.816,-3.177,-1.245,0.603,1.403,-3.251,9.455,-0.083,0.046,0.104,happy
4.93,0,0,0,0,0,0,0,0,342,2201,2147,1877,3352,49,3695,4059,-2.485,5.528,11.210,-2.509,-1.050,0.756,1.499,-3.237,9.433,-0.060,0.053,0.101,happy
4.94,0,0,0,0,0,0,0,0,415,2215,2116,2099,3385,47,3655,4027,-1.365,7.535,12.543,-1.556,-0.851,0.766,1.346,-3.203,9.376,-0.070,0.064,0.127,happy
4.95,0,0,0,0,0,0,0,0,462,2233,2175,2206,3547,53,3609,4019,-0.785,14.909,19.613,-1.787,-0.155,0.542,1.381,-3.247,9.383,-0.078,0.062,0.132,happy
4.96,0,0,0,0,0,0,0,0,495,2379,2198,2275,3435,46,3532,3996,-3.201,17.296,16.163,-2.927,-0.276,0.425,1.381,-3.333,9.445,-0.072,0.056,0.143,happy
4.97,0,0,0,0,0,0,0,0,682,2375,2203,2419,3463,47,3388,3934,-3.452,17.549,2.234,-3.205,-0.718,0.141,1.501,-3.426,9.397,-0.061,0.089,0.132,happy
4.98,0,0,0,0,0,0,0,0,814,2451,2218,2543,3454,50,3221,3910,-3.733,17.624,-8.466,-1.932,-1.564,0.234,1.437,-3.302,9.299,-0.079,0.077,0.117,happy
4.99,0,0,0,0,0,0,0,0,1235,2555,2221,2743,3453,46,2717,3819,-3.036,14.056,-10.702,0.796,0.185,0.669,1.381,-3.371,9.445,-0.096,0.107,0.113,happy
5.00,0,0,0,0,0,0,0,0,1734,2623,2198,2901,3487,48,2479,3647,7.403,2.456,19.613,-0.003,1.088,-1.407,1.453,-3.467,9.553,-0.094,0.149,0.098,happy
5.01,0,0,0,0,0,0,0,400,2029,2683,2234,2965,3375,50,2229,3501,8.056,-1.384,0.678,0.789,-0.350,-0.131,1.398,-3.364,9.273,-0.154,0.144,0.092,happy
5.02,0,0,0,0,275,0,494,2283,2548,2717,2239,3131,2825,3,1349,2531,6.979,1.281,9.957,1.366,0.858,-0.317,1.422,-3.189,9.491,-0.243,0.165,0.068,happy
5.03,0,0,0,0,704,0,831,3063,2872,2663,2265,3237,2343,44,267,1958,-2.308,2.758,11.456,1.957,0.716,0.011,1.101,-4.111,9.110,-0.311,0.233,0.092,happy
5.04,0,0,0,0,962,0,1601,3344,3019,2537,2247,3308,1579,3,3,1380,-1.623,4.154,13.898,1.662,0.282,0.110,1.156,1.144,10.077,-0.618,0.306,0.057,happy
5.05,0,281,0,0,1280,0,2155,3473,3323,2441,2262,3429,570,20,2,1368,3.812,7.523,14.748,0.920,0.505,-0.036,0.946,-3.227,8.926,-1.048,0.367,-0.226,happy
5.06,0,656,0,0,1718,0,2393,3536,3475,1907,2277,3537,0,0,0,1049,0.091,2.363,11.085,0.492,0.661,-0.034,1.539,-2.804,9.567,-1.768,0.486,-0.525,happy
5.07,0,1053,0,0,1892,0,2550,3539,3531,1591,2331,3541,0,1,0,943,1.745,2.514,9.629,0.407,0.378,-0.080,1.966,-3.086,9.776,-2.333,0.770,-0.637,happy
5.08,0,1356,0,0,2111,0,2661,3570,3639,684,2336,3403,0,0,10,777,1.446,2.184,9.407,0.425,0.363,-0.281,1.925,-2.854,12.134,-3.234,1.581,-0.304,happy
5.09,0,1772,0,0,2299,0,2793,3641,3543,27,1218,2699,0,9,0,603,1.372,2.638,9.637,0.427,0.261,-0.406,0.393,-4.398,16.807,-4.366,1.859,1.147,happy
5.10,0,2171,0,0,2477,0,2901,3661,3437,0,0,2215,0,0,0,505,0.747,2.602,10.613,0.461,0.248,-0.167,2.186,-5.942,13.939,-4.366,1.960,2.258,happy
5.11,0,2475,0,0,2672,0,3022,3692,2937,0,0,633,0,0,0,429,0.692,3.338,10.530,0.371,0.107,-0.071,2.533,-8.964,12.730,-4.366,2.423,3.540,happy
5.12,0,2624,0,0,2748,0,3090,3699,1377,0,0,124,0,0,0,399,1.247,3.067,9.967,0.284,0.131,-0.089,1.551,-10.451,10.230,-3.869,2.410,3.579,happy
5.13,0,2719,0,0,2778,0,3152,3715,24,0,0,0,0,0,0,300,0.922,3.077,10.082,0.217,0.189,-0.108,-0.939,-5.586,16.412,-1.736,2.494,3.185,happy
5.14,80,2790,16,0,2871,0,3197,3714,0,0,110,0,0,0,0,463,1.314,2.919,9.589,0.139,0.110,-0.145,11.001,-0.584,19.613,0.303,1.566,2.415,happy
5.15,155,2838,159,0,2899,0,3225,3719,0,0,0,0,0,0,0,501,1.434,2.574,9.443,0.182,0.131,-0.180,14.181,-0.077,13.752,0.541,-0.127,0.115,happy
5.16,208,2890,281,0,2949,0,3245,3723,0,0,0,0,0,0,0,475,1.504,2.684,9.440,0.220,0.073,-0.176,8.420,0.958,6.160,0.872,0.564,-0.609,happy
5.17,336,2941,502,0,2991,0,3251,3715,0,0,0,0,0,0,0,457,1.314,2.758,9.438,0.223,0.051,-0.175,4.168,0.967,7.834,0.981,0.230,-1.040,happy
5.18,469,2992,798,0,3024,0,3259,3718,1399,3,0,47,2612,2059,1991,371,1.161,2.808,9.594,0.229,0.064,-0.147,2.722,-0.062,9.991,1.266,-0.399,-1.255,happy
5.19,554,3090,1219,0,3083,0,3259,3705,1589,2551,0,2488,2581,1661,1565,3167,1.396,2.763,9.294,0.276,0.114,-0.146,-0.194,-0.893,11.337,2.575,-0.757,-0.996,happy
5.20,707,3151,1753,240,3105,0,3217,3663,0,0,0,0,0,0,0,380,1.120,2.823,9.397,0.351,0.040,-0.162,-1.659,-0.740,9.306,3.012,-1.013,-0.563,happy
5.21,785,3249,2196,567,3135,0,3185,3628,0,0,0,0,0,0,0,338,1.053,3.144,9.491,0.364,0.006,-0.150,0.089,-1.484,8.042,3.232,-1.368,0.036,happy
5.22,894,3311,2430,706,3161,0,3168,3603,0,0,0,0,0,0,0,351,1.020,3.206,9.534,0.339,0.020,-0.141,0.881,-2.373,9.598,3.364,-1.502,0.034,happy
5.23,997,3351,2605,933,3171,0,3143,3583,0,0,0,0,0,0,1,284,0.972,3.235,9.450,0.265,-0.015,-0.120,1.228,-3.103,10.800,3.552,-1.707,-0.151,happy
5.24,1114,3430,2799,1341,3183,0,3115,3551,0,0,58,9,0,0,0,265,1.085,3.201,9.357,0.250,-0.037,-0.119,1.298,-4.063,11.260,3.663,-1.998,-0.688,happy
5.25,1266,3489,2775,1701,3216,0,3045,3483,0,0,0,0,0,0,0,231,1.039,3.481,9.493,0.171,-0.049,-0.038,1.128,-4.219,12.024,3.572,-2.064,-0.964,happy
5.26,1344,3534,3064,2058,3223,0,3057,3455,0,0,0,0,0,0,0,253,1.140,3.565,9.572,0.087,0.001,-0.017,1.678,-5.432,14.686,3.476,-1.930,-1.504,happy
5.27,1367,3610,3166,2197,3248,0,3024,3422,0,0,0,0,0,0,0,213,1.195,3.172,9.297,0.051,-0.001,-0.037,0.170,-6.618,16.360,3.149,-1.725,-2.077,happy
5.28,1381,3641,3250,2405,3260,0,2947,3247,0,0,0,0,0,0,0,171,1.137,3.093,9.182,0.108,-0.009,-0.025,-0.467,-8.516,17.121,2.951,-1.750,-2.360,happy
5.29,1442,3674,3342,2554,3272,0,2854,3184,0,0,0,0,0,0,0,149,1.120,3.201,9.347,0.046,0.033,-0.022,-1.877,-19.613,12.328,2.613,-1.172,-2.913,happy
5.30,1519,3731,3414,2526,3248,0,2711,2939,0,0,0,0,0,0,0,141,1.118,3.139,9.352,0.044,0.038,-0.016,-12.996,-19.546,6.826,2.485,-0.825,-1.770,happy
5.31,1586,3754,3478,2819,3233,0,2448,2397,0,0,0,0,0,0,0,163,1.061,3.129,9.481,0.011,0.031,-0.018,-12.038,-19.613,-1.468,1.710,-1.617,-1.060,happy
5.32,1678,3792,3536,2922,3207,0,2069,1328,0,0,0,0,0,0,0,180,1.250,3.218,9.392,0.018,0.050,-0.026,-10.398,-19.613,-8.978,-0.907,0.032,-0.127,happy
5.33,1796,3827,3581,3030,3111,0,1531,0,0,0,0,0,0,0,0,714,1.305,3.014,9.364,0.113,0.117,-0.037,-0.462,-0.441,19.613,-0.428,1.928,1.138,happy
5.34,1803,3825,3583,3099,2502,0,602,0,0,0,0,0,0,0,0,1571,1.377,3.201,9.711,0.287,0.217,-0.037,3.989,9.936,15.814,-2.194,-1.396,0.372,happy
5.35,1922,3873,3649,3183,2160,0,144,0,0,0,0,0,0,0,0,2149,1.063,3.388,9.618,0.525,0.159,-0.019,12.119,-2.435,-1.125,-2.722,-0.572,-0.036,happy
5.36,2036,3868,3666,3229,1728,0,0,0,1591,2553,0,2492,2583,1673,1573,3111,0.390,4.345,10.496,0.985,0.034,0.169,-5.145,-3.151,14.966,-2.024,-0.268,0.230,happy
5.37,2213,3851,3678,3098,1075,0,0,0,0,0,0,0,0,0,1173,3339,1.077,3.196,9.625,1.364,0.212,0.315,5.734,-5.432,10.458,-1.722,-0.076,0.281,happy
5.38,2422,3792,3647,3249,946,0,0,0,0,0,0,0,0,0,1275,3529,1.676,2.686,9.586,1.865,0.483,0.491,7.199,-9.780,13.398,-1.185,1.098,0.323,happy
5.39,2559,3694,3639,3181,485,0,0,0,0,0,0,0,0,0,1689,3645,1.607,3.026,9.670,2.206,0.675,0.597,0.737,-3.299,10.173,-0.755,1.324,0.579,happy
5.40,2678,3215,3573,2918,112,0,0,0,0,0,0,0,157,0,1979,3731,2.849,3.711,9.811,2.627,0.735,0.617,1.209,-3.893,11.056,-0.654,1.143,0.575,happy
5.41,2805,2605,3311,2288,0,0,0,0,0,0,0,342,645,0,2365,3948,4.106,4.863,11.665,3.198,1.129,0.350,1.700,-3.512,9.857,-0.452,0.392,0.359,happy
5.42,2846,1696,2185,1570,0,0,0,0,25,474,0,649,883,0,2629,4066,0.613,3.859,7.872,4.523,0.383,-0.771,1.113,-3.622,9.747,-0.230,0.115,0.263,happy
5.43,2064,1078,304,983,0,0,0,0,26,568,0,872,1031,1,2773,4095,1.781,6.302,13.570,6.024,-0.592,-1.854,1.178,-3.479,10.118,-0.113,0.138,0.239,happy
5.44,1088,219,0,81,0,0,0,0,90,469,952,1261,1433,24,3129,4095,1.487,7.429,11.430,5.485,0.241,-2.577,1.259,-3.287,9.634,-0.032,-0.005,0.089,happy
5.45,0,0,0,0,0,0,0,0,149,717,1238,1439,1865,37,3353,4095,4.676,2.588,19.613,1.032,0.583,-2.965,1.369,-3.079,9.328,-0.031,-0.046,0.040,happy
5.46,0,0,0,0,0,0,0,0,171,755,1338,1479,2102,39,3439,4095,6.196,-2.184,13.575,-0.433,0.382,-1.752,1.535,-3.093,9.486,-0.020,-0.017,0.067,happy
5.47,0,0,0,0,0,0,0,0,219,809,1620,1583,2347,43,3559,4095,4.480,-1.250,8.078,-0.757,-0.301,-1.063,1.441,-3.182,9.505,0.003,-0.004,0.071,happy
5.48,0,0,0,0,0,0,0,0,229,965,1911,1669,2531,43,3609,4095,6.828,0.230,9.831,-1.448,-0.845,-0.349,1.247,-3.091,9.541,-0.002,0.052,0.040,happy
5.49,0,0,0,0,0,0,0,0,227,1010,1945,1707,2617,47,3621,4095,4.219,0.668,9.538,-2.259,-0.679,0.478,1.367,-3.280,9.376,-0.020,0.024,0.024,happy
5.50,0,0,0,0,0,0,0,0,229,1257,2024,1820,2735,43,3625,4095,2.126,0.608,7.975,-2.603,-0.939,0.946,1.334,-3.194,9.498,-0.030,0.027,0.066,happy
5.51,0,0,0,0,0,0,0,0,176,1355,2065,1874,2857,12,3613,4095,0.352,1.863,9.369,-2.917,-1.289,1.105,1.243,-3.122,9.294,-0.075,0.011,0.096,happy
5.52,0,0,0,0,0,0,0,0,220,1463,2060,1912,2918,42,3595,4095,-0.745,3.201,10.968,-3.187,-1.624,1.081,1.379,-3.033,9.596,-0.134,-0.029,0.101,happy
5.53,0,0,0,0,0,0,0,0,379,1628,2075,2003,3041,50,3609,4095,-0.678,4.901,12.153,-3.485,-1.748,1.004,1.348,-3.060,8.681,-0.123,-0.004,0.113,happy
5.54,0,0,0,0,0,0,0,0,509,2027,2229,2239,3162,51,3607,4095,0.077,5.686,12.170,-3.458,-1.591,1.067,1.214,-3.254,9.833,-0.145,-0.006,0.136,happy
5.55,0,0,0,0,0,0,0,0,543,2167,2157,2335,3211,48,3608,4091,1.269,6.601,11.837,-3.077,-1.202,1.312,1.317,-3.311,9.400,-0.100,0.038,0.139,happy
5.56,0,0,0,0,0,0,0,0,664,2330,2183,2492,3275,11,3573,4053,1.267,7.939,12.265,-2.452,-1.241,1.833,1.281,-3.440,9.395,-0.090,0.067,0.139,happy
5.57,0,0,0,0,0,0,0,0,1092,2469,2149,2637,3321,50,3491,4013,0.855,11.198,13.750,-1.756,-1.272,2.061,1.642,-2.923,8.540,-0.075,0.098,0.129,happy
5.58,0,0,0,0,0,0,0,0,1373,2495,2203,2715,3345,55,3415,3992,1.949,17.686,19.613,-2.331,-0.402,2.035,1.369,-3.335,9.357,-0.121,0.019,0.115,happy
5.59,0,0,0,0,0,0,0,0,2005,2659,2218,2886,3399,31,3079,3927,-3.809,15.397,14.133,-3.518,0.048,1.745,1.298,-3.476,9.471,-0.134,-0.022,0.082,happy
5.60,0,0,0,0,0,0,0,0,2636,2782,2201,3002,3431,47,2551,3724,-7.501,14.123,2.373,-3.043,-1.498,0.918,1.453,-3.563,9.493,-0.141,0.030,0.078,happy
5.61,0,0,0,0,0,0,0,0,2814,2812,2190,3003,3371,49,2207,3531,-4.360,19.099,-4.803,-2.030,-1.847,0.290,1.487,-3.563,9.467,-0.151,0.078,0.081,happy
5.62,0,0,0,0,0,0,0,0,3205,2915,2216,3179,3340,33,1545,3111,-1.458,11.406,-7.001,0.052,0.327,-0.391,1.413,-3.709,9.342,-0.151,0.141,0.049,happy
5.63,0,0,0,0,0,0,0,0,3448,2907,2367,3275,2812,45,877,2275,0.532,8.657,2.662,1.320,-0.522,-0.753,1.391,-3.850,9.141,-0.171,0.204,0.046,happy
5.64,0,0,0,0,58,0,0,0,3569,2893,2231,3374,2611,45,573,2024,6.237,0.764,16.125,0.508,0.323,-0.662,1.329,-3.608,9.182,-0.218,0.215,0.044,happy
5.65,0,0,0,0,233,0,289,1184,3750,2657,2393,3493,1842,0,2,1572,4.125,-2.447,4.434,1.667,-0.118,-0.407,1.302,-1.954,10.230,-0.620,0.342,-0.087,happy
5.66,0,0,0,0,469,0,784,2499,3885,2585,2201,3619,814,6,1,1439,4.465,4.776,12.752,2.297,-0.277,-0.399,1.360,-3.139,9.103,-0.650,0.230,-0.194,happy
5.67,0,26,0,0,865,0,1757,2957,3933,2568,2259,3692,471,6,4,1277,6.299,2.385,14.128,1.676,-0.261,-0.213,1.374,-3.371,8.914,-0.797,0.225,-0.254,happy
5.68,0,723,0,0,1015,0,2219,3207,3991,2201,2277,3756,23,0,0,942,2.931,3.440,10.027,0.936,1.727,-0.349,2.025,-2.964,10.142,-1.570,0.482,-0.532,happy
5.69,0,1104,0,0,1584,0,2506,3254,4072,1453,2410,3747,0,1,0,683,0.922,3.891,12.898,0.623,1.084,-0.359,2.763,-3.148,11.188,-2.756,1.029,-0.579,happy
5.70,0,1509,0,0,1833,0,2693,3347,4089,1011,2321,3673,0,2,0,727,2.761,2.507,9.694,0.387,1.010,-0.371,2.251,-3.002,9.392,-3.248,1.492,-0.332,happy
5.71,0,1770,0,0,2199,0,2823,3433,4061,18,1748,3017,0,0,62,601,2.509,2.466,9.275,0.356,1.067,-0.401,0.668,-5.507,14.083,-4.366,1.988,1.204,happy
5.72,0,2036,0,0,2438,0,2951,3513,3560,0,0,1493,0,0,58,499,1.599,2.583,9.890,0.320,0.935,-0.486,0.390,-8.789,17.992,-4.366,1.755,3.182,happy
5.73,0,2395,0,0,2636,0,3056,3554,1598,2552,0,2431,2581,1663,1568,3109,1.396,2.761,10.025,0.329,0.743,-0.420,3.967,-9.708,15.586,-4.366,2.005,4.065,happy
5.74,0,2688,27,0,2801,0,3159,3583,1573,2548,0,2487,2600,1659,1563,3101,1.183,3.055,10.388,0.309,0.649,-0.235,-3.433,-10.154,11.897,-3.306,2.012,3.804,happy
5.75,0,2864,432,0,3025,0,3239,3613,39,0,0,0,0,0,0,413,1.365,2.880,9.761,0.221,0.317,-0.138,10.527,-6.412,19.613,0.416,-0.415,1.109,happy
5.76,0,2941,756,0,3100,0,3252,3583,69,0,0,0,0,0,0,453,1.494,2.808,9.589,0.205,0.196,-0.106,10.592,0.517,6.835,0.831,0.541,0.234,happy
5.77,0,2992,1086,0,3184,0,3260,3502,31,0,0,0,0,0,0,501,1.302,2.689,9.529,0.220,0.126,-0.115,5.121,0.694,7.151,0.910,0.194,-0.376,happy
5.78,0,3034,1430,0,3250,0,3280,3536,0,0,0,0,3,0,38,487,1.463,2.863,9.740,0.218,0.062,-0.095,4.726,-1.075,8.971,1.195,-0.426,-0.921,happy
5.79,0,3113,1691,0,3311,0,3280,3500,0,0,0,0,0,0,0,392,1.336,2.727,9.546,0.252,0.026,-0.108,4.915,-1.575,10.946,1.793,-0.542,-1.277,happy
5.80,0,3139,1922,0,3341,0,3255,3408,0,0,0,0,0,0,0,405,1.381,2.696,9.548,0.292,-0.003,-0.107,2.528,-1.346,10.688,2.478,-0.669,-1.499,happy
5.81,0,3198,2095,0,3375,0,3234,3307,0,2533,0,2696,8,0,28,3515,1.480,2.708,9.481,0.320,0.015,-0.107,-0.077,-1.085,9.151,2.935,-0.988,-1.436,happy
5.82,0,3303,2443,304,3408,0,3183,3019,0,0,0,0,0,0,0,355,1.384,2.622,9.416,0.349,-0.008,-0.119,-0.644,-1.738,8.595,3.177,-1.361,-1.232,happy
5.83,128,3391,2709,524,3440,0,3126,2791,0,0,0,0,0,0,0,447,1.290,3.069,9.538,0.383,-0.041,-0.108,-0.292,-2.806,8.871,3.525,-1.488,-0.773,happy
5.84,336,3509,2862,647,3494,0,3086,2721,0,0,56,11,0,0,0,334,1.391,3.091,9.483,0.306,-0.049,-0.099,0.345,-4.259,10.372,3.742,-1.802,-0.670,happy
5.85,527,3567,2971,975,3497,0,3023,2614,0,9,0,0,0,0,0,275,1.448,3.077,9.345,0.305,-0.020,-0.120,0.445,-4.709,10.592,3.807,-1.884,-0.804,happy
5.86,661,3632,3085,1301,3523,0,2960,2454,0,0,0,0,0,0,0,228,1.405,3.539,9.546,0.268,-0.040,-0.108,-0.467,-5.160,11.858,3.704,-2.100,-0.977,happy
5.87,782,3700,3209,1499,3568,0,2909,2306,0,0,0,0,0,0,0,294,1.355,3.421,9.498,0.226,-0.041,-0.076,-0.965,-6.294,14.947,3.652,-2.085,-0.951,happy
5.88,870,3733,3267,1808,3575,0,2790,2108,0,0,0,0,0,0,0,207,1.420,3.299,9.325,0.207,-0.020,-0.101,-2.567,-6.608,15.069,3.382,-2.331,-0.900,happy
5.89,1003,3760,3331,2025,3600,0,2704,1789,0,0,0,0,0,0,0,181,1.386,3.426,9.388,0.239,-0.027,-0.111,-2.454,-10.613,17.710,3.283,-2.374,-0.694,happy
5.90,1190,3792,3392,2000,3611,0,2539,1323,0,0,0,0,0,0,0,143,1.417,3.326,9.335,0.267,-0.037,-0.090,-4.633,-13.795,14.155,2.783,-2.702,-0.915,happy
5.91,1309,3815,3387,2314,3583,0,2301,0,0,0,0,0,0,0,0,121,1.401,3.328,9.201,0.299,-0.034,-0.095,-3.242,-16.831,11.430,2.466,-2.072,-0.979,happy
5.92,1498,3839,3488,2428,3558,0,1929,0,1588,2551,0,2508,2579,1660,1547,3099,1.549,3.594,9.316,0.310,-0.033,-0.073,-11.140,-18.577,1.279,2.175,-1.104,-0.713,happy
5.93,1699,3877,3536,2354,3500,0,1519,0,1589,2549,0,2507,2583,1663,1567,3103,1.539,3.486,9.287,0.345,-0.002,-0.071,-6.663,-18.301,-8.157,-0.102,0.256,-0.353,happy
5.94,1923,3889,3568,2626,3287,0,620,0,1589,2547,0,2487,2579,1660,1565,3101,1.398,3.701,9.493,0.434,0.014,-0.116,-5.483,-17.169,-3.505,-1.263,1.490,-0.410,happy
5.95,2159,3914,3616,2736,2595,0,385,0,0,0,0,0,0,0,0,269,1.760,2.397,8.782,0.658,0.037,-0.077,4.274,-4.010,17.803,0.086,1.611,-0.736,happy
5.96,2333,3910,3634,2793,2320,0,336,0,0,0,0,0,0,0,0,715,1.719,3.297,8.935,0.869,-0.002,0.018,1.468,5.399,7.173,-1.369,0.708,-0.788,happy
5.97,2490,3931,3663,2843,1991,0,240,0,0,0,0,0,0,0,0,1391,1.587,3.766,9.222,0.973,0.002,0.042,-2.672,0.831,5.428,-2.166,0.714,-0.130,happy
5.98,2607,3921,3661,2870,1914,0,135,0,0,0,0,0,0,0,0,1977,1.427,4.061,9.210,1.076,0.027,0.039,-7.362,-4.578,15.651,-1.912,0.472,0.007,happy
5.99,2732,3927,3666,2888,1666,0,0,0,0,0,0,0,0,0,127,2571,1.422,3.893,9.282,1.166,0.052,0.068,-8.162,-1.872,13.578,-1.891,-0.261,0.229,happy
6.00,2911,3930,3694,2721,1340,0,0,0,0,0,0,0,0,0,805,3275,1.501,3.503,9.000,1.622,0.261,0.180,3.639,-5.404,11.593,-1.996,-1.019,0.042,happy
6.01,2995,3920,3686,2698,1203,0,0,0,0,0,0,0,0,0,1263,3481,1.432,3.431,9.177,1.865,0.284,0.237,8.365,-2.444,12.632,-1.662,-0.867,0.212,happy
6.02,3090,3836,3605,2477,951,0,0,0,0,0,0,0,0,0,1691,3629,2.136,3.457,9.115,2.641,0.335,0.408,8.892,-7.271,6.845,-0.897,0.683,0.234,happy
6.03,3122,3743,3511,2262,965,0,0,0,0,0,35,0,47,0,2007,3784,1.760,4.616,9.644,3.089,0.250,0.255,-0.019,-3.421,10.862,-0.446,1.405,0.549,happy
6.04,2982,2715,2726,1763,704,0,0,0,0,0,0,17,567,0,2521,3980,-1.640,2.761,14.013,4.265,-0.450,0.205,1.039,-3.043,10.094,-0.410,0.981,0.465,happy
6.05,2239,2321,1954,555,0,0,0,0,0,11,0,261,1103,0,2851,4057,0.575,6.021,15.230,6.140,-2.067,-0.600,1.935,-3.323,9.574,-0.377,0.368,0.299,happy
6.06,1296,976,0,0,0,0,0,0,0,535,0,428,1373,28,2991,4095,3.637,10.731,12.864,7.034,-1.648,-1.380,1.408,-3.749,10.288,-0.205,0.283,0.267,happy
6.07,0,0,0,0,0,0,0,0,21,607,17,718,2021,0,3189,4095,3.285,11.389,12.524,4.470,-1.175,-1.192,1.561,-3.273,9.601,0.006,0.214,0.202,happy
6.08,0,0,0,0,0,0,0,0,85,573,765,867,2205,22,3343,4095,10.590,9.120,15.311,1.325,0.143,-2.029,1.180,-3.323,9.938,-0.028,0.104,0.125,happy
6.09,0,0,0,0,0,0,0,0,103,603,1241,951,2403,26,3427,4095,8.581,8.255,16.357,0.295,1.950,-1.119,1.568,-3.103,9.953,-0.001,0.105,0.031,happy
6.10,0,0,0,0,0,0,0,0,127,671,1251,1049,2472,33,3532,4095,2.035,-5.095,11.892,-0.975,1.633,-1.240,1.446,-3.328,9.895,0.032,0.077,0.017,happy
6.11,0,0,0,0,0,0,0,0,112,633,1266,1111,2648,30,3635,4095,1.674,-1.595,9.414,-1.261,0.486,-1.577,1.413,-2.976,9.359,0.092,0.059,0.042,happy
6.12,0,0,0,0,0,0,0,0,103,536,1251,1106,2637,28,3645,4095,5.052,0.105,9.481,-1.636,0.021,-1.496,1.453,-3.017,9.586,0.087,0.080,0.036,happy
6.13,0,0,0,0,0,0,0,0,102,435,1246,1043,2596,28,3648,4095,6.517,0.098,10.077,-2.341,0.135,-1.143,1.494,-3.100,9.582,0.062,0.099,0.046,happy
6.14,0,0,0,0,0,0,0,0,101,407,1264,1020,2575,27,3630,4095,5.868,0.740,9.455,-2.863,0.426,-0.605,1.341,-2.895,9.541,0.026,0.080,0.045,happy
6.15,0,0,0,0,0,0,0,0,111,469,1361,1069,2555,27,3609,4095,3.196,1.152,8.243,-3.309,0.202,-0.284,1.295,-2.646,9.249,-0.053,0.055,0.060,happy
6.16,0,0,0,0,0,0,0,0,131,441,1415,1177,2587,37,3607,4095,1.911,1.580,7.144,-3.472,-0.183,-0.115,1.312,-3.024,9.421,-0.061,0.027,0.109,happy
6.17,0,0,0,0,0,0,0,0,154,543,1446,1335,2643,37,3602,4095,2.854,3.247,8.574,-3.656,-0.518,-0.062,1.051,-2.739,9.361,-0.110,0.045,0.142,happy
6.18,0,0,0,0,0,0,0,0,197,917,1945,1519,2745,47,3606,4095,1.427,4.468,10.331,-4.053,-0.674,0.002,1.899,-3.282,9.400,-0.123,0.044,0.185,happy
6.19,0,0,0,0,0,0,0,0,263,1055,2098,1719,2873,45,3623,4095,1.894,5.478,9.663,-4.193,-1.111,0.031,1.094,-3.010,9.529,-0.162,0.036,0.192,happy
6.20,0,0,0,0,0,0,0,0,292,1264,2070,1718,2933,47,3641,4095,3.357,6.479,11.552,-3.976,-1.231,0.426,1.721,-3.316,8.684,-0.158,0.048,0.190,happy
6.21,0,0,0,0,0,0,0,0,371,1395,2085,2025,3049,60,3639,4095,3.448,7.408,13.103,-3.908,-1.095,1.148,0.857,-3.215,9.692,-0.143,0.053,0.178,happy
6.22,0,0,0,0,0,0,0,0,594,1781,2157,2343,3180,50,3607,4006,1.168,8.009,14.260,-3.617,-0.978,1.576,0.177,-2.631,9.194,-0.197,0.038,0.174,happy
6.23,0,0,0,0,0,0,0,0,734,2045,2175,2469,3224,61,3608,4095,-0.764,9.955,15.701,-2.990,-1.253,1.533,1.180,-3.347,9.550,-0.137,0.041,0.148,happy
6.24,0,0,0,0,0,0,0,0,1322,2205,2190,2681,3303,51,3357,4071,-0.876,14.420,17.583,-2.996,-0.945,1.270,1.243,-3.268,9.474,-0.151,0.029,0.115,happy
6.25,0,0,0,0,0,0,0,0,1971,2471,2208,2840,3340,39,2941,3992,-1.839,15.680,13.621,-2.922,-0.636,0.982,1.226,-3.354,9.419,-0.162,-0.006,0.080,happy
6.26,0,0,0,0,0,0,0,0,2291,2543,2208,2907,3369,47,2573,3923,-6.946,19.405,6.744,-2.857,-1.656,0.639,1.223,-3.407,9.428,-0.171,-0.012,0.082,happy
6.27,0,0,0,0,0,0,0,0,2856,2726,2218,3091,3381,45,2131,3656,-4.254,19.613,-12.371,-1.951,-2.188,0.945,1.267,-3.747,9.431,-0.148,0.001,0.052,happy
6.28,0,0,0,0,0,0,0,0,3251,2824,2224,3231,3381,62,1645,2965,-0.180,10.843,-9.555,1.645,0.875,0.047,1.348,-3.529,9.357,-0.163,0.083,0.036,happy
6.29,0,0,0,0,0,0,0,0,3381,2887,2226,3259,3279,46,1101,2419,6.287,11.648,15.282,1.884,1.300,0.279,1.477,-3.498,9.505,-0.210,0.114,0.032,happy
6.30,0,0,0,0,0,0,0,0,3545,2940,2229,3333,2603,47,567,1975,3.675,-1.120,7.645,1.159,0.744,1.226,1.022,-4.441,9.718,-0.360,0.276,0.038,happy
6.31,0,0,0,0,0,0,262,1342,3637,2840,2239,3403,2340,6,0,1843,-4.209,-7.994,5.064,2.345,0.079,1.006,1.700,-6.033,8.906,-0.028,0.283,0.174,happy
6.32,0,0,0,0,370,0,859,2716,3783,2607,2183,3525,883,5,3,1453,-11.071,5.353,17.861,3.333,-1.355,-0.460,1.494,-3.266,9.606,-0.715,0.391,-0.135,happy
6.33,0,382,0,0,894,0,2114,3117,3847,2525,2249,3566,665,9,3,1373,15.965,11.964,19.613,1.963,1.241,-1.468,1.314,-3.158,7.985,-0.852,0.311,-0.233,happy
6.34,0,1618,0,0,1622,0,2451,3345,3935,2139,2275,3679,11,1,0,1081,-4.453,3.297,15.385,0.634,2.165,-0.520,1.520,-3.888,10.240,-1.889,0.564,-0.686,happy
6.35,0,1955,0,0,1914,0,2550,3440,3991,1052,2393,3643,0,0,7,887,2.164,3.170,10.065,0.448,1.539,-0.271,6.361,-5.928,13.235,-3.599,1.536,-0.588,happy
6.36,0,2371,0,0,2261,0,2714,3522,3995,327,2359,3425,0,1,0,757,1.551,3.622,10.515,0.272,0.644,-0.391,2.545,-3.376,12.771,-4.366,2.068,0.215,happy
6.37,0,2686,272,0,2467,0,2848,3583,3620,0,0,2207,0,0,0,549,0.527,3.531,10.542,0.189,0.476,-0.301,4.111,-6.567,15.948,-4.366,2.506,2.837,happy
6.38,0,2832,669,0,2604,0,2795,3631,2617,0,2,374,1,0,0,378,1.372,3.108,10.032,0.034,0.079,-0.424,0.160,-8.006,17.437,-4.366,2.600,3.623,happy
6.39,0,2929,1204,0,2762,0,3103,3664,1581,2601,30,2550,2622,1763,1661,3144,1.633,2.612,9.570,0.191,0.008,-0.102,0.333,-14.518,8.626,-4.248,3.453,3.759,happy
6.40,0,3014,1658,99,2901,0,3159,3664,0,0,0,0,0,5,0,495,1.240,3.036,9.766,0.231,0.154,-0.027,3.711,-12.922,19.613,-0.157,-0.277,1.717,happy
6.41,22,3062,1859,282,2975,0,3185,3664,0,0,0,1,47,0,0,445,1.355,2.849,9.570,0.169,0.129,-0.044,11.207,2.270,9.524,1.017,-0.902,1.006,happy
6.42,130,3094,2007,415,3017,0,3211,3647,0,0,0,0,0,0,0,473,1.329,2.883,9.510,0.194,0.075,-0.062,5.808,3.014,4.427,1.241,-0.722,0.342,happy
6.43,233,3162,2157,560,3099,0,3222,3641,0,0,0,0,0,0,0,491,1.516,2.950,9.354,0.165,0.017,-0.058,4.171,0.903,4.858,1.330,-0.961,-0.049,happy
6.44,237,3155,2301,606,3091,0,3178,3558,1626,2543,0,2487,2583,1669,1566,3104,1.295,2.813,9.491,0.161,-0.005,-0.054,4.484,0.201,7.865,1.609,-1.112,-0.332,happy
6.45,441,3270,2487,803,3201,0,3173,3568,1589,2557,0,2488,2579,1651,1561,3109,1.360,2.753,9.471,0.235,-0.041,-0.072,0.891,-1.070,9.867,2.639,-1.469,-0.717,happy
6.46,553,3344,2754,1075,3251,0,3169,3486,0,0,0,0,0,0,0,425,1.267,2.947,9.512,0.289,-0.035,-0.110,-0.113,-1.568,9.206,3.008,-1.834,-0.617,happy
6.47,683,3422,2899,1505,3287,0,3125,3374,0,0,0,0,44,0,0,392,1.219,3.117,9.469,0.289,-0.015,-0.071,-1.209,-2.354,8.768,3.396,-2.095,-0.210,happy
6.48,827,3469,2962,1776,3319,0,3057,3269,0,0,0,0,0,0,0,347,1.317,3.084,9.433,0.258,-0.030,-0.053,-0.855,-3.733,10.783,3.636,-2.402,0.044,happy
6.49,958,3539,3157,2032,3357,0,3050,3163,0,0,0,0,0,0,0,320,1.355,3.211,9.390,0.236,-0.006,-0.057,-0.453,-4.132,11.210,3.680,-2.534,-0.092,happy
6.50,1059,3605,3259,2263,3386,0,3023,3071,0,0,0,0,0,4,0,311,1.305,3.371,9.464,0.184,-0.013,-0.051,-0.819,-4.685,12.641,3.605,-2.713,-0.541,happy
6.51,1149,3648,3266,2405,3419,0,2962,2973,0,27,0,0,0,0,0,292,1.326,3.405,9.400,0.130,-0.000,-0.051,-1.544,-5.959,16.336,3.713,-2.488,-0.811,happy
6.52,1211,3691,3376,2551,3453,0,2928,2849,0,0,0,0,0,0,0,296,1.377,3.122,9.357,0.115,0.041,-0.066,-3.067,-6.622,17.808,3.696,-2.475,-0.868,happy
6.53,1306,3751,3454,2672,3478,0,2849,2624,0,0,0,19,0,0,0,262,1.346,3.144,9.359,0.128,0.043,-0.079,-5.737,-11.040,19.613,3.932,-2.422,-0.803,happy
6.54,1387,3755,3433,2755,3461,0,2704,2112,0,0,0,0,0,0,3,219,1.506,3.349,9.026,0.088,0.064,-0.099,-6.383,-15.400,14.801,3.881,-2.065,-0.845,happy
6.55,1494,3733,3549,2887,3482,0,2479,1467,0,0,0,0,0,0,0,207,1.513,3.156,9.412,0.171,0.031,-0.104,-4.094,-17.514,5.267,3.100,-1.365,-1.034,happy
6.56,1698,3798,3572,2989,3456,0,2000,4,1589,2525,0,2490,2581,1655,1555,3107,1.420,3.302,9.278,0.239,0.042,-0.092,-9.476,-19.613,-4.858,0.827,-1.167,-0.727,happy
6.57,1970,3859,3542,2989,3358,0,1417,0,1587,2549,0,2487,2579,1660,1565,3092,1.288,3.206,9.304,0.285,0.053,-0.045,-0.438,-17.456,-8.935,-2.485,0.551,-2.023,happy
6.58,2226,3867,3669,3173,3071,0,481,0,1587,2637,0,2677,2680,2079,2239,3193,1.125,3.270,9.282,0.385,0.132,-0.085,1.769,-8.602,11.212,-1.507,2.802,-1.723,happy
6.59,2513,3856,3654,3253,2032,0,179,0,0,0,0,0,0,0,0,1107,1.741,2.959,9.055,0.753,0.148,0.058,-1.865,5.851,5.902,-1.617,0.597,-1.209,happy
6.60,2480,3806,3501,3290,1604,0,0,0,0,6,0,0,0,0,0,1560,1.547,3.685,9.380,0.865,0.133,0.076,-7.963,1.729,5.191,-2.329,1.311,-0.099,happy
6.61,2835,3895,3713,3333,1439,0,0,0,0,0,0,17,0,5,0,2111,1.410,3.455,9.512,0.999,0.202,0.132,-11.801,-3.637,15.797,-2.243,0.459,0.003,happy
6.62,2939,3885,3719,3344,1275,0,0,0,0,0,0,0,0,0,0,2531,1.113,3.553,9.378,1.194,0.233,0.171,-7.681,-0.500,13.034,-2.493,-0.590,0.272,happy
6.63,3055,3869,3713,3367,1085,0,0,0,0,0,0,0,0,0,458,2908,1.705,3.400,9.345,1.332,0.342,0.199,1.044,-2.957,10.827,-2.822,-1.129,0.354,happy
6.64,3147,3849,3703,3374,944,0,0,0,10,0,0,0,0,0,935,3158,1.820,3.385,9.412,1.594,0.404,0.286,4.223,-5.643,12.558,-2.581,-1.311,0.139,happy
6.65,3236,3809,3685,3385,736,0,0,0,0,0,0,85,0,6,1081,3359,1.563,3.615,9.481,1.784,0.590,0.355,8.231,-4.539,14.564,-1.833,-1.269,0.283,happy
6.66,3371,3509,3552,3184,71,0,0,0,1593,2550,0,2487,2579,1663,1560,3101,2.286,3.704,9.404,2.291,0.698,0.477,0.998,-3.330,9.991,-0.450,1.468,0.484,happy
6.67,3420,2819,3440,2674,0,0,0,0,1593,2549,0,2485,2575,1685,1567,3107,2.684,5.329,9.826,2.985,0.713,0.326,-1.233,-2.938,11.231,-0.351,1.066,0.369,happy
6.68,3479,2223,2725,2113,0,0,0,0,0,27,0,5,759,0,2615,3871,1.099,5.119,9.347,3.627,0.636,-0.401,-0.014,-4.331,13.680,-0.462,0.529,0.284,happy
6.69,3382,1121,1361,1616,0,0,0,0,4,411,0,309,1443,0,2933,4043,1.465,5.148,10.848,4.760,0.295,-1.116,1.396,-3.335,10.159,-0.168,0.138,0.163,happy
6.70,2823,442,0,451,0,0,0,0,1623,2709,12,2543,2605,2057,2236,2397,2.035,6.565,9.591,5.208,0.654,-1.955,1.815,-3.570,9.960,-0.054,0.084,0.167,happy
6.71,1855,0,0,0,0,0,0,0,1,381,2,583,2235,0,3359,4095,1.547,9.294,10.104,5.547,0.663,-2.343,1.437,-3.065,9.716,0.015,0.102,0.078,happy
6.72,1136,0,0,0,0,0,0,0,10,554,1018,632,2475,0,3481,4095,-0.694,10.657,11.557,4.747,0.814,-2.203,1.195,-2.895,9.519,0.001,0.067,0.045,happy
6.73,45,0,0,0,0,0,0,0,55,426,1200,777,2495,17,3437,4012,7.290,0.280,16.137,-0.032,0.589,-2.230,1.293,-3.354,9.596,-0.016,-0.013,-0.031,happy
6.74,18,0,0,0,0,0,0,0,69,494,1169,825,2587,21,3519,4075,3.819,-1.482,9.048,-0.740,0.801,-0.900,1.508,-3.029,9.694,0.078,0.098,0.042,happy
6.75,0,0,0,0,0,0,0,0,39,503,1082,841,2671,0,3565,4087,4.101,0.431,8.674,-1.022,0.080,-0.304,1.463,-3.127,9.747,0.138,0.050,0.060,happy
6.76,0,0,0,0,0,0,0,0,22,519,1192,852,2741,2,3657,4095,5.128,1.645,10.886,-1.462,-0.652,0.074,1.393,-3.223,9.608,0.137,0.064,0.052,happy
6.77,0,0,0,0,0,0,0,0,24,532,1195,773,2765,7,3675,4095,6.093,2.569,11.155,-2.203,-0.598,0.460,1.451,-2.765,9.515,0.086,0.108,0.024,happy
6.78,0,0,0,0,0,0,0,0,23,557,1184,730,2781,7,3689,4095,4.324,1.939,9.656,-2.709,-0.252,0.884,1.413,-2.734,9.574,0.061,0.064,0.001,happy
6.79,0,0,0,0,0,0,0,0,6,529,1010,713,2807,18,3691,4095,1.638,1.796,8.006,-3.006,-0.349,1.035,1.451,-2.655,9.402,-0.002,0.012,0.005,happy
6.80,0,0,0,0,0,0,0,0,25,541,1141,747,2823,16,3701,4095,1.185,1.504,6.943,-3.129,-0.585,1.065,1.465,-2.911,9.706,-0.033,-0.007,0.013,happy
6.81,0,0,0,0,0,0,0,0,11,443,1179,756,2827,8,3675,4095,1.087,2.732,7.980,-3.237,-0.721,0.850,1.365,-2.816,9.553,0.011,0.037,0.058,happy
6.82,0,0,0,0,0,0,0,0,39,431,1254,782,2835,13,3699,4095,0.000,3.486,9.227,-3.425,-0.794,0.709,1.279,-2.799,9.414,0.006,0.017,0.051,happy
6.83,0,0,0,0,0,0,0,0,89,402,1266,807,2845,20,3705,4095,-0.948,3.792,9.773,-3.622,-0.924,0.523,1.374,-2.617,9.388,-0.018,0.013,0.059,happy
6.84,0,0,0,0,0,0,0,0,93,453,1384,887,2857,26,3704,4095,-0.599,4.580,9.957,-3.730,-1.054,0.319,1.403,-2.555,9.294,-0.077,0.012,0.084,happy
6.85,0,0,0,0,0,0,0,0,115,621,1512,928,2919,5,3720,4095,-0.517,5.219,10.034,-3.770,-1.148,0.147,1.391,-2.605,9.424,-0.129,0.007,0.106,happy
6.86,0,0,0,0,0,0,0,0,111,629,1865,1003,2964,27,3729,4095,-0.105,5.861,10.453,-3.753,-1.184,0.031,1.362,-2.923,9.601,-0.136,0.009,0.133,happy
6.87,0,0,0,0,0,0,0,0,206,805,2009,1241,3082,42,3755,4095,1.937,7.393,12.038,-3.691,-1.225,0.255,0.960,-2.873,9.565,-0.125,0.009,0.139,happy
6.88,0,0,0,0,0,0,0,0,175,1181,2080,1549,3171,39,3769,4095,2.533,7.707,12.258,-3.553,-0.987,0.780,1.034,-2.504,9.732,-0.192,-0.037,0.169,happy
6.89,0,0,0,0,0,0,0,0,155,1279,2101,1567,3229,37,3759,4095,0.115,7.985,12.117,-3.019,-1.116,1.059,0.670,-2.512,9.392,-0.213,0.020,0.197,happy
6.90,0,0,0,0,0,0,0,0,244,1512,2121,1801,3355,59,3774,4095,-0.419,9.960,12.615,-2.410,-1.610,1.060,1.331,-2.892,9.443,-0.214,-0.025,0.144,happy
6.91,0,0,0,0,0,0,0,0,361,2041,2185,2067,3439,47,3679,4011,0.299,12.237,14.336,-2.332,-1.299,1.032,1.324,-3.117,9.436,-0.215,-0.027,0.177,happy
6.92,0,0,0,0,0,0,0,0,453,2194,2193,2217,3473,47,3602,4045,-2.248,12.704,13.250,-2.543,-0.786,0.970,1.391,-2.605,8.590,-0.231,-0.040,0.189,happy
6.93,0,0,0,0,0,0,0,0,853,2395,2213,2443,3513,49,3182,3979,-5.174,11.140,8.047,-2.387,-1.064,0.755,1.539,-3.232,9.440,-0.197,0.030,0.158,happy
6.94,0,0,0,0,0,0,0,0,1516,2574,2221,2680,3539,43,2887,3782,-4.027,13.748,2.289,-1.789,-0.933,0.502,1.286,-2.923,8.940,-0.230,0.055,0.149,happy
6.95,0,0,0,0,0,0,0,0,1839,2653,2229,2876,3534,30,2696,3756,-3.828,14.664,-3.788,-0.527,-0.288,0.844,1.422,-3.318,9.414,-0.217,0.026,0.114,happy
6.96,0,0,0,0,0,0,0,0,2600,2771,2224,2987,3497,47,2206,3381,-2.851,12.658,-6.517,1.845,1.001,0.564,1.310,-3.304,9.431,-0.207,0.064,0.096,happy
6.97,0,0,0,0,0,0,0,0,3060,2879,2193,3133,3240,46,1459,2519,4.341,4.599,19.613,1.004,1.157,0.247,1.475,-3.639,9.452,-0.246,0.093,0.050,happy
6.98,0,0,0,0,107,0,176,1210,3248,2899,2239,3194,2915,91,965,2376,-0.043,-6.931,3.524,1.951,-0.286,0.282,1.482,-3.780,9.290,-0.326,0.148,0.041,happy
6.99,0,0,0,0,168,0,546,2591,3516,2876,2352,3351,2527,11,60,1763,-3.421,4.053,14.427,2.680,-0.247,-0.613,1.164,-2.310,9.409,-0.172,0.158,0.177,happy
7.00,0,0,0,0,661,0,1334,2934,3673,2539,2257,3496,1261,11,9,1638,5.337,3.596,9.342,1.891,-0.382,-0.300,1.302,-3.452,8.947,-0.729,0.276,-0.121,happy
7.01,0,381,0,0,931,0,2015,3216,3722,2581,2259,3535,949,4,2,1555,2.500,8.384,11.480,1.666,1.735,-0.218,1.733,-3.165,9.929,-0.909,0.602,-0.310,happy
7.02,0,1313,0,0,1496,0,2224,3297,3813,2261,2027,3573,185,5,3,1203,-0.354,3.103,12.289,0.500,1.514,-0.373,2.547,-3.036,9.776,-1.864,0.456,-0.298,happy
7.03,0,1911,0,0,1712,0,2357,3378,3951,1401,2405,3544,0,8,0,918,-1.384,3.555,13.048,0.560,0.848,-0.305,4.199,-4.140,10.467,-3.055,0.820,-0.350,happy
7.04,0,2128,201,0,1922,0,2416,3275,3981,927,2362,3416,0,0,0,861,1.391,2.914,10.001,0.224,0.373,-0.186,3.151,-5.581,11.629,-3.130,1.289,-0.123,happy
7.05,0,2593,851,75,2257,0,2704,3549,3925,19,1341,2671,0,7,0,669,1.156,2.935,9.737,0.199,0.184,-0.306,2.284,-5.119,11.705,-4.366,1.269,1.200,happy
7.06,33,2781,1430,411,2490,0,2811,3616,2892,0,79,873,4,0,0,445,1.247,2.904,9.615,0.181,-0.106,-0.303,3.218,-5.789,11.511,-4.366,1.226,2.744,happy
7.07,312,2951,1968,737,2659,0,2956,3633,3079,0,0,405,0,0,0,284,1.190,2.981,9.677,0.233,-0.036,-0.081,3.124,-8.241,10.982,-4.366,1.068,3.072,happy
7.08,484,3071,2289,995,2818,0,3058,3664,1586,2553,0,2489,2551,1661,1566,3107,1.180,3.175,9.787,0.202,0.047,0.004,-1.539,-10.139,12.222,-3.290,1.005,3.369,happy
7.09,581,3173,2469,1235,2949,0,3120,3657,0,0,0,0,0,0,0,376,1.173,2.835,9.515,0.158,0.040,-0.018,5.298,-10.015,19.166,0.274,0.002,2.590,happy
7.10,663,3223,2694,1399,3056,0,3184,3672,41,0,0,0,2,7,0,345,1.267,2.828,9.538,0.165,-0.018,-0.043,8.823,1.252,8.234,1.086,0.017,2.178,happy
7.11,767,3280,2813,1616,3156,0,3194,3642,0,0,0,0,0,0,0,356,1.219,3.024,9.534,0.164,-0.013,-0.035,7.654,-0.117,8.430,1.410,-0.537,0.665,happy
7.12,848,3350,2847,1744,3222,0,3160,3583,0,0,0,0,0,0,0,239,1.178,3.033,9.515,0.171,-0.045,-0.048,6.965,-1.623,10.195,2.351,-0.907,-0.943,happy
7.13,881,3388,2966,1891,3234,0,3088,3472,0,0,0,0,0,0,0,249,1.269,2.780,9.333,0.237,-0.027,-0.045,2.634,-1.884,9.524,2.739,-1.179,-1.345,happy
7.14,1008,3474,3103,2171,3306,0,3117,3408,0,0,0,0,0,0,0,245,1.228,2.926,9.419,0.237,-0.034,-0.035,-0.201,-2.437,8.258,3.143,-1.634,-1.079,happy
7.15,1086,3511,3121,2326,3293,0,2966,3283,0,0,0,0,0,19,0,237,1.223,3.134,9.309,0.198,-0.017,-0.041,-0.828,-3.706,10.293,3.532,-1.631,-0.584,happy
7.16,1200,3582,3267,2447,3363,0,3036,3194,0,0,0,0,0,0,0,191,1.209,3.187,9.438,0.144,0.010,-0.046,0.299,-4.405,10.788,3.660,-1.765,-0.527,happy
7.17,1293,3630,3330,2558,3392,0,3005,3099,0,0,0,0,0,0,47,220,1.262,3.254,9.479,0.124,-0.046,-0.058,1.250,-5.181,10.575,3.646,-1.923,-0.923,happy
7.18,1242,3626,3383,2667,3311,0,2793,2931,0,0,0,25,0,0,0,163,1.276,3.278,9.498,0.100,-0.011,-0.051,0.096,-5.564,12.809,3.378,-2.224,-1.249,happy
7.19,1383,3709,3423,2746,3439,0,2897,2714,0,0,0,0,0,0,0,204,1.197,3.215,9.459,0.066,0.010,-0.050,-0.675,-5.610,13.807,3.352,-2.107,-1.208,happy
7.20,1506,3736,3461,2832,3441,0,2833,2491,0,0,0,0,29,0,0,136,1.264,3.122,9.479,0.059,0.019,-0.062,-3.572,-6.467,15.467,2.808,-2.224,-0.779,happy
7.21,1527,3735,3332,2887,3408,0,2653,2225,0,1,0,0,0,0,0,95,1.271,3.067,9.385,0.097,0.002,-0.061,-2.174,-11.784,17.499,2.534,-2.280,-0.778,happy
7.22,1599,3786,3538,2963,3472,0,2559,1840,0,0,0,0,0,0,0,78,1.317,3.069,9.304,0.131,0.013,-0.071,-3.397,-14.143,16.537,2.603,-2.190,-1.055,happy
7.23,1693,3815,3574,2963,3475,0,2256,1293,1460,2602,0,2559,2573,1865,1669,3145,1.336,3.172,9.337,0.160,0.031,-0.075,-4.413,-17.442,7.305,2.312,-1.318,-1.424,happy
7.24,1791,3849,3552,3122,3440,0,1835,0,1592,2579,0,2519,2607,1723,1594,3128,1.374,3.280,9.246,0.164,0.057,-0.087,-9.098,-18.421,-1.307,1.170,-0.393,-1.529,happy
7.25,1911,3761,3635,3164,3348,0,1277,0,0,0,0,0,0,0,0,29,1.310,3.251,9.141,0.198,0.110,-0.067,-8.262,-19.053,-3.620,0.334,0.213,-1.645,happy
7.26,2135,3898,3702,3285,3166,0,710,0,1589,2549,0,2488,2579,1661,1565,3103,1.269,3.144,9.354,0.296,0.134,-0.091,-2.136,-5.727,4.750,-1.633,2.478,-0.881,happy
7.27,2075,3808,3670,3344,2282,0,154,0,0,0,0,5,0,0,0,996,1.693,2.512,9.009,0.483,0.120,-0.170,-1.001,9.242,7.805,-1.462,0.177,-0.458,happy
7.28,2289,3920,3670,3376,2075,0,183,0,0,0,0,0,0,0,0,1563,1.257,3.694,9.543,0.849,0.010,0.060,-1.561,0.845,2.150,-2.159,0.785,0.213,happy
7.29,2406,3934,3692,3404,1803,0,0,0,0,0,0,0,0,0,0,2141,1.022,3.400,9.445,0.946,0.075,0.101,-6.962,-5.009,17.301,-1.812,0.624,0.311,happy
7.30,2448,3898,3686,3314,1521,0,0,0,0,0,0,0,0,0,253,2328,1.025,3.474,9.187,1.136,0.092,0.184,-4.700,-1.633,14.863,-2.132,-0.524,0.224,happy
7.31,2727,3932,3762,3441,1057,0,0,0,0,0,0,9,0,0,572,2823,1.358,3.285,9.450,1.423,0.184,0.247,2.102,-2.938,9.426,-2.224,-0.661,0.329,happy
7.32,2843,3926,3762,3435,960,0,0,0,0,0,0,0,0,0,967,3245,1.796,3.201,9.524,1.668,0.248,0.307,3.876,-4.877,12.292,-1.910,-0.561,0.159,happy
7.33,2951,3888,3741,3386,665,0,0,0,0,0,0,0,0,0,1259,3407,2.236,3.620,9.646,2.093,0.349,0.389,9.591,-13.300,12.316,-2.200,1.667,0.289,happy
7.34,3035,3808,3707,3319,580,0,0,0,0,0,0,0,0,0,1747,3497,0.754,2.818,9.203,2.421,0.445,0.470,2.535,-4.087,10.599,-1.070,0.657,0.221,happy
7.35,3120,3583,3657,3013,377,0,0,0,0,0,0,0,59,0,1804,3341,2.641,3.165,9.845,2.819,0.569,0.472,-0.139,-2.650,11.523,-0.595,1.149,0.424,happy
7.36,3218,2758,3409,2406,0,0,0,0,0,0,48,35,499,0,2283,3838,2.021,5.313,12.256,3.382,0.413,0.083,-0.658,-3.864,12.124,-0.735,0.312,0.343,happy
7.37,3170,2253,2417,1906,0,0,0,0,0,0,0,381,857,0,2637,4047,0.632,6.395,14.025,4.744,-0.579,-0.692,0.809,-3.165,10.302,-0.528,0.112,0.276,happy
7.38,2173,1283,801,752,0,0,0,0,11,203,0,621,1139,0,2775,4011,2.449,6.883,14.289,5.933,-0.787,-1.721,1.793,-3.421,9.538,-0.322,0.143,0.255,happy
7.39,1073,320,0,0,0,0,0,0,53,493,0,850,1590,1,3109,4095,3.292,10.448,10.913,6.176,-0.140,-2.356,1.554,-3.153,9.519,-0.171,0.128,0.238,happy
7.40,0,0,0,0,0,0,0,0,163,469,729,1205,1891,39,3273,4095,2.437,1.283,19.613,0.931,0.512,-2.841,0.929,-3.218,9.380,-0.172,0.021,0.087,happy
7.41,0,0,0,0,0,0,0,0,158,437,1031,1368,2003,37,3358,4095,7.475,4.300,11.581,0.063,0.871,-2.014,0.991,-3.476,9.809,-0.090,0.114,0.089,happy
7.42,0,0,0,0,0,0,0,0,237,481,1090,1433,1991,44,3439,4095,3.718,-5.222,12.014,-0.907,0.918,-2.016,1.204,-3.455,9.764,0.033,0.141,0.090,happy
7.43,0,0,0,0,0,0,0,0,181,559,1126,1531,2133,39,3511,4095,4.800,-2.318,9.831,-1.569,-0.084,-1.208,1.235,-3.247,9.584,0.057,0.103,0.081,happy
7.44,0,0,0,0,0,0,0,0,249,525,1087,1593,2217,43,3527,4095,5.662,-0.625,10.544,-2.569,-0.778,-0.355,1.010,-3.316,9.440,0.056,0.064,0.064,happy
7.45,0,0,0,0,0,0,0,0,237,328,1274,1594,2143,47,3531,4095,2.863,-0.742,7.786,-3.067,-0.911,0.295,1.135,-3.041,9.534,0.022,0.036,0.020,happy
7.46,0,0,0,0,0,0,0,0,199,233,1121,1589,2119,43,3527,4095,2.351,0.644,8.552,-3.229,-1.002,0.476,1.152,-3.117,9.694,0.021,0.046,0.033,happy
7.47,0,0,0,0,0,0,0,0,215,211,1215,1482,2074,39,3509,4095,2.018,2.061,9.258,-3.501,-1.150,0.544,1.168,-3.160,9.510,0.036,0.040,0.058,happy
7.48,0,0,0,0,0,0,0,0,297,149,1236,1487,2059,38,3496,4095,1.549,2.777,9.998,-3.651,-1.057,0.592,1.259,-3.213,9.498,0.017,0.004,0.038,happy
7.49,0,0,0,0,0,0,0,0,287,0,1228,1388,2041,5,3432,4095,0.728,3.649,10.587,-3.806,-1.229,0.590,1.183,-3.096,9.586,0.036,-0.007,0.036,happy
7.50,0,0,0,0,0,0,0,0,245,30,1225,1252,2039,11,3502,4095,1.271,4.834,11.042,-3.900,-1.366,0.557,1.231,-3.029,9.373,0.008,-0.048,0.028,happy
7.51,0,0,0,0,0,0,0,0,341,45,1297,1235,2131,17,3516,4095,2.018,5.930,11.633,-3.905,-1.413,0.612,1.762,-3.232,9.388,0.019,-0.027,0.046,happy
7.52,0,0,0,0,0,0,0,0,361,59,1330,1289,2227,17,3535,4095,3.019,6.926,12.100,-3.926,-1.234,0.752,0.769,-2.902,9.641,-0.020,-0.057,0.043,happy
7.53,0,0,0,0,0,0,0,0,361,90,1302,1243,2303,26,3555,4095,4.822,7.587,11.787,-3.668,-0.794,1.229,0.948,-3.045,9.440,0.003,-0.003,0.057,happy
7.54,0,0,0,0,0,0,0,0,379,279,1486,1364,2375,48,3509,4095,5.212,8.217,11.746,-3.229,-0.679,1.665,1.223,-3.031,9.558,-0.019,-0.030,0.049,happy
7.55,0,0,0,0,0,0,0,0,395,482,1589,1477,2533,48,3627,4095,5.447,10.561,13.123,-2.255,-0.638,2.605,0.702,-2.890,9.629,-0.094,-0.064,0.059,happy
7.56,0,0,0,0,0,0,0,0,424,796,1988,1670,2729,47,3684,4095,5.109,16.281,15.694,-1.748,-0.338,3.265,2.227,-3.625,10.135,-0.030,0.008,0.103,happy
7.57,0,0,0,0,0,0,0,0,427,911,2029,1705,2824,47,3701,4095,1.779,19.613,16.190,-2.514,-0.209,3.772,0.663,-3.021,9.361,-0.071,0.003,0.086,happy
7.58,0,0,0,0,0,0,0,0,424,1097,2073,1855,2942,47,3709,4095,-5.064,18.081,3.950,-2.845,-0.041,3.677,1.446,-2.942,9.349,-0.148,-0.049,0.109,happy
7.59,0,0,0,0,0,0,0,0,607,1287,2037,2148,3083,49,3660,4079,-10.369,19.166,-4.336,-1.766,-1.458,2.225,0.692,-3.005,9.448,-0.205,-0.060,0.111,happy
7.60,0,0,0,0,0,0,0,0,741,1389,2108,2212,3131,67,3627,4076,2.162,16.405,-10.922,0.712,-0.402,1.295,1.286,-3.390,9.651,-0.140,-0.023,0.087,happy
7.61,0,0,0,0,0,0,0,0,1046,2004,2178,2487,3240,50,3475,4042,0.735,14.250,4.281,1.899,1.122,0.451,1.319,-3.215,9.570,-0.112,0.037,0.106,happy
7.62,0,0,0,0,0,0,0,0,1579,2294,2203,2698,3295,47,2747,3868,6.790,2.854,14.961,0.801,1.112,0.927,1.219,-3.266,9.309,-0.138,0.072,0.116,happy
7.63,0,0,0,0,21,0,287,2162,1915,2362,2206,2775,3252,71,2456,3816,-13.762,-6.007,6.555,2.264,-0.725,0.644,1.283,-3.311,9.558,-0.157,0.076,0.115,happy
7.64,0,0,0,0,309,0,735,2915,2539,2496,2213,3021,2627,46,1485,3209,-7.163,7.068,17.782,2.704,-1.248,-0.113,1.293,-3.450,9.500,-0.244,0.114,0.083,happy
7.65,0,0,0,0,717,0,1824,3215,2899,2427,2221,3124,1827,43,440,2055,19.613,9.558,4.609,1.852,-0.993,0.056,1.209,-3.804,9.354,-0.453,0.211,0.037,happy
7.66,0,1148,0,0,1349,0,2431,3353,3060,2355,2221,3143,1180,21,139,2098,4.571,4.594,8.959,0.908,1.400,-0.501,-0.682,-3.290,9.325,-0.586,0.393,0.101,happy
7.67,0,1844,0,0,1851,0,2642,3445,3323,1892,2121,3299,177,5,3,1643,0.508,3.117,11.420,0.403,1.177,-0.343,1.506,-3.151,9.316,-1.007,0.332,-0.208,happy
7.68,0,2203,0,0,2240,0,2746,3494,3453,1103,2282,3255,0,0,0,1407,1.348,2.935,10.621,0.387,0.579,-0.206,2.756,-2.914,11.327,-2.114,0.520,-0.502,happy
7.69,0,2559,22,0,2479,0,2830,3508,3469,819,2331,3209,0,0,0,1245,0.781,2.897,10.417,0.369,0.520,-0.366,3.931,-3.584,11.171,-2.550,0.982,-0.582,happy
7.70,0,2832,511,0,2651,0,2985,3568,3385,0,1732,2526,0,0,0,994,1.942,2.840,9.230,0.203,0.156,-0.432,2.564,-2.942,10.788,-3.722,1.861,0.343,happy
7.71,43,2953,1361,0,2890,0,3070,3583,2987,0,0,1693,0,0,0,731,1.583,2.976,9.488,0.177,0.095,-0.085,0.259,-7.113,15.277,-4.161,1.381,2.196,happy
7.72,147,3042,1907,278,3053,0,3169,3622,2791,0,0,681,3,0,5,551,1.233,3.522,9.941,0.091,0.079,-0.033,1.635,-9.907,12.601,-3.969,0.521,3.097,happy
7.73,288,3147,2184,550,3161,0,3215,3638,75,0,0,0,0,0,0,571,1.135,2.931,9.603,0.103,0.108,-0.016,-3.555,-0.347,13.740,-1.724,-1.114,4.366,happy
7.74,307,3221,2338,675,3249,0,3233,3647,7,4,0,0,0,0,0,551,1.437,2.847,9.505,0.127,0.038,-0.092,3.591,0.800,12.974,0.585,-1.710,4.366,happy
7.75,355,3254,2443,759,3280,0,3234,3639,26,0,0,0,28,0,0,443,1.544,2.899,9.515,0.103,0.009,-0.079,8.559,-0.555,5.952,1.115,-1.579,4.038,happy
7.76,432,3337,2638,876,3334,0,3254,3613,21,0,0,0,0,0,0,481,1.271,3.105,9.510,0.094,0.008,-0.038,9.146,0.407,6.251,1.168,-1.664,2.887,happy
7.77,459,3362,2698,949,3351,0,3248,3583,28,0,0,0,0,0,0,500,1.465,2.854,9.380,0.082,0.036,-0.041,8.904,-0.225,7.173,1.237,-1.892,1.640,happy
7.78,503,3333,2729,1097,3295,0,3184,3443,11,0,0,67,0,0,0,476,1.302,2.902,9.421,0.106,0.074,-0.045,3.809,-0.194,9.158,1.589,-2.096,0.059,happy
7.79,561,3425,2782,1315,3408,0,3195,3529,11,0,0,0,0,0,0,412,1.233,3.026,9.527,0.108,0.067,-0.033,-2.488,0.225,10.860,2.016,-2.312,0.012,happy
7.80,511,3423,2811,1476,3280,0,3039,3493,7,0,0,0,0,0,0,391,1.288,3.000,9.428,0.072,0.058,-0.039,-4.005,-0.359,12.237,2.273,-2.486,0.321,happy
7.81,624,3485,2981,1661,3428,0,3199,3499,29,0,17,0,0,0,0,415,1.178,3.019,9.510,0.060,0.050,-0.037,-5.571,-1.542,13.020,2.781,-2.850,1.051,happy
7.82,636,3504,2843,1813,3430,0,3107,3497,17,0,0,0,0,0,0,371,1.202,3.077,9.471,0.027,0.052,-0.014,-7.017,-2.071,13.367,3.032,-3.146,1.643,happy
7.83,718,3536,3090,1909,3459,0,3221,3501,0,0,5,0,0,0,0,339,1.281,2.921,9.378,0.008,0.078,-0.010,-8.614,-2.009,13.307,3.077,-3.213,2.032,happy
7.84,768,3566,3139,2096,3457,0,3228,3504,0,0,0,3,0,0,0,313,1.219,2.729,9.342,0.065,0.066,-0.037,-10.616,-3.460,13.364,3.182,-2.850,3.313,happy
7.85,833,3583,3150,2274,3446,0,3191,3474,0,0,0,26,0,0,0,237,1.255,2.933,9.357,0.087,0.072,-0.040,-9.431,-5.533,13.482,3.153,-2.563,4.197,happy
7.86,858,3621,3259,2427,3427,0,3191,3438,0,0,0,0,0,0,0,277,1.137,3.036,9.491,0.079,0.088,-0.037,-7.805,-6.012,12.268,2.940,-2.343,4.207,happy
7.87,940,3641,3311,2536,3376,0,3152,3374,0,0,0,0,0,0,0,245,1.324,2.844,9.366,0.110,0.080,-0.054,-2.916,-6.467,10.341,2.286,-1.791,3.018,happy
7.88,1034,3663,3283,2658,3215,0,3060,3262,0,0,0,0,0,0,0,230,1.176,2.962,9.459,0.156,0.063,-0.073,-0.730,-8.763,6.539,1.642,-0.714,0.882,happy
7.89,1169,3680,3418,2773,3213,0,3012,3130,0,0,0,0,0,0,0,235,1.137,3.065,9.495,0.145,0.062,-0.063,-3.275,-6.299,4.523,1.080,-0.224,0.053,happy
7.90,1283,3709,3457,2895,3152,0,2871,2861,0,37,0,0,0,0,0,183,1.221,2.916,9.462,0.171,0.067,-0.091,-11.923,-13.317,0.136,-0.758,1.240,-0.065,happy
7.91,1421,3745,3408,3034,3137,0,2601,2347,18,0,0,0,0,0,0,679,1.271,2.895,9.483,0.175,0.094,-0.112,-1.776,4.889,15.462,-0.266,0.584,0.648,happy
7.92,1579,3771,3562,3135,3071,0,2147,867,0,0,0,0,0,0,0,1288,1.269,3.199,9.500,0.247,0.121,-0.117,7.961,4.408,4.266,-1.576,0.202,0.807,happy
7.93,1875,3792,3598,3219,2928,0,1142,0,0,0,0,0,0,0,154,2201,0.977,3.259,9.517,0.362,0.090,-0.079,3.165,-3.680,12.096,-1.328,0.462,-0.024,happy
7.94,2126,3810,3536,3269,2187,0,173,0,0,0,0,2,0,0,677,3119,1.030,2.574,8.957,0.688,0.089,0.022,0.426,-2.162,10.324,-1.737,0.252,-0.028,happy
7.95,2301,3810,3631,3311,1743,0,9,0,0,0,0,0,9,0,1129,3293,1.211,3.132,9.191,1.015,0.128,0.188,2.873,-2.009,15.316,-1.626,-0.247,-0.057,happy
7.96,2433,3771,3632,3331,817,0,0,0,1,0,0,0,116,0,1805,3678,2.066,3.254,9.014,1.444,0.300,0.351,-0.512,-3.112,11.514,-1.224,0.300,0.190,happy
7.97,2630,3525,3516,3275,368,0,0,0,0,0,0,185,217,0,2045,3879,2.121,3.419,9.606,1.818,0.751,0.438,0.500,-3.043,9.730,-0.688,0.175,0.262,happy
7.98,2759,2962,3447,2927,0,0,0,0,5,0,0,327,343,0,2159,3933,2.078,4.104,9.957,2.199,1.040,0.561,1.367,-2.986,9.713,-0.562,0.089,0.245,happy
7.99,2846,2586,3104,2667,0,0,0,0,89,0,0,503,408,0,2227,4007,1.970,3.419,10.127,2.189,1.530,0.365,1.070,-2.595,9.699,-0.548,0.063,0.242,happy
8.00,2919,1660,2246,1984,0,0,0,0,89,0,0,793,521,0,2503,4063,2.205,2.614,10.506,2.871,1.885,-0.119,1.120,-3.036,9.574,-0.485,0.114,0.259,happy
8.01,2770,905,775,1570,0,0,0,0,207,159,2,1107,691,3,2666,4095,3.060,4.712,12.778,4.038,1.821,-1.170,1.094,-3.239,9.577,-0.326,0.063,0.196,happy
8.02,2116,128,0,395,0,0,0,0,251,230,7,1325,890,9,2765,4095,3.412,6.258,10.029,4.493,2.219,-1.918,0.989,-2.919,9.448,-0.300,0.071,0.209,happy
8.03,991,0,0,0,0,0,0,0,215,243,1200,1651,1033,41,3001,4095,1.788,6.203,11.013,3.138,3.497,-1.967,1.082,-3.543,9.510,-0.280,0.043,0.248,happy
8.04,0,0,0,0,0,0,0,0,390,375,1625,1850,1319,39,3173,4095,19.613,4.020,17.861,0.739,2.203,0.365,1.001,-3.457,9.651,-0.134,0.004,0.118,happy
8.05,0,0,0,0,0,0,0,0,391,409,1696,2003,1459,47,3235,4095,16.123,3.388,7.317,-0.120,1.467,2.742,1.008,-3.481,9.701,-0.097,0.017,0.088,happy
8.06,0,0,0,0,0,0,0,0,380,459,1753,2067,1543,51,3279,4095,7.884,2.816,7.094,0.072,2.059,4.186,1.077,-3.381,9.462,-0.063,0.050,0.073,happy
8.07,0,0,0,0,0,0,0,0,563,447,1801,2111,1527,25,3309,4095,1.923,3.239,10.144,-0.298,1.314,4.509,1.032,-3.294,9.553,-0.054,0.065,0.069,happy
8.08,0,0,0,0,0,0,0,0,489,463,1773,2174,1575,51,3339,4095,0.656,2.933,10.669,-0.780,0.936,4.167,1.032,-3.232,9.414,-0.055,0.085,0.064,happy
8.09,0,0,0,0,0,0,0,0,492,456,1781,2211,1545,47,3319,4095,-0.752,2.222,10.257,-1.373,0.716,3.716,1.013,-3.376,9.493,-0.054,0.068,0.062,happy
8.10,0,0,0,0,0,0,0,0,440,460,1783,2215,1561,51,3349,4095,-1.097,0.553,6.874,-1.903,0.745,2.962,1.001,-3.328,9.483,-0.037,0.072,0.053,happy
8.11,0,0,0,0,0,0,0,0,555,471,1783,2247,1519,48,3343,4095,-0.558,1.123,7.087,-2.097,0.902,2.486,0.991,-3.330,9.452,-0.025,0.082,0.061,happy
8.12,0,0,0,0,0,0,0,0,621,491,1781,2376,1497,47,3335,4095,1.053,1.767,7.970,-2.254,0.904,2.185,0.991,-3.340,9.764,-0.016,0.105,0.057,happy
8.13,0,0,0,0,0,0,0,0,716,519,1783,2299,1548,39,3333,4095,2.025,2.485,8.222,-2.454,0.808,1.893,1.003,-3.299,9.412,-0.016,0.054,0.070,happy
8.14,0,0,0,0,0,0,0,0,791,525,1852,2342,1590,43,3342,4095,3.560,3.251,8.384,-2.762,0.962,1.770,0.974,-3.215,9.361,-0.029,0.045,0.065,happy
8.15,0,0,0,0,0,0,0,0,853,485,1881,2291,1563,47,3347,4095,4.736,3.876,8.246,-2.960,1.089,1.731,1.070,-3.333,9.455,-0.036,0.015,0.056,happy
8.16,14,0,0,0,0,0,0,0,891,507,1891,2287,1571,47,3349,4095,5.983,4.882,8.590,-3.097,1.073,1.921,1.044,-3.393,9.342,-0.026,-0.001,0.054,happy
8.17,91,0,0,0,0,0,0,0,1003,437,1901,2255,1670,45,3375,4095,9.155,6.574,8.272,-3.145,1.288,2.778,-0.117,-2.962,9.579,-0.008,0.008,0.040,happy
8.18,113,0,0,0,0,0,0,0,1099,503,1911,2194,1848,43,3434,4095,9.989,9.258,8.349,-2.933,1.589,4.028,0.709,-3.031,10.183,-0.049,-0.116,0.021,happy
8.19,0,0,0,0,0,0,0,0,1111,489,1817,2149,2025,47,3471,4095,8.882,13.113,8.119,-2.422,1.507,5.413,0.771,-3.194,9.361,0.005,-0.044,0.029,happy
8.20,0,0,0,0,0,0,0,0,1237,629,1924,2075,2309,44,3529,4095,7.281,18.019,7.755,-1.521,1.860,6.246,0.958,-3.153,9.268,-0.003,-0.066,0.027,happy
8.21,0,0,0,0,17,0,0,0,1289,684,1922,2012,2511,47,3566,4095,6.330,19.371,5.049,-0.817,2.651,6.234,2.447,-3.888,10.087,-0.019,-0.062,0.057,happy
8.22,15,0,0,0,67,0,0,0,1271,760,1909,1804,2566,56,3561,4095,2.557,14.444,3.436,-0.273,1.778,5.028,0.558,-3.110,9.981,-0.060,-0.124,0.018,happy
8.23,25,0,0,0,66,0,0,0,1183,892,2019,1773,2655,47,3575,4095,4.848,12.067,3.577,0.528,-0.292,4.146,1.709,-3.656,9.718,0.040,-0.094,0.043,happy
8.24,30,0,0,0,102,0,0,0,1117,1063,1988,1691,2809,44,3593,4095,6.440,10.841,4.087,0.904,-0.277,3.709,1.664,-3.496,8.964,0.041,-0.094,0.026,happy
8.25,0,0,0,0,147,0,0,0,1165,1093,1980,1701,2809,45,3567,4087,4.908,9.297,4.501,1.047,0.130,3.027,1.614,-3.814,10.056,0.033,-0.062,0.059,happy
8.26,19,163,0,0,400,0,0,0,1242,1127,1945,1783,2863,53,3559,4061,-12.263,10.944,-1.006,1.340,2.715,0.283,1.765,-3.713,9.802,0.149,0.078,0.039,happy
8.27,318,942,0,0,711,0,5,0,1343,1173,1998,1908,2873,45,3455,4095,9.134,8.890,12.210,-0.236,1.793,-0.450,1.173,-3.299,9.424,0.143,0.108,0.012,happy
8.28,751,1635,0,0,1170,0,403,1456,1466,1207,2032,1915,2793,43,3319,4095,-8.071,1.738,12.244,0.855,-0.019,-0.496,1.808,-3.546,9.699,0.142,0.114,0.015,happy
8.29,956,2559,631,0,1325,0,875,2194,1843,1205,2034,2063,2105,47,2821,4095,1.772,4.372,9.637,-0.440,0.443,-0.503,1.307,-3.249,9.421,-0.025,0.096,0.028,happy
8.30,1041,2815,1659,308,1894,0,1431,2486,2008,1045,2021,2041,1639,59,2223,4095,1.709,3.898,9.752,0.203,-0.505,-0.507,1.132,-3.364,9.311,-0.036,0.109,0.028,happy
8.31,1232,2962,2005,348,2109,0,1933,2657,1971,977,2019,1930,1259,47,1810,4014,0.740,3.919,10.051,0.102,-0.096,0.091,1.480,-3.800,10.233,-0.017,0.117,0.023,happy
8.32,1251,3061,2160,334,2442,0,2306,2833,2132,727,1991,1709,699,44,1020,3575,1.616,3.893,9.577,-0.004,-0.011,0.123,1.314,-2.854,8.827,-0.153,0.018,0.014,happy
8.33,1294,3122,2224,285,2639,0,2559,3009,1593,2597,1297,2486,2634,1658,1563,3101,1.683,3.349,9.208,0.069,-0.000,0.072,0.819,-3.259,8.543,-0.421,-0.048,0.001,happy
8.34,1338,3230,2491,320,2851,0,2820,3142,1593,2548,1246,2485,2573,1656,1565,3103,1.630,3.426,9.225,-0.033,-0.062,0.041,1.262,-3.577,9.373,-0.244,-0.090,-0.023,happy
8.35,1328,3335,2640,542,3047,0,2945,3255,1588,2550,778,2487,2573,1657,1563,3104,1.908,2.895,9.357,-0.077,0.025,0.034,-5.322,-0.177,10.048,0.047,-0.325,0.967,happy
