timestamp,L1,L2,L3,L4,L5,L6,L7,L8,R1,R2,R3,R4,R5,R6,R7,R8,acc_x_left,acc_y_left,acc_z_left,gyro_x_left,gyro_y_left,gyro_z_left,acc_x_right,acc_y_right,acc_z_right,gyro_x_right,gyro_y_right,gyro_z_right,mood
0.00,1373,3367,2910,862,2864,0,2896,2727,0,0,17,0,0,0,0,0,1.341,3.639,9.268,0.127,0.002,-0.030,-4.051,-8.693,2.162,0.605,-0.391,0.470,happy
0.01,1417,3397,2938,956,2832,0,2850,2539,0,7,0,0,0,0,0,395,1.458,3.551,9.316,0.151,0.003,-0.051,7.913,0.333,10.874,-1.446,-0.454,0.094,happy
0.02,1451,3457,2944,870,2773,0,2718,2095,0,0,0,114,0,0,1151,2245,1.365,3.524,9.275,0.232,0.009,-0.052,19.613,-19.613,15.864,-3.472,2.232,1.301,happy
0.03,1401,3488,2915,720,2730,0,2321,432,41,2710,0,134,45,22,1229,3629,1.374,3.553,9.404,0.330,0.005,-0.054,-0.014,-4.942,1.439,0.376,0.317,0.021,happy
0.04,1321,3462,2835,508,2515,0,1278,0,359,243,48,125,539,41,2385,3255,0.733,3.740,9.436,0.404,0.014,-0.078,1.858,-4.367,9.562,-0.525,-0.082,0.289,happy
0.05,1217,3393,2704,247,1839,0,269,0,688,794,890,630,1392,51,2633,3294,0.381,3.694,9.946,0.501,0.073,-0.124,1.690,-4.120,9.352,-0.242,-0.128,0.007,happy
0.06,1115,3307,2402,0,1168,0,176,0,1613,2713,161,2650,2647,1877,1705,3289,0.876,3.587,9.421,0.848,0.073,-0.084,1.460,-3.620,9.395,-0.167,-0.107,0.017,happy
0.07,894,3117,1684,0,735,0,20,0,1620,2684,1430,2641,2631,1869,1799,3219,0.862,3.340,8.885,1.002,0.139,-0.012,1.240,-3.654,9.254,-0.143,-0.135,0.015,happy
0.08,718,2815,430,0,368,0,0,0,1609,1851,1387,1625,2441,2686,3207,3592,0.022,4.264,9.790,1.188,-0.036,0.139,1.211,-3.780,9.345,-0.082,-0.042,0.028,happy
0.09,170,2131,0,0,208,0,0,0,1887,1949,2055,1717,2641,48,3247,3631,1.635,5.452,8.971,1.446,-0.321,0.248,1.159,-3.685,9.361,-0.081,-0.023,0.012,happy
0.10,100,1177,0,0,256,0,0,0,2136,1855,2108,1900,2803,47,3347,3657,0.213,7.508,9.601,1.350,-0.317,0.586,1.214,-3.788,9.397,-0.085,-0.027,0.036,happy
0.11,0,296,0,0,91,0,0,0,2348,2069,2116,2121,2875,47,3371,3666,-5.248,7.089,8.442,1.209,-0.033,-0.537,1.216,-3.733,9.325,-0.051,0.087,0.061,happy
0.12,0,0,0,0,74,0,0,0,2453,2109,2119,2207,2855,47,3371,3661,-0.498,11.691,8.789,0.716,1.100,-1.263,1.276,-3.795,9.321,-0.048,0.081,0.056,happy
0.13,0,0,0,0,0,0,0,0,2535,2159,2152,2377,2857,19,3369,3647,-1.202,9.330,8.947,0.247,1.513,-1.135,1.171,-3.883,9.268,-0.052,0.024,0.013,happy
0.14,0,0,0,0,0,0,0,0,2649,2231,2183,2503,2919,51,3375,3566,-1.295,7.487,7.415,0.302,1.159,-1.066,1.197,-3.771,9.318,-0.045,-0.005,0.010,happy
0.15,0,0,0,0,0,0,0,0,2703,2229,2193,2553,2950,63,3373,3612,-0.472,7.132,6.919,0.501,1.034,-0.971,1.190,-3.800,9.280,-0.033,-0.019,0.014,happy
0.16,0,0,0,0,0,0,0,0,2851,2294,2198,2622,3019,59,3390,3591,-0.615,7.118,7.374,0.697,0.924,-0.737,1.125,-3.826,9.242,0.000,-0.005,0.018,happy
0.17,0,0,0,0,0,0,0,0,2847,2333,2206,2647,3063,57,3416,3567,-1.027,7.163,8.013,0.746,0.787,-0.626,1.247,-3.836,9.304,-0.013,0.005,0.020,happy
0.18,0,0,0,0,0,0,0,0,2851,2358,2162,2617,3087,47,3413,3559,-1.262,6.826,7.872,0.706,0.651,-0.661,1.135,-3.773,9.266,-0.010,0.013,0.023,happy
0.19,0,0,0,0,0,0,0,0,2905,2391,2224,2763,3122,47,3385,3519,-1.741,6.467,7.736,0.766,0.706,-0.622,1.149,-3.785,9.256,-0.031,0.070,0.032,happy
0.20,0,0,0,0,0,0,0,0,2955,2472,2221,2842,3097,44,3303,3516,-1.798,6.706,8.382,0.687,0.509,-0.697,1.245,-3.905,9.134,-0.023,0.098,0.028,happy
0.21,0,0,0,0,0,0,0,0,2986,2458,2221,2900,3079,45,3273,3499,-1.604,6.644,8.432,0.533,0.439,-0.843,1.156,-3.879,9.316,-0.009,0.089,0.019,happy
0.22,0,0,0,0,0,0,0,0,3037,2519,2221,2958,3033,41,3273,3475,-1.487,6.472,8.523,0.402,0.380,-0.917,1.085,-3.759,9.184,-0.007,0.030,-0.008,happy
0.23,0,0,0,0,0,0,0,0,3052,2619,2229,3005,3156,46,3359,3471,-1.719,6.215,8.346,0.310,0.238,-0.930,1.144,-3.895,9.290,0.047,-0.045,-0.008,happy
0.24,0,0,0,0,0,0,0,0,3055,2604,2270,3013,3191,47,3391,3445,-1.676,6.184,8.071,0.208,0.194,-0.954,1.099,-3.771,9.263,0.044,-0.092,-0.015,happy
0.25,0,0,0,0,0,0,0,0,3021,2509,2218,2923,3301,47,3433,3371,-1.585,6.091,7.712,0.112,0.241,-0.971,1.051,-3.790,9.232,0.074,-0.226,-0.059,happy
0.26,0,0,0,0,0,0,0,0,2920,2652,2242,2759,3421,47,3449,3217,-1.420,5.966,7.314,0.064,0.258,-0.956,1.305,-3.673,9.321,0.010,-0.195,-0.029,happy
0.27,0,0,0,0,0,0,0,0,2861,2695,2249,2713,3461,47,3436,3148,-1.097,5.962,6.993,0.066,0.255,-0.896,1.401,-3.783,9.251,0.005,-0.155,-0.021,happy
0.28,0,0,0,0,0,0,0,0,2779,2741,2265,2641,3507,51,3469,3062,-0.922,5.844,6.749,0.072,0.253,-0.820,1.427,-3.941,9.287,0.042,-0.065,-0.004,happy
0.29,0,0,0,0,0,0,0,0,2603,2757,2226,2493,3532,47,3449,3145,-0.795,5.576,6.464,0.108,0.221,-0.740,1.401,-3.785,9.201,0.050,-0.002,0.006,happy
0.30,0,0,0,0,0,0,0,0,2537,2759,2221,2507,3499,47,3461,3176,-0.575,5.490,6.658,0.145,0.208,-0.655,1.501,-3.788,9.237,0.053,0.014,0.002,happy
0.31,0,0,0,0,0,0,0,0,2349,2687,2224,2391,3533,60,3487,3305,-0.388,5.320,6.656,0.150,0.207,-0.557,1.482,-3.768,9.191,0.135,0.030,-0.035,happy
0.32,0,0,0,0,0,0,0,0,2220,2557,2216,2303,3527,47,3534,3404,-0.168,5.047,6.553,0.156,0.211,-0.467,1.451,-3.771,9.294,0.095,0.050,-0.008,happy
0.33,0,0,0,0,0,0,0,0,2132,2493,2208,2259,3517,45,3667,3466,-0.069,4.798,6.565,0.188,0.211,-0.372,1.398,-3.800,9.251,0.118,0.063,-0.001,happy
0.34,0,0,0,0,0,0,0,0,1671,2235,2193,2037,3507,45,3601,3531,0.089,4.616,6.816,0.220,0.119,-0.243,1.396,-3.800,9.352,0.144,0.044,-0.013,happy
0.35,0,0,0,0,0,0,0,0,903,2147,2167,1659,3510,0,3644,3605,0.072,4.556,6.879,0.220,0.040,-0.082,1.456,-3.742,9.316,0.113,0.023,-0.013,happy
0.36,0,0,0,0,0,0,0,0,843,2155,2157,1369,3509,59,3653,3631,0.010,4.465,6.864,0.213,0.005,-0.017,1.310,-3.522,9.167,0.114,0.038,-0.026,happy
0.37,0,0,0,0,0,0,0,0,767,2156,2152,1151,3500,47,3655,3637,0.055,4.410,6.802,0.208,0.011,0.026,1.312,-3.603,9.280,0.115,0.045,-0.032,happy
0.38,0,0,0,0,0,0,0,0,600,2109,2142,1223,3497,47,3640,3654,0.268,4.463,6.718,0.203,0.044,0.059,1.381,-3.522,9.364,0.107,0.026,-0.047,happy
0.39,0,0,0,0,0,0,0,0,565,2067,2157,1096,3496,13,3675,3669,0.414,4.348,6.618,0.206,0.062,0.079,1.463,-3.524,9.323,0.085,0.024,-0.038,happy
0.40,0,0,0,0,0,0,0,0,482,2151,2160,1015,3491,48,3691,3676,0.172,4.300,6.706,0.209,-0.009,0.108,1.293,-3.505,9.270,0.081,0.028,-0.039,happy
0.41,0,0,0,0,0,0,0,0,431,2079,2185,948,3491,47,3699,3690,0.357,4.259,6.845,0.235,-0.137,0.154,1.460,-3.510,9.242,0.064,0.029,-0.041,happy
0.42,0,0,0,0,0,0,0,0,268,2059,2152,921,3493,0,3711,3684,0.661,4.398,7.029,0.246,-0.184,0.211,1.290,-3.543,9.333,0.066,0.023,-0.047,happy
0.43,0,0,0,0,0,0,0,0,313,2057,2142,862,3483,47,3653,3721,1.044,4.676,7.226,0.241,-0.155,0.275,1.372,-3.452,9.285,0.054,0.019,-0.051,happy
0.44,0,0,0,0,0,0,0,0,416,2027,1950,879,3475,55,3743,3727,1.176,4.724,7.202,0.217,-0.094,0.330,1.283,-3.280,9.242,0.064,0.048,-0.027,happy
0.45,0,0,0,0,0,0,0,0,310,2056,2152,916,3475,51,3743,3742,0.927,4.441,7.319,0.220,-0.129,0.413,1.405,-3.508,9.388,0.047,0.037,-0.012,happy
0.46,0,0,0,0,0,0,0,0,288,2045,2085,1013,3481,46,3753,3741,0.749,4.254,7.669,0.261,-0.292,0.536,1.283,-3.500,9.285,0.067,0.057,-0.020,happy
0.47,0,0,0,0,0,0,0,0,215,2068,2162,1083,3480,42,3763,3765,0.910,4.398,8.169,0.279,-0.406,0.666,1.322,-3.438,9.282,0.059,0.017,-0.033,happy
0.48,0,0,0,0,0,0,0,0,239,2065,2167,1101,3481,44,3767,3759,0.898,4.606,8.677,0.244,-0.411,0.795,1.417,-3.450,9.464,0.057,0.035,-0.014,happy
0.49,0,0,0,0,0,0,0,0,202,2069,2167,1189,3477,44,3782,3787,0.670,4.671,9.081,0.180,-0.390,0.893,1.415,-3.491,9.390,0.043,0.038,-0.005,happy
0.50,0,0,0,0,0,0,0,0,248,2018,2147,1149,3443,45,3753,3798,0.187,4.594,9.407,0.088,-0.425,0.987,1.365,-3.469,9.450,0.039,0.044,0.003,happy
0.51,0,0,0,0,0,0,0,0,269,1991,2142,1081,3464,49,3787,3805,-0.292,4.393,9.570,-0.005,-0.499,1.071,1.334,-3.433,9.318,0.050,0.044,-0.001,happy
0.52,0,0,0,0,0,0,0,0,265,1977,2142,1093,3445,46,3795,3817,-0.800,4.585,9.955,-0.155,-0.587,1.207,1.386,-3.345,9.292,0.027,0.048,0.019,happy
0.53,0,0,0,0,0,0,0,0,267,1995,2121,1182,3465,45,3804,3831,-1.135,5.423,11.037,-0.351,-0.577,1.273,1.377,-3.426,9.397,0.007,0.059,0.038,happy
0.54,0,0,0,0,0,0,0,0,285,1908,2142,1224,3476,45,3798,3835,-1.271,6.323,11.801,-0.763,-0.494,1.281,1.346,-3.510,9.383,0.026,0.068,0.016,happy
0.55,0,0,0,0,0,0,0,0,303,1893,2111,1226,3481,47,3829,3846,-1.547,5.964,10.788,-1.090,-0.327,1.217,1.398,-3.510,9.371,0.037,0.076,0.012,happy
0.56,0,0,0,0,0,0,0,0,291,1811,2124,1148,3487,33,3837,3860,-2.188,5.464,9.773,-1.136,-0.418,1.172,1.355,-3.500,9.371,0.064,0.072,-0.005,happy
0.57,0,0,0,0,0,0,0,0,253,1661,2126,1151,3498,40,3851,3855,-1.786,5.679,9.464,-1.034,-0.427,1.131,1.369,-3.460,9.280,0.053,0.071,-0.002,happy
0.58,0,0,0,0,0,0,0,0,253,1769,2126,1149,3503,45,3859,3853,-1.425,6.021,9.797,-0.976,-0.238,1.128,1.319,-3.330,9.364,0.020,0.070,0.023,happy
0.59,0,0,0,0,0,0,0,0,250,1755,2224,1081,3507,46,3865,3867,-1.190,5.650,9.641,-0.981,0.009,1.202,1.231,-3.426,9.383,0.019,0.066,0.042,happy
0.60,0,0,0,0,0,0,0,0,359,1773,2142,1039,3513,48,3883,3851,-1.132,5.157,9.534,-0.958,0.087,1.260,1.226,-3.419,9.340,0.002,0.076,0.057,happy
0.61,0,0,0,0,0,0,0,0,341,1698,2157,857,3515,47,3867,3851,-1.290,4.961,9.804,-0.924,0.119,1.321,1.240,-3.333,9.323,-0.011,0.071,0.056,happy
0.62,0,0,0,0,0,0,0,0,343,1688,2126,805,3511,51,3855,3839,-2.054,5.243,10.726,-0.958,0.034,1.348,1.240,-3.438,9.452,0.003,0.088,0.070,happy
0.63,0,0,0,0,0,0,0,0,311,1688,2114,679,3503,42,3860,3848,-2.272,5.808,11.593,-1.132,-0.096,1.329,1.154,-3.275,9.261,-0.017,0.092,0.076,happy
0.64,0,0,0,0,0,0,0,0,341,1612,2116,887,3404,47,3800,3851,-3.886,5.698,10.982,-1.585,0.068,1.065,1.429,-3.440,9.390,-0.027,0.158,0.126,happy
0.65,0,0,0,0,0,0,0,0,371,1497,2121,989,3301,47,3751,3861,-4.932,5.210,9.184,-1.669,-0.134,0.485,1.288,-3.450,9.325,0.011,0.216,0.119,happy
0.66,0,0,0,0,0,0,0,0,429,1579,2216,1096,3159,47,3685,3838,-4.592,5.619,8.691,-1.614,-0.279,0.119,1.326,-3.560,9.448,0.032,0.211,0.087,happy
0.67,0,0,0,0,0,0,0,0,808,1431,2147,1544,2191,51,3511,3897,-3.534,6.761,8.088,-1.573,-0.535,-0.281,1.199,-3.079,9.120,0.017,0.200,0.092,happy
0.68,0,0,0,0,0,0,0,0,1509,1463,2124,1881,2041,47,3259,3885,-1.963,7.767,7.465,-1.447,-0.758,-0.536,1.027,-3.560,9.376,-0.084,0.308,0.164,happy
0.69,0,0,0,0,0,0,0,0,1813,1432,2149,2073,1946,47,3129,3886,-1.535,8.976,8.047,-1.579,-0.752,-0.550,0.972,-3.567,9.555,-0.037,0.341,0.150,happy
0.70,0,0,0,0,141,0,0,0,2391,1349,2280,2345,1820,48,2567,3892,-2.016,7.293,4.626,-1.316,-0.881,-0.552,1.020,-3.733,9.637,0.025,0.375,0.127,happy
0.71,0,0,0,0,287,0,0,0,2622,1255,2249,2535,1477,47,2471,3885,0.117,7.937,4.094,-0.766,-1.340,-0.532,0.864,-3.500,9.531,0.014,0.408,0.121,happy
0.72,0,0,0,0,390,0,0,0,3021,1101,2188,2685,869,45,2185,3878,2.485,7.365,2.346,-0.132,-1.575,-0.208,0.340,-3.282,8.638,0.198,0.463,0.134,happy
0.73,0,0,0,0,528,0,0,0,3320,942,2178,2797,581,46,1647,3829,3.273,5.986,1.511,0.407,-0.958,-0.159,0.625,-3.476,9.608,0.029,0.427,0.091,happy
0.74,0,919,0,0,1062,0,625,459,3601,215,2167,2863,141,0,1309,3709,10.824,19.613,16.580,4.260,4.697,-1.365,0.670,-3.328,9.474,-0.033,0.338,0.074,happy
0.75,0,2303,0,0,2201,0,2286,2794,3699,2,2175,2898,10,1,957,3625,2.500,-5.195,9.112,0.078,0.839,-0.539,1.087,-3.414,9.606,-0.076,0.290,0.076,happy
0.76,0,2559,181,0,2083,0,2365,2838,3769,1,2157,2961,0,0,684,3443,-2.042,2.586,9.749,0.487,-0.011,-0.098,4.999,-3.565,11.911,-0.437,0.467,0.204,happy
0.77,285,3089,1952,0,2486,0,2779,2976,3852,0,30,2901,0,0,0,1983,0.057,4.556,10.487,0.341,-0.644,-0.006,0.163,-3.345,9.783,-0.373,0.166,0.162,happy
0.78,543,3335,2480,74,2742,0,2897,2945,3812,0,2,2845,0,0,0,1433,1.204,3.601,10.072,0.563,-0.317,0.259,4.077,-2.823,10.633,-0.527,0.372,0.274,happy
0.79,961,3456,2736,366,2974,0,2967,2896,3448,0,0,2319,0,0,0,959,1.611,4.446,9.550,0.285,0.032,0.016,-15.716,-6.515,8.942,-0.054,0.754,3.103,happy
0.80,1295,3542,2865,671,3121,0,2966,2845,710,0,0,574,4,0,0,713,1.666,3.754,9.579,0.118,-0.071,-0.284,7.350,-6.500,11.109,-0.403,1.918,4.366,happy
0.81,1535,3629,3024,830,3216,0,2992,2639,291,0,0,13,0,16,0,691,1.080,3.989,9.546,0.080,-0.028,-0.063,15.112,-11.229,8.909,-0.411,3.697,4.366,happy
0.82,1669,3645,3093,893,3264,0,2954,2191,0,0,0,0,0,43,0,405,0.749,3.847,9.378,0.090,0.027,0.054,17.913,-12.483,5.916,-2.098,0.728,-1.425,happy
0.83,1664,3659,3133,797,3287,0,2906,1598,0,0,0,0,0,0,0,456,1.147,3.778,9.278,0.110,0.011,0.015,13.161,-8.416,6.096,-2.431,0.055,-3.112,happy
0.84,1520,3682,3154,663,3298,0,2863,1177,1593,2551,0,2475,2583,1663,1567,3103,1.429,3.725,9.105,0.073,0.031,0.020,5.485,-6.699,11.222,-3.427,0.235,-4.366,happy
0.85,1510,3684,3162,698,3301,0,2789,944,0,0,0,0,0,0,30,275,1.264,3.673,9.117,0.064,-0.018,-0.023,-0.785,-1.978,13.762,-3.191,-0.260,-3.915,happy
0.86,1607,3713,3178,763,3297,0,2729,623,0,0,0,13,0,0,0,199,1.355,3.512,9.052,0.040,0.013,-0.065,-0.960,3.019,17.657,-2.102,-0.723,-2.115,happy
0.87,1659,3711,3202,845,3280,0,2640,624,0,0,0,0,9,0,0,176,1.525,3.752,9.122,0.010,0.050,-0.020,-0.871,4.963,18.414,-1.139,-0.838,-1.290,happy
0.88,1649,3735,3255,1047,3298,0,2529,593,0,0,0,0,0,0,0,102,0.931,3.709,9.340,0.062,-0.029,0.027,1.132,7.039,16.415,0.600,-1.283,-0.301,happy
0.89,1725,3741,3298,1182,3312,0,2377,77,0,0,0,0,0,0,0,53,1.082,3.591,9.311,0.111,-0.028,-0.010,1.235,5.447,14.760,1.928,-1.537,-0.397,happy
0.90,1775,3760,3319,1342,3305,0,2276,0,0,0,0,0,0,0,0,27,1.346,3.476,9.045,0.158,-0.083,-0.055,0.869,4.065,14.262,2.326,-1.702,-0.547,happy
0.91,1755,3715,3289,1328,3248,0,2142,0,0,0,0,0,0,0,0,33,1.367,3.613,9.160,0.200,-0.015,-0.051,0.711,2.356,14.442,2.689,-1.668,-0.687,happy
0.92,1840,3776,3365,1386,3278,0,2003,0,0,0,0,0,0,0,61,19,1.441,3.728,9.129,0.230,-0.010,-0.054,-0.227,1.178,14.107,2.975,-1.612,-0.762,happy
0.93,1968,3780,3395,1446,3201,0,1718,0,0,0,0,57,0,0,0,0,1.243,3.713,9.139,0.275,0.018,-0.102,-0.565,-1.709,14.588,3.343,-1.449,-0.910,happy
0.94,2109,3801,3421,1530,3024,0,1265,0,0,0,0,0,1,0,0,0,1.415,4.010,8.945,0.244,0.071,-0.089,-1.015,-2.598,13.352,3.340,-1.110,-1.377,happy
0.95,2144,3793,3439,1671,2751,0,1098,0,0,0,0,0,0,0,0,0,1.001,3.919,9.232,0.232,0.084,-0.083,-1.262,-3.077,13.269,3.090,-0.651,-1.591,happy
0.96,2239,3819,3463,1830,2493,0,861,0,0,0,0,0,0,0,0,0,1.243,3.864,9.203,0.256,0.073,-0.097,-1.240,-4.602,14.708,2.974,-0.015,-1.637,happy
0.97,2380,3823,3475,1883,2473,0,640,0,0,0,0,0,0,0,0,0,1.199,3.821,9.141,0.258,0.070,-0.147,-1.262,-7.013,16.369,3.003,0.554,-1.655,happy
0.98,2506,3819,3485,2006,2405,0,444,0,1,0,0,0,0,0,0,0,1.458,3.637,9.189,0.285,0.074,-0.182,-2.289,-9.857,16.996,3.047,0.777,-1.653,happy
0.99,2601,3820,3488,2038,2295,0,488,0,3,0,92,0,0,0,0,44,1.760,3.498,8.763,0.466,0.090,-0.116,-2.471,-12.713,15.495,3.052,0.703,-1.492,happy
1.00,2740,3823,3510,2079,2114,0,400,0,1571,2568,0,2491,2594,1683,1583,3116,1.250,3.831,9.153,0.585,0.059,-0.097,-1.587,-15.704,10.580,2.862,0.677,-1.296,happy
1.01,2981,3841,3554,2241,2000,0,323,0,1595,2553,0,2491,2587,1675,1545,3112,0.888,4.384,8.950,0.723,0.064,-0.027,-3.912,-17.394,0.515,1.537,-0.157,-1.102,happy
1.02,3165,3856,3570,2381,1937,0,193,0,1173,0,0,5,2383,2021,2143,0,0.984,4.326,9.103,0.872,0.115,0.081,-3.915,-18.514,-0.615,0.071,-0.401,-0.984,happy
1.03,3248,3673,3488,2304,1855,0,117,0,0,0,0,0,0,0,0,0,1.290,4.465,8.839,1.058,0.170,0.171,-5.713,-18.957,-4.197,-1.173,-0.047,-0.779,happy
1.04,3330,3847,3579,2512,1702,0,53,0,1591,2671,0,2535,2617,1769,1611,3133,1.470,4.178,8.904,1.253,0.193,0.250,-5.777,-19.613,-7.331,-2.123,0.712,-0.162,happy
1.05,3408,3830,3569,2496,1695,0,0,0,1562,2630,0,2591,2663,1861,1683,3131,1.654,3.783,8.923,1.642,0.299,0.369,7.772,2.497,19.613,-1.523,0.445,-0.052,happy
1.06,3422,3715,3465,2399,1337,0,0,0,0,0,0,0,0,0,391,2110,1.484,3.900,8.643,2.372,0.468,0.437,-8.011,-9.357,14.566,-3.603,0.064,0.946,happy
1.07,3477,3667,3425,2067,1143,0,0,0,0,0,0,0,0,0,1086,2766,1.211,3.309,9.165,2.951,0.519,0.441,-3.512,-11.892,18.064,-2.364,-0.094,0.662,happy
1.08,3460,2755,3010,1527,963,0,0,0,0,0,0,0,68,0,1627,3282,-1.290,3.290,13.194,4.356,0.228,0.167,2.650,-1.482,8.739,-2.336,-0.917,0.754,happy
1.09,3354,2022,1387,823,0,0,0,0,3,0,0,0,822,0,2732,3765,6.091,7.891,15.847,6.257,-0.193,-1.235,0.311,-3.855,12.759,-0.561,1.914,1.061,happy
1.10,2823,896,0,0,0,0,0,0,77,540,140,235,1629,1,3069,3931,1.216,7.087,16.065,8.194,0.256,-2.541,1.111,-4.281,10.985,-0.305,0.895,0.399,happy
1.11,1511,0,0,0,0,0,0,0,79,540,1021,555,1904,21,3181,3989,2.897,11.123,8.863,8.731,0.235,-2.723,1.312,-3.577,9.907,-0.170,0.473,0.217,happy
1.12,0,0,0,0,0,0,0,0,87,939,1423,1041,2355,25,3388,4051,1.185,12.922,19.613,3.565,-1.906,-2.827,1.027,-2.531,8.782,-0.120,-0.087,0.048,happy
1.13,0,0,0,0,0,0,0,0,123,1113,1914,1109,2495,25,3355,3815,15.455,5.746,19.613,-1.343,0.056,-1.618,1.118,-3.270,9.560,0.022,0.024,0.168,happy
1.14,0,0,0,0,0,0,0,0,124,1325,2034,1148,2712,31,3579,4047,4.748,-1.372,9.567,-2.817,0.946,-0.402,1.697,-3.601,9.522,0.010,0.108,0.110,happy
1.15,0,0,0,0,0,0,0,0,115,1391,2060,1365,2861,35,3565,3979,2.267,-1.010,7.647,-3.230,-0.876,0.203,1.551,-3.294,9.345,0.024,0.088,0.056,happy
1.16,0,0,0,0,0,0,0,0,135,1625,2116,1403,2936,30,3491,3932,1.611,0.852,9.117,-4.109,-1.177,0.414,1.425,-3.443,9.773,0.074,0.109,0.016,happy
1.17,0,0,0,0,0,0,0,0,156,1696,2147,1591,2949,39,3411,3895,0.407,1.549,8.650,-4.609,-1.276,0.418,1.271,-3.486,9.565,0.102,0.102,0.082,happy
1.18,0,0,0,0,0,0,0,0,136,1643,2126,1646,2940,31,3374,3894,-0.464,2.461,8.047,-4.867,-1.504,0.400,1.494,-3.376,9.390,0.085,0.102,0.110,happy
1.19,0,0,0,0,0,0,0,0,103,1626,2116,1671,2916,27,3277,3775,-0.467,3.618,8.205,-4.968,-1.669,0.367,1.355,-3.294,9.555,0.050,0.084,0.122,happy
1.20,0,0,0,0,0,0,0,0,117,1611,2106,1723,2851,41,3117,3618,-2.727,6.337,11.811,-5.173,-2.061,0.316,1.360,-3.182,9.278,-0.040,0.115,0.141,happy
1.21,0,0,0,0,0,0,0,0,585,1691,2218,2092,2851,47,2963,3719,-0.565,8.080,12.112,-5.355,-2.097,0.357,1.453,-3.448,9.316,-0.009,0.149,0.145,happy
1.22,0,0,0,0,0,0,0,0,815,1668,2198,2207,2857,48,2904,3692,-0.074,10.511,14.092,-5.219,-1.537,1.001,1.410,-3.431,9.505,0.017,0.144,0.147,happy
1.23,0,0,0,0,0,0,0,0,1787,1881,2285,2480,2825,47,2729,3615,1.875,14.705,17.741,-5.045,-1.188,1.688,1.123,-1.832,11.169,-0.844,-0.036,0.070,happy
1.24,0,0,0,0,0,0,0,0,2491,2056,2183,2680,2747,47,2515,3411,0.680,19.613,16.247,-4.918,-0.198,2.471,1.353,-3.385,8.914,-0.189,0.052,0.033,happy
1.25,0,0,0,0,0,0,0,0,2799,2293,2218,2798,2772,47,2415,3288,-1.676,19.613,12.072,-4.132,-0.155,2.835,1.077,-3.280,9.359,-0.245,0.024,0.001,happy
1.26,12,0,0,0,190,0,0,0,3301,2597,2224,3003,2693,0,1710,2595,-5.224,19.613,-2.600,-3.155,-0.944,2.888,1.264,-3.663,9.697,-0.273,0.039,-0.015,happy
1.27,147,0,0,0,365,0,0,0,3611,2763,2239,3189,2519,46,691,1661,-11.344,19.613,-4.772,-1.004,-0.388,1.850,1.496,-3.309,9.074,-0.204,-0.070,-0.050,happy
1.28,208,0,0,0,455,0,0,0,3707,2847,2178,3253,2315,46,495,1341,-7.159,18.323,-5.768,0.419,0.025,0.083,1.575,-3.716,9.194,-0.275,0.059,-0.050,happy
1.29,95,0,0,0,202,0,0,0,3881,2887,2259,3368,1653,4,3,375,0.065,11.284,-1.087,2.305,0.400,-1.107,0.840,-2.674,9.629,-0.574,0.173,-0.146,happy
1.30,0,0,0,0,260,0,0,0,3993,2661,2265,3465,795,5,2,297,5.279,-0.491,19.613,1.144,-0.028,-0.592,1.180,-3.438,9.225,-0.667,0.044,-0.169,happy
1.31,0,0,0,0,256,0,413,1712,4009,2583,2313,3493,469,3,3,260,3.005,-1.714,4.829,3.349,-0.425,-0.255,1.279,-3.311,9.361,-0.733,0.101,-0.189,happy
1.32,0,0,0,0,536,0,962,2716,4095,2456,2316,3621,153,6,3,148,-1.331,6.900,14.597,2.824,-1.062,0.495,2.076,-2.691,9.594,-1.479,0.194,-0.385,happy
1.33,0,0,0,0,1062,0,1823,2985,4095,2125,2444,3619,51,0,1,73,19.613,4.288,14.791,1.931,-1.264,0.357,3.646,-4.013,10.669,-2.647,0.617,-0.373,happy
1.34,0,1035,0,0,1648,0,2405,3215,4095,1837,2439,3501,3,0,0,38,1.688,4.755,12.175,0.985,1.402,-0.267,3.366,-4.563,10.985,-3.136,1.076,-0.099,happy
1.35,0,1925,0,0,2153,0,2605,3355,4095,159,1824,2712,0,0,0,17,0.879,3.852,11.672,0.406,1.120,-0.110,1.185,-2.825,15.522,-4.366,1.013,1.494,happy
1.36,0,2472,0,0,2357,0,2832,3426,3927,0,0,709,0,0,0,0,0.761,3.345,10.446,0.372,0.748,-0.321,2.842,-5.899,15.479,-4.366,1.125,3.677,happy
1.37,0,2687,0,0,2445,0,2918,3451,3257,0,0,179,0,0,0,0,1.307,2.629,9.931,0.417,0.655,-0.569,3.551,-6.462,14.360,-4.366,1.189,4.153,happy
1.38,0,2875,216,0,2535,0,2985,3458,2302,0,0,0,0,31,0,0,1.231,3.019,10.008,0.499,0.384,-0.593,2.200,-8.351,13.580,-4.366,1.689,4.366,happy
1.39,0,2981,919,0,2650,0,3029,3473,1300,0,0,0,0,0,0,0,1.125,3.716,9.902,0.463,0.052,-0.431,-1.571,-11.140,13.120,-4.366,1.917,4.198,happy
1.40,129,3068,1559,0,2762,0,3070,3458,0,0,0,93,0,0,0,0,1.010,3.405,9.847,0.308,0.100,-0.046,-2.705,-1.559,19.613,-1.149,1.066,4.366,happy
1.41,225,2929,1925,0,2701,0,3056,3233,0,0,0,0,0,0,0,0,1.513,3.977,10.302,0.204,0.183,0.020,2.394,-4.032,19.613,0.364,-1.721,3.671,happy
1.42,302,3200,2114,0,2915,0,3110,3422,0,0,0,0,0,0,0,0,1.192,3.218,9.462,0.203,-0.002,0.075,12.704,-0.309,7.915,1.412,-1.501,2.846,happy
1.43,302,3248,2256,0,2971,0,3101,3375,0,0,0,0,0,43,0,0,1.099,3.318,9.730,0.209,0.040,-0.020,11.626,3.546,5.890,1.541,-1.621,1.430,happy
1.44,323,3296,2422,50,3035,0,3083,3301,0,17,0,0,0,0,0,0,1.338,3.017,9.364,0.238,-0.007,-0.059,10.499,0.982,6.857,1.687,-1.813,-0.021,happy
1.45,455,3230,2463,134,3063,0,3011,3114,1,0,0,0,0,0,0,0,1.271,3.220,9.373,0.260,-0.052,-0.076,8.689,0.385,8.437,1.955,-1.986,-1.085,happy
1.46,496,3373,2610,183,3135,0,3006,3071,0,0,0,0,0,0,0,0,1.204,3.273,9.378,0.229,-0.141,-0.087,4.975,-0.227,10.283,2.388,-2.026,-1.842,happy
1.47,582,3440,2727,260,3193,0,2956,2852,0,0,0,0,0,0,0,0,1.365,3.261,9.330,0.245,-0.092,-0.082,0.211,-0.962,10.769,2.914,-2.237,-2.065,happy
1.48,621,3498,2829,348,3209,0,2888,2559,0,0,0,0,0,0,0,0,1.262,3.361,9.345,0.249,-0.035,-0.074,-3.512,-1.243,9.254,3.482,-2.456,-1.295,happy
1.49,637,3557,2934,429,3254,0,2821,2323,0,0,0,0,0,0,0,0,1.171,3.318,9.251,0.252,-0.064,-0.058,-2.150,-2.866,11.061,3.794,-2.222,-0.511,happy
1.50,684,3603,3033,635,3271,0,2736,2027,0,0,0,0,0,0,0,0,1.314,3.491,9.290,0.253,-0.065,-0.105,-1.271,-3.905,11.784,3.983,-2.252,-0.504,happy
1.51,846,3650,3132,863,3304,0,2649,1732,0,0,0,0,0,0,0,0,1.391,3.563,9.163,0.282,-0.091,-0.158,-1.113,-5.004,12.852,4.021,-2.551,-0.938,happy
1.52,1047,3692,3216,1154,3319,0,2558,1487,51,0,0,0,0,0,0,0,1.326,3.596,9.246,0.288,-0.046,-0.161,-1.006,-6.950,16.944,4.191,-2.373,-1.134,happy
1.53,1257,3723,3289,1422,3343,0,2459,827,0,0,0,0,0,55,0,0,1.209,3.742,9.270,0.208,-0.048,-0.130,-1.803,-7.264,17.770,4.177,-2.307,-1.149,happy
1.54,1600,3756,3342,1641,3351,0,2283,0,1579,2567,0,2507,2599,1607,1583,3115,1.293,3.704,9.263,0.267,-0.075,-0.107,-1.568,-10.659,17.439,3.548,-2.550,-1.231,happy
1.55,1899,3778,3399,1767,3346,0,2026,0,1389,3,0,4,2401,2119,2165,0,1.444,3.723,9.179,0.283,-0.037,-0.112,0.196,-19.613,18.390,2.760,-2.746,-2.127,happy
1.56,2181,3809,3442,1939,3264,0,1642,0,0,27,0,5,0,0,0,0,1.279,3.584,9.002,0.344,0.012,-0.097,0.314,-19.613,10.669,3.030,-1.809,-2.747,happy
1.57,2388,3824,3481,2068,2997,0,883,0,0,0,0,0,0,7,0,0,1.334,3.970,8.878,0.367,0.137,-0.081,-14.224,-19.613,-11.356,1.082,-1.416,-2.188,happy
1.58,2597,3849,3514,2235,2287,0,363,0,1593,2552,0,2491,2583,1671,1567,3113,2.006,2.899,9.419,0.469,0.241,-0.051,-10.544,-19.613,-9.689,-0.468,-0.631,-1.597,happy
1.59,2823,3877,3541,2423,1965,0,263,0,0,0,0,0,0,0,0,0,1.860,3.919,8.945,0.919,0.196,0.172,-3.773,-4.697,2.612,-2.597,2.275,-0.058,happy
1.60,2951,3856,3561,2495,1850,0,118,0,25,0,0,0,18,0,0,0,1.743,4.302,9.043,1.021,0.238,0.170,2.255,-3.661,19.613,-1.545,1.860,-0.227,happy
1.61,3084,3852,3568,2610,1600,0,0,0,0,0,0,0,0,0,0,89,1.180,3.919,9.199,1.135,0.253,0.137,3.488,3.505,9.673,-1.840,0.010,-0.681,happy
1.62,3229,3840,3600,2683,1558,0,0,0,0,0,0,0,0,0,0,749,1.044,4.302,9.232,1.397,0.310,0.136,-0.960,3.800,3.608,-2.897,0.300,0.275,happy
1.63,3279,3759,3531,2685,1412,0,0,0,0,20,0,0,0,0,179,1468,0.776,3.816,9.567,1.800,0.578,0.197,-6.440,-6.515,15.936,-2.917,0.461,0.821,happy
1.64,3435,3682,3511,2704,944,0,0,0,0,0,0,0,2,0,1349,2909,2.138,2.957,9.993,2.581,1.039,0.453,3.160,-5.128,11.246,-2.573,-0.293,0.537,happy
1.65,3472,3329,3431,2288,691,0,0,0,71,0,0,0,93,0,2069,3367,3.481,3.838,10.518,3.305,1.005,0.444,12.151,-15.945,13.089,-2.141,1.297,0.541,happy
1.66,3473,2586,2928,1597,110,0,0,0,12,67,12,0,1123,0,2803,3865,0.426,1.267,13.048,4.914,0.424,-0.634,-0.749,-3.895,12.589,-0.283,1.256,0.529,happy
1.67,3273,1642,1305,941,0,0,0,0,69,459,2,0,1517,0,2811,3867,4.592,6.551,15.148,6.815,-0.023,-1.903,1.494,-3.764,11.042,-0.247,1.112,0.402,happy
1.68,1757,459,0,0,0,0,0,0,73,701,2,35,2169,9,3228,3988,1.197,8.088,11.131,7.772,0.272,-2.805,1.271,-3.649,9.981,-0.254,0.147,0.120,happy
1.69,1042,0,0,0,0,0,0,0,37,951,0,0,2396,0,3353,4014,2.911,11.497,11.866,7.361,0.563,-2.786,1.784,-3.584,10.118,-0.039,0.170,0.094,happy
1.70,327,0,0,0,0,0,0,0,21,1080,0,2,2583,0,3501,3979,3.663,12.323,19.544,4.513,0.274,-2.574,1.460,-2.957,10.005,0.009,0.102,0.045,happy
1.71,0,0,0,0,0,0,0,0,40,1039,0,4,2571,0,3231,3389,9.297,2.693,19.613,1.745,0.422,-3.122,1.743,-3.294,9.689,0.036,0.184,0.075,happy
1.72,0,0,0,0,0,0,0,0,43,1168,7,22,2890,0,3647,4073,11.341,9.845,19.613,-0.202,-0.096,-1.085,1.791,-2.808,9.450,-0.003,0.162,0.069,happy
1.73,0,0,0,0,0,0,0,0,1615,2548,7,2487,2578,1671,1573,3103,8.200,1.319,10.956,-1.092,0.927,-0.485,1.858,-3.414,9.601,-0.010,0.212,0.058,happy
1.74,0,0,0,0,0,0,0,0,25,1317,524,58,3213,0,3747,4047,3.800,-0.965,5.701,-1.725,0.498,0.387,1.709,-2.986,9.620,-0.062,0.035,-0.002,happy
1.75,0,0,0,0,0,0,0,0,19,1299,1021,103,3248,6,3753,4020,3.620,-0.402,6.452,-1.968,0.014,0.635,1.489,-3.014,9.282,-0.068,-0.035,0.011,happy
1.76,0,0,0,0,0,0,0,0,28,1337,1292,87,3306,9,3759,3993,4.039,1.001,8.636,-2.417,-0.188,0.824,1.635,-3.077,9.730,-0.047,0.035,0.050,happy
1.77,0,0,0,0,0,0,0,0,69,1429,1359,99,3381,17,3759,3961,4.027,2.490,9.325,-3.088,-0.026,1.021,1.671,-3.136,9.321,-0.050,-0.013,0.044,happy
1.78,0,0,0,0,0,0,0,0,58,1549,1597,111,3421,18,3750,3812,2.899,2.579,8.152,-3.585,-0.088,1.251,1.628,-3.057,9.507,-0.039,0.024,0.038,happy
1.79,0,0,0,0,0,0,0,0,87,1801,1666,103,3495,19,3748,3869,1.753,2.921,7.530,-3.868,-0.241,1.375,1.803,-3.136,9.383,-0.048,0.029,0.039,happy
1.80,0,0,0,0,0,0,0,0,95,1925,1799,123,3540,21,3709,3801,1.137,3.464,7.666,-4.079,-0.477,1.353,1.712,-3.010,9.357,-0.066,-0.000,0.045,happy
1.81,0,0,0,0,0,0,0,0,95,1925,1799,123,3540,21,3709,3801,0.050,4.338,8.911,-4.272,-0.647,1.219,1.712,-3.010,9.357,-0.066,-0.000,0.045,happy
1.82,0,0,0,0,0,0,0,0,115,2067,2014,142,3615,24,3549,3689,-0.888,5.466,10.422,-4.520,-0.842,0.944,1.611,-2.887,9.323,-0.086,0.045,0.149,happy
1.83,0,0,0,0,0,0,0,0,133,2181,2085,267,3663,29,3507,3609,-1.259,7.329,10.587,-4.894,-1.240,0.376,1.686,-3.048,9.390,-0.101,0.050,0.198,happy
1.84,0,0,0,0,0,0,0,0,43,2392,2126,677,3732,11,3529,3389,0.208,9.723,10.532,-4.568,-1.803,0.041,0.718,-3.397,8.416,-0.146,0.036,0.208,happy
1.85,0,0,0,0,0,0,0,0,60,2525,2055,787,3795,20,3591,3311,2.672,11.413,11.499,-4.324,-1.800,0.016,1.726,-3.314,9.649,-0.147,-0.003,0.216,happy
1.86,0,0,0,0,0,0,0,0,109,2719,2208,979,3861,27,3557,3272,4.171,17.353,16.594,-4.478,-2.036,0.272,1.712,-3.572,9.299,-0.123,0.007,0.211,happy
1.87,0,0,0,0,0,0,0,0,149,2835,2218,1039,3895,35,3496,3197,4.853,17.509,11.432,-4.353,-1.816,1.047,1.702,-2.947,8.914,-0.178,0.053,0.222,happy
1.88,0,0,0,0,0,0,0,0,203,2908,2226,1331,3927,50,3369,3018,0.294,16.190,8.957,-3.435,-2.242,1.875,1.755,-3.376,9.261,-0.191,0.057,0.263,happy
1.89,0,0,0,0,0,0,0,0,619,3046,2239,1759,3931,51,3068,2720,-1.865,15.136,7.254,-2.699,-1.977,2.429,1.841,-3.457,9.026,-0.238,0.104,0.157,happy
1.90,0,0,0,0,163,0,0,0,949,3135,2290,1823,3959,48,2827,2483,-7.566,14.995,3.397,-1.690,-0.750,2.291,1.745,-3.431,9.103,-0.253,0.100,0.134,happy
1.91,22,0,0,0,262,0,0,0,1775,3127,2188,2077,3669,53,2103,1755,-6.460,16.506,-5.842,-0.339,-0.881,1.366,1.556,-3.661,9.359,-0.324,0.047,0.033,happy
1.92,16,0,0,0,273,0,0,0,2367,3407,2265,2572,3683,47,1017,901,-3.237,13.549,-4.477,1.904,-1.070,0.874,1.243,-3.936,9.292,-0.104,0.086,0.184,happy
1.93,0,0,0,0,339,0,0,0,1241,3431,1988,2632,2247,2063,245,699,10.405,7.192,3.493,3.188,1.060,1.668,1.707,-3.158,9.488,-0.266,0.051,0.127,happy
1.94,0,0,0,0,272,0,259,0,2885,3542,2285,2829,2931,77,183,549,-0.496,-0.996,13.539,2.005,0.884,1.542,1.504,-3.534,9.129,-0.655,0.065,-0.121,happy
1.95,0,0,0,0,483,0,972,1215,3082,3545,2270,2904,2360,4,13,235,-8.796,-2.042,13.965,2.582,0.852,0.256,1.358,-3.519,9.335,-0.740,-0.010,-0.043,happy
1.96,0,0,0,0,1051,0,1987,2559,3147,3518,2313,2927,1955,6,3,249,11.672,8.049,19.613,3.200,1.265,-0.803,1.647,-3.567,9.718,-0.999,0.035,-0.077,happy
1.97,8,593,0,0,1677,0,2448,2964,3247,3191,2346,2859,1045,5,3,155,-0.800,3.287,10.027,1.055,3.098,-0.509,2.014,-1.870,9.984,-2.298,0.255,-0.173,happy
1.98,439,1392,0,0,2064,0,2676,3250,3159,2363,2316,2303,411,5,2,91,4.197,3.651,8.554,0.740,1.852,-0.559,4.405,-0.953,12.699,-4.366,0.433,-0.054,happy
1.99,582,1904,0,0,2369,0,2832,3403,3271,1783,2178,1677,235,3,0,44,-0.163,3.764,10.831,0.334,1.107,-0.565,0.297,-2.780,16.563,-4.366,0.007,0.374,happy
2.00,829,2405,0,0,2514,0,2986,3481,1589,2554,0,2495,2579,1655,1576,3103,0.156,2.559,10.276,0.316,0.815,-0.386,4.843,-9.088,16.597,-4.366,-0.661,1.232,happy
2.01,944,2758,0,0,2701,0,2874,3526,688,25,28,0,0,0,0,18,1.092,4.128,10.508,0.193,0.313,-0.290,3.407,-13.008,13.848,-4.366,-0.655,2.606,happy
2.02,1170,2891,125,0,2815,0,3109,3503,0,0,0,0,0,0,0,12,1.238,3.601,9.656,0.227,0.199,-0.067,6.055,-10.084,18.713,-4.049,-0.496,2.529,happy
2.03,1206,2960,385,0,2895,0,3126,3479,0,0,0,0,0,53,0,19,1.262,3.740,9.641,0.168,0.166,-0.029,5.660,-7.274,19.149,-1.247,-0.132,2.853,happy
2.04,1223,2998,715,0,2966,0,3136,3467,0,0,0,0,0,0,0,8,1.341,3.419,9.455,0.143,0.217,0.010,3.117,-4.322,19.613,1.328,0.532,2.747,happy
2.05,1245,3054,1005,0,3014,0,3127,3451,0,0,0,0,0,0,0,9,1.190,3.053,9.263,0.127,0.213,-0.031,2.641,1.937,6.582,1.647,0.478,3.317,happy
2.06,1308,3106,1264,0,3045,0,3105,3390,0,0,0,0,0,0,0,16,1.077,3.297,9.570,0.184,0.116,-0.093,3.151,5.397,6.158,2.057,0.477,3.375,happy
2.07,1370,3136,1515,0,3081,0,3071,3328,0,0,0,0,0,0,0,19,1.257,3.381,9.474,0.194,0.051,-0.107,5.454,0.469,8.792,2.197,-0.017,2.823,happy
2.08,1411,3172,1757,0,3105,0,3039,3251,0,0,0,0,0,0,0,5,1.140,3.393,9.357,0.192,0.026,-0.090,6.795,0.012,9.534,2.898,-0.311,2.171,happy
2.09,1475,3202,1851,0,3120,0,3007,3169,0,0,0,0,0,0,0,0,1.061,3.517,9.486,0.179,-0.005,-0.069,7.262,0.022,8.033,3.253,-0.713,1.293,happy
2.10,1521,3266,1987,19,3135,0,2976,3085,0,29,0,0,0,0,0,0,1.058,3.402,9.416,0.171,-0.006,-0.062,5.875,-0.086,7.061,3.573,-1.097,0.473,happy
2.11,1554,3277,2123,73,3142,0,2940,2982,0,0,0,0,0,0,0,1,1.082,3.352,9.232,0.179,0.000,-0.058,4.379,-0.481,6.558,3.636,-1.617,-0.205,happy
2.12,1415,3094,2042,94,2947,0,2704,2691,6,0,0,0,0,0,0,0,1.178,3.450,9.206,0.187,-0.019,-0.061,3.589,-1.686,7.046,3.723,-1.846,-0.713,happy
2.13,1610,3341,2366,203,3173,0,2885,2787,0,0,0,0,0,0,0,0,1.125,3.369,9.256,0.184,-0.056,-0.064,2.533,-2.440,7.999,3.891,-1.796,-0.981,happy
2.14,1669,3400,2532,295,3216,0,2845,2590,0,0,0,0,9,0,0,0,1.171,3.484,9.069,0.205,-0.070,-0.080,0.917,-4.118,11.308,4.199,-1.903,-1.064,happy
2.15,1771,3462,2731,466,3250,0,2801,2387,0,0,0,0,0,0,0,0,1.329,3.567,9.112,0.246,-0.068,-0.086,2.368,-6.060,13.271,4.366,-1.871,-1.247,happy
2.16,1898,3517,2867,738,3281,0,2753,2160,0,17,0,0,0,0,0,0,1.233,3.608,9.263,0.242,-0.074,-0.059,3.026,-7.216,14.952,4.366,-1.962,-1.495,happy
2.17,2067,3583,3015,1143,3323,0,2689,1907,0,0,0,0,0,0,0,0,1.211,3.737,9.330,0.211,0.008,-0.062,5.780,-9.914,18.239,4.366,-1.696,-2.332,happy
2.18,2262,3634,3147,1534,3351,0,2610,1535,0,0,130,9,0,0,1,0,1.190,3.833,9.153,0.168,0.050,-0.034,0.378,-15.124,18.375,3.987,-1.418,-3.362,happy
2.19,2377,3664,3184,1819,3345,0,2391,144,1575,2629,0,2599,2659,1847,1675,3167,1.061,3.560,9.503,0.196,0.112,-0.052,-3.019,-19.486,17.296,3.358,-1.991,-3.466,happy
2.20,2611,3717,3318,2002,3309,0,2062,0,1607,2569,0,2505,2599,1692,1583,3117,1.350,3.749,9.148,0.262,0.119,-0.042,-5.997,-19.613,7.468,2.865,-1.281,-2.688,happy
2.21,2766,3730,3379,2199,3088,0,1472,0,0,0,0,0,0,0,0,0,1.116,3.778,9.093,0.274,0.170,-0.011,-12.529,-19.613,-15.019,0.261,-1.674,-1.647,happy
2.22,2928,3764,3428,2367,2367,0,494,0,0,0,5,0,0,0,0,0,1.250,3.701,9.299,0.308,0.227,-0.051,-9.840,-19.613,-17.403,-1.970,0.270,-0.954,happy
2.23,3029,3776,3470,2498,2090,0,263,0,1591,2587,0,2533,2644,1797,1623,3145,1.293,3.594,9.347,0.861,0.091,0.179,7.089,-0.438,19.613,-1.056,2.008,0.639,happy
2.24,3132,3797,3498,2631,1835,0,88,0,0,0,0,0,0,0,0,1123,1.269,3.857,9.148,1.138,0.207,0.245,-0.402,2.550,-0.879,-4.016,-0.580,0.283,happy
2.25,3179,3790,3509,2640,1727,0,0,0,0,0,0,0,0,0,0,1123,0.414,3.517,9.105,1.407,0.300,0.233,-0.402,-11.971,19.613,-3.228,0.100,0.968,happy
2.26,3250,3787,3517,2626,1590,0,0,0,1465,0,0,134,2479,1876,1677,2739,1.317,3.256,9.550,1.702,0.316,0.230,0.644,-5.267,12.673,-2.700,-0.401,0.536,happy
2.27,3344,3698,3487,2335,1102,0,0,0,0,0,0,0,43,0,1635,3237,2.689,2.818,9.632,2.668,0.566,0.445,5.679,-3.864,8.195,-2.765,-0.445,0.582,happy
2.28,3378,3143,3312,1810,739,0,0,0,0,0,0,0,1085,0,2705,3731,1.314,2.693,11.466,3.808,0.598,0.369,1.070,-2.497,10.216,-0.354,1.991,1.010,happy
2.29,3363,2273,2535,1225,0,0,0,0,26,525,0,11,1930,0,3087,3867,-3.587,3.527,14.480,5.632,-0.274,-0.414,2.009,-4.164,10.693,-0.210,1.120,0.488,happy
2.30,2613,1126,68,130,0,0,0,0,48,595,43,3,2165,0,3215,3912,4.726,6.776,14.236,7.413,-0.798,-1.751,1.568,-3.531,9.981,-0.176,0.508,0.203,happy
2.31,1505,0,0,0,0,0,0,0,47,893,2,77,2577,25,3425,4021,1.709,13.372,12.816,7.301,-0.368,-2.419,1.836,-3.400,9.902,0.002,0.294,0.119,happy
2.32,447,0,0,0,0,0,0,0,58,1051,0,71,2642,4,3327,3731,3.057,12.361,19.613,3.907,-1.070,-2.182,1.336,-3.127,9.816,0.023,0.247,0.141,happy
2.33,0,0,0,0,0,0,0,0,70,1143,51,71,2875,1,3603,4025,6.304,-0.860,19.613,0.686,-0.189,-3.553,1.657,-2.909,9.440,0.025,0.233,0.133,happy
2.34,0,0,0,0,0,0,0,0,56,1116,23,180,3027,0,3615,4036,7.185,1.932,14.478,-0.107,-0.413,-2.335,1.884,-3.170,9.392,-0.006,0.109,0.077,happy
2.35,0,0,0,0,0,0,0,0,10,1319,1128,183,3131,16,3751,4036,4.422,-1.499,9.199,-0.314,-0.325,-2.259,1.860,-3.124,9.498,-0.021,0.097,0.079,happy
2.36,0,0,0,0,0,0,0,0,73,1417,1553,211,3259,18,3747,3961,5.765,-1.458,7.958,-1.185,-0.986,-1.565,1.721,-3.041,9.471,-0.090,0.078,0.088,happy
2.37,0,0,0,0,0,0,0,0,76,1611,1840,294,3299,23,3740,3927,6.086,0.204,9.773,-2.155,-1.104,-0.544,1.741,-3.431,10.333,-0.131,0.072,0.109,happy
2.38,0,0,0,0,0,0,0,0,83,1991,2060,532,3433,23,3771,3925,3.115,1.255,9.390,-3.207,-1.102,0.314,1.717,-3.172,9.582,-0.095,0.040,0.153,happy
2.39,0,0,0,0,0,0,0,0,105,2111,2085,703,3391,26,3752,3880,1.073,1.362,7.645,-3.555,-1.333,0.536,1.741,-3.029,9.292,-0.111,0.051,0.179,happy
2.40,0,0,0,0,0,0,0,0,103,2194,2106,711,3495,28,3711,3836,-0.062,1.836,7.494,-3.691,-1.551,0.548,1.697,-3.062,9.361,-0.160,0.032,0.175,happy
2.41,0,0,0,0,0,0,0,0,135,2269,2044,987,3379,35,3433,3571,-1.180,3.476,9.946,-3.949,-1.625,0.416,1.645,-3.170,9.258,-0.172,0.088,0.237,happy
2.42,0,0,0,0,0,0,0,0,141,2279,2088,1257,3387,27,3367,3509,-1.568,5.069,11.028,-4.279,-1.802,0.248,1.539,-3.768,9.546,-0.147,0.060,0.237,happy
2.43,0,0,0,0,0,0,0,0,184,2478,2147,1691,3445,39,3221,3435,-1.183,6.208,11.593,-4.273,-1.795,0.313,1.544,-3.998,9.598,-0.128,0.004,0.156,happy
2.44,0,0,0,0,0,0,0,0,293,2495,2101,1895,3432,47,2915,3259,-0.472,8.396,14.516,-4.302,-1.613,0.636,1.638,-3.347,9.323,-0.085,0.106,0.118,happy
2.45,0,0,0,0,0,0,0,0,478,2553,2039,2089,3420,51,2847,3195,-1.626,10.439,16.673,-4.302,-1.170,0.848,1.697,-3.318,9.175,-0.080,0.091,0.142,happy
2.46,0,0,0,0,0,0,0,0,871,2621,2221,2483,3467,47,2718,3147,-2.703,14.597,19.348,-4.312,-0.667,0.880,1.444,-3.661,9.500,-0.034,0.212,0.089,happy
2.47,0,0,0,0,0,0,0,0,1336,2707,2234,2822,3452,53,2489,2939,-3.156,16.024,15.040,-3.996,-0.778,0.738,1.618,-3.546,9.254,-0.046,0.274,0.078,happy
2.48,18,0,0,0,0,0,0,0,1694,2773,2372,2944,3435,48,2359,2775,-1.247,17.047,4.719,-3.069,-0.253,0.776,1.477,-3.606,9.139,-0.074,0.232,0.082,happy
2.49,214,0,0,0,189,0,0,0,2215,2953,2382,3089,3341,45,1614,2189,-8.305,19.613,0.711,-2.061,-1.523,1.352,1.214,-3.338,9.507,-0.199,0.184,0.037,happy
2.50,375,0,0,0,199,0,0,0,2685,3093,2305,3275,2907,47,729,1453,-7.683,18.426,-18.962,0.337,0.032,1.701,1.475,-4.020,9.354,-0.162,0.179,0.004,happy
2.51,317,0,0,0,131,0,0,0,2893,3119,2249,3363,2779,31,133,1309,-4.903,13.913,1.374,2.622,1.854,-0.309,1.386,-3.929,9.342,-0.153,0.186,0.019,happy
2.52,92,0,0,0,258,0,219,1003,3189,3052,2247,3555,2175,4,3,342,-2.749,-5.555,16.999,1.393,-0.859,-0.102,1.118,-2.035,10.118,-0.649,0.251,-0.161,happy
2.53,30,0,0,0,547,0,774,2686,3325,2759,2275,3800,1226,0,3,123,-1.674,8.535,14.444,2.941,-0.620,-1.436,1.872,-4.037,8.995,-0.747,-0.073,-0.263,happy
2.54,0,0,0,0,875,0,1587,3054,3379,2719,2336,3653,745,5,2,136,4.666,4.616,10.645,1.875,-0.701,-0.056,1.724,-3.663,8.511,-0.859,0.087,-0.299,happy
2.55,0,0,0,0,1346,0,2191,3280,3544,2444,2341,3721,143,5,8,87,2.033,7.355,8.124,1.431,1.305,0.178,2.033,-1.314,9.287,-2.519,0.464,-0.502,happy
2.56,0,1022,0,0,1788,0,2480,3403,3623,1629,2469,3527,5,1,0,57,-0.153,3.687,12.570,0.901,1.200,-0.431,5.638,-5.219,12.517,-4.046,1.558,-0.373,happy
2.57,263,1915,0,0,2145,0,2658,3507,3593,1008,2398,2991,0,3,5,8,0.476,4.192,11.674,0.617,1.041,-0.233,3.062,-2.562,11.875,-4.366,1.972,0.529,happy
2.58,559,2481,0,0,2354,0,2783,3565,2791,71,0,1349,0,0,0,0,-0.611,4.389,12.352,0.590,0.335,-0.251,2.085,-12.385,19.254,-4.366,1.438,2.938,happy
2.59,883,2863,0,0,2497,0,2895,3603,1503,5,0,31,2398,2088,2119,1,0.687,3.117,9.493,0.667,0.002,-0.506,1.360,-7.757,14.447,-4.366,1.347,4.142,happy
2.60,1175,3069,962,0,2599,0,2987,3607,1597,2567,0,2505,2603,1700,1588,3115,1.068,3.591,9.967,0.530,-0.094,-0.505,0.915,-12.002,13.431,-4.366,1.442,3.874,happy
2.61,1392,3209,1797,63,2679,0,3054,3606,1595,0,0,8,12,1491,0,0,1.358,3.251,9.404,0.433,0.100,-0.027,6.349,-7.264,19.613,0.284,-0.720,1.850,happy
2.62,1579,3300,2257,407,2741,0,3050,3580,0,0,0,0,0,0,0,53,1.317,3.800,9.742,0.359,0.010,-0.091,7.180,3.273,6.426,1.149,-0.017,0.743,happy
2.63,1789,3351,2471,622,2802,0,3039,3563,0,0,0,0,0,0,0,0,1.235,4.087,9.608,0.277,0.026,-0.039,6.802,-0.321,9.598,1.330,-0.758,-0.143,happy
2.64,1906,3401,2614,884,2825,0,3008,3521,1592,2584,0,2533,2648,1903,1598,3123,0.579,4.226,10.048,0.167,-0.017,-0.014,7.108,-0.342,10.858,1.958,-1.062,-0.869,happy
2.65,2093,3457,2789,1277,2885,0,2951,3456,0,0,0,0,0,0,0,0,1.082,3.646,9.380,0.131,-0.062,0.006,3.907,-0.280,10.204,2.630,-1.136,-1.398,happy
2.66,2215,3521,2931,1490,2918,0,2880,3339,0,0,0,0,0,0,0,0,1.116,3.766,9.163,0.109,-0.041,0.020,-0.591,-1.350,7.994,3.117,-1.769,-1.239,happy
2.67,2238,3543,3024,1628,2932,0,2799,3200,0,0,0,0,0,0,0,7,1.001,3.596,9.189,-0.006,0.087,-0.008,0.053,-3.160,9.697,3.488,-1.492,-1.050,happy
2.68,2192,3558,3071,1712,2907,0,2647,3088,0,0,23,0,0,0,0,0,1.164,3.634,9.246,-0.070,0.141,0.041,0.141,-4.156,10.616,3.701,-1.650,-1.118,happy
2.69,2134,3634,3216,1858,2953,0,2650,2986,0,0,0,0,0,0,0,0,1.295,3.656,9.306,-0.097,0.121,0.037,0.888,-5.306,10.673,3.859,-1.796,-1.635,happy
2.70,1968,3484,3238,2012,2770,0,2473,2815,0,0,0,0,0,0,0,0,0.862,3.373,9.280,0.003,0.020,0.002,-1.211,-6.005,13.281,3.901,-1.947,-1.881,happy
2.71,2375,3693,3350,2195,2970,0,2494,2629,0,0,0,0,0,0,0,0,0.941,3.431,9.261,0.091,-0.054,-0.011,-1.063,-7.130,15.706,4.023,-2.007,-1.817,happy
2.72,2489,3705,3390,2316,2971,0,2374,2352,0,18,0,0,0,7,0,0,1.147,3.388,9.242,0.088,0.012,-0.032,-0.168,-9.536,16.460,4.235,-1.667,-1.776,happy
2.73,2624,3748,3430,2422,2979,0,2176,1805,0,0,0,0,1,0,0,25,1.135,3.421,9.321,0.098,0.042,-0.042,-3.488,-14.547,15.574,3.690,-2.050,-1.895,happy
2.74,2612,3749,3458,2504,2916,0,1785,1269,0,0,0,0,0,0,0,0,1.097,3.548,9.287,0.046,0.097,-0.038,-2.732,-18.438,14.734,3.336,-2.101,-1.841,happy
2.75,2722,3792,3517,2608,2816,0,1316,0,1597,2553,153,2494,2587,1683,1576,3108,1.137,3.508,9.299,0.034,0.140,-0.048,-4.173,-19.613,3.852,2.459,-1.075,-1.819,happy
2.76,2785,3797,3543,2746,2438,0,763,0,1500,2621,0,2569,2637,1865,1669,3135,1.125,3.630,9.292,0.043,0.226,-0.056,-9.170,-19.613,-1.970,0.629,-0.808,-1.042,happy
2.77,2835,3824,3615,2906,2189,0,176,0,1593,2552,0,2489,2583,1671,1568,3122,1.346,3.393,9.742,0.030,0.291,-0.044,-7.027,-19.613,-4.659,-0.584,-0.193,-0.846,happy
2.78,2888,3842,3650,3050,1873,0,0,0,1595,2551,0,2491,2582,1673,1572,3099,0.785,3.936,9.792,0.424,0.199,0.097,3.488,-6.591,9.507,-1.766,1.315,0.450,happy
2.79,2965,3823,3635,3120,1455,0,0,0,0,0,0,0,0,0,0,0,1.377,3.012,9.340,0.761,0.284,0.160,5.310,2.356,19.613,-0.909,0.455,0.377,happy
2.80,3026,3803,3611,3120,1321,0,0,0,0,0,0,0,0,0,0,885,1.087,3.546,9.601,0.986,0.332,0.241,2.689,-1.444,4.037,-3.332,-0.710,0.154,happy
2.81,3122,3772,3646,3178,1149,0,0,0,0,0,214,0,0,0,71,1421,0.778,3.584,9.495,1.202,0.447,0.341,-1.968,-8.270,15.713,-3.012,-0.461,0.312,happy
2.82,3245,3570,3632,3189,841,0,0,0,0,0,0,0,0,0,478,1917,1.367,3.335,10.005,1.645,0.671,0.505,-2.231,-4.975,14.708,-2.170,-0.332,0.531,happy
2.83,3345,3207,3580,3057,152,0,0,0,0,0,0,0,17,0,1551,2770,1.472,3.388,9.615,2.244,0.682,0.593,4.757,-5.145,10.862,-1.845,-0.486,0.314,happy
2.84,3395,2750,3362,2473,0,0,0,0,0,0,0,0,425,0,2558,3375,1.992,3.223,10.484,2.827,1.041,0.322,2.770,-4.472,11.186,-0.163,1.574,0.850,happy
2.85,3400,2498,2841,2216,0,0,0,0,1653,2551,0,2452,2569,1571,1572,3107,1.259,3.172,11.569,3.737,0.895,-0.080,2.380,-4.096,9.761,-0.064,1.263,0.515,happy
2.86,3360,1436,1851,1783,0,0,0,0,13,217,43,7,1290,0,2957,3737,1.161,3.857,12.780,5.564,0.429,-1.402,3.120,-3.733,9.898,-0.092,1.109,0.526,happy
2.87,2265,657,58,825,0,0,0,0,4,274,0,4,2013,0,3259,3897,1.925,7.058,14.178,6.376,0.625,-2.431,1.961,-3.405,9.936,-0.024,0.846,0.373,happy
2.88,1812,0,0,76,0,0,0,0,9,345,0,0,2255,3,3404,3947,0.453,9.744,13.886,6.793,0.366,-2.637,1.482,-3.259,10.127,-0.024,0.777,0.352,happy
2.89,1087,0,0,0,0,0,0,0,17,599,0,0,2459,0,3485,3973,1.961,9.694,14.107,6.341,0.547,-3.162,0.622,-2.756,10.678,-0.099,0.651,0.283,happy
2.90,105,0,0,0,0,0,0,0,0,465,0,0,2591,0,3596,4027,-1.590,8.396,19.613,3.189,-0.021,-2.854,1.982,-3.261,9.498,-0.064,0.578,0.247,happy
2.91,0,0,0,0,0,0,0,0,31,472,46,0,2761,0,3659,4038,9.424,-0.402,19.149,0.350,0.375,-3.324,1.879,-3.376,9.847,-0.092,0.445,0.176,happy
2.92,0,0,0,0,0,0,0,0,31,859,0,0,2893,0,3708,4063,9.670,-2.813,13.482,-0.534,-0.371,-1.690,1.879,-3.259,9.675,-0.114,0.366,0.145,happy
2.93,0,0,0,0,0,0,0,0,19,1096,0,24,2997,0,3731,4057,7.010,-0.129,7.786,-0.573,-0.144,-1.003,1.808,-3.297,9.553,-0.093,0.280,0.116,happy
2.94,0,0,0,0,0,0,0,0,21,1165,23,47,3063,0,3767,4057,5.756,-0.603,9.108,-0.940,-0.638,-0.245,1.652,-3.280,9.634,-0.060,0.228,0.115,happy
2.95,0,0,0,0,0,0,0,0,25,1293,1138,90,3171,5,3813,4029,7.211,0.067,9.493,-1.473,-0.752,0.178,1.721,-3.026,9.352,-0.083,0.170,0.104,happy
2.96,0,0,0,0,0,0,0,0,30,1365,1369,157,3237,59,3799,4005,5.890,1.693,11.301,-2.045,-0.829,0.709,1.697,-3.215,9.469,-0.085,0.148,0.084,happy
2.97,0,0,0,0,0,0,0,0,26,1491,1620,235,3291,6,3804,3978,3.555,2.107,10.714,-2.803,-0.714,1.101,1.791,-3.270,9.290,-0.094,0.086,0.056,happy
2.98,0,0,0,0,0,0,0,0,41,1745,1863,344,3356,16,3800,3943,1.097,1.800,8.394,-3.327,-0.876,1.238,1.781,-3.299,9.474,-0.092,0.072,0.043,happy
2.99,0,0,0,0,0,0,0,0,31,1915,1957,475,3475,7,3797,3902,0.364,1.925,6.630,-3.467,-1.180,1.161,1.652,-3.409,9.550,-0.090,0.040,0.047,happy
3.00,0,0,0,0,0,0,0,0,40,2031,2027,555,3427,13,3769,3853,0.263,2.358,7.199,-3.479,-1.333,1.002,1.532,-3.251,9.567,-0.073,0.025,0.049,happy
3.01,0,0,0,0,0,0,0,0,58,2213,2080,616,3453,17,3847,3799,-0.802,3.601,9.009,-3.648,-1.322,0.804,1.616,-3.201,9.390,-0.053,0.035,0.075,happy
3.02,0,0,0,0,0,0,0,0,73,2281,2101,635,3509,69,3786,3753,-0.874,4.630,10.262,-3.848,-1.460,0.602,1.697,-3.148,9.328,-0.063,0.017,0.084,happy
3.03,0,0,0,0,0,0,0,0,69,2409,2098,763,3588,21,3699,3615,-0.194,5.825,10.484,-4.035,-1.553,0.469,1.817,-3.168,9.337,-0.121,0.013,0.126,happy
3.04,0,0,0,0,0,0,0,0,76,2447,2121,793,3567,21,3667,3543,-0.819,7.104,12.275,-3.999,-1.615,0.603,1.839,-3.359,9.299,-0.112,0.018,0.139,happy
3.05,0,0,0,0,0,0,0,0,62,2543,2167,1093,3688,20,3529,3407,-0.682,8.803,14.365,-4.038,-1.530,0.681,1.676,-3.282,9.349,-0.091,0.041,0.157,happy
3.06,0,0,0,0,0,0,0,0,67,2605,2190,1383,3705,20,3510,3339,-1.015,10.410,14.722,-3.663,-1.542,0.811,1.604,-3.338,9.182,-0.103,0.063,0.187,happy
3.07,0,0,0,0,0,0,0,0,91,2588,2172,1723,3638,23,3411,3227,-0.601,14.212,16.862,-3.583,-1.204,1.004,1.700,-3.385,9.282,-0.123,0.064,0.202,happy
3.08,0,0,0,0,0,0,0,0,287,2805,2272,2013,3811,47,3403,3211,-2.567,14.997,14.346,-3.396,-1.304,1.225,1.645,-3.531,9.426,-0.131,0.014,0.151,happy
3.09,0,0,0,0,0,0,0,0,677,2941,2259,2121,3860,120,3164,2887,-1.621,14.246,8.006,-2.821,-1.296,1.354,1.666,-3.500,9.292,-0.191,-0.050,0.113,happy
3.10,0,0,0,0,0,0,0,0,812,3047,2249,2248,3879,51,2926,2649,-5.598,15.888,2.521,-2.051,-1.841,1.488,1.678,-3.598,9.385,-0.226,-0.042,0.086,happy
3.11,1,0,0,0,0,0,0,0,1327,3257,2259,2513,3887,51,2459,2086,-5.681,16.917,-6.546,-0.715,-0.886,1.579,1.549,-3.881,9.359,-0.258,0.021,0.007,happy
3.12,16,0,0,0,0,0,0,0,1763,3400,2270,2739,3811,56,1590,1530,-5.768,10.851,-1.516,1.236,0.444,0.484,1.717,-3.903,9.306,-0.190,0.151,0.035,happy
3.13,0,0,0,0,0,0,0,0,1957,3451,2267,2853,3703,47,999,1131,6.393,12.424,7.685,2.130,0.546,0.985,1.535,-4.015,9.199,-0.111,0.146,0.097,happy
3.14,0,0,0,0,0,0,0,0,2155,3503,2272,2927,3485,37,127,717,3.029,4.075,15.316,1.347,1.147,0.371,1.810,-3.759,9.491,-0.061,0.165,0.163,happy
3.15,0,0,0,0,0,0,0,0,2365,3531,2275,2959,3092,16,52,605,3.613,-0.742,12.184,1.369,0.290,0.853,1.990,-2.083,9.601,-0.454,0.148,0.043,happy
3.16,0,0,0,0,0,0,178,0,2534,3540,2267,3042,2858,9,20,473,0.577,-0.129,6.902,1.802,0.719,0.798,1.367,-4.096,9.316,-0.557,0.079,-0.064,happy
3.17,0,0,0,0,148,0,479,1132,2649,3538,2285,3083,2597,7,0,393,-3.359,-1.879,10.697,2.314,0.388,0.326,1.329,-3.991,9.170,-0.584,0.102,-0.073,happy
3.18,0,0,0,0,284,0,932,2460,2932,3495,2308,3247,1821,5,4,204,-2.471,2.749,11.732,2.528,-0.031,-0.260,1.930,-2.677,9.534,-0.801,0.187,-0.051,happy
3.19,0,0,0,0,843,0,1645,2933,3181,3251,2313,3333,935,18,0,151,3.773,5.100,11.238,1.777,-0.357,-0.041,2.282,-2.452,9.591,-1.473,0.369,-0.132,happy
3.20,0,69,0,0,1192,0,2160,3166,3299,2991,2331,3356,685,25,1,89,1.379,3.958,7.997,0.796,1.061,-0.379,2.045,-3.045,9.481,-2.037,0.427,-0.165,happy
3.21,0,1091,0,0,1595,0,2463,3283,3389,2535,2449,3225,243,11,3,56,0.486,2.725,10.281,0.406,1.248,-0.449,1.678,-2.710,9.783,-3.191,0.746,-0.173,happy
3.22,0,1957,0,0,1993,0,2654,3408,3245,1819,2280,2705,151,3,5,5,0.721,3.546,10.671,0.614,1.145,-0.523,2.667,-5.157,14.099,-4.204,0.594,0.618,happy
3.23,80,2644,258,0,2322,0,2769,3487,2863,1146,15,1829,47,0,0,0,0.781,2.873,9.464,0.476,0.649,-0.229,2.523,-6.017,13.973,-4.366,0.455,1.197,happy
3.24,179,2950,1742,6,2486,0,2874,3533,1779,167,0,408,3,5,0,0,1.180,3.589,9.586,0.278,0.080,-0.103,4.192,-9.579,11.442,-4.366,0.770,2.374,happy
3.25,467,3116,2405,338,2640,0,2957,3550,1061,19,0,0,0,0,0,0,1.231,3.213,9.663,0.286,0.012,-0.134,1.286,-11.758,11.226,-4.366,0.756,2.718,happy
3.26,713,3226,2704,785,2785,0,3015,3557,1592,2552,0,2543,2583,1671,1561,3104,1.185,3.242,9.680,0.252,0.047,-0.110,0.575,-11.468,15.479,-3.323,0.815,2.469,happy
3.27,970,3351,2905,1198,2918,0,3054,3542,0,99,0,0,0,0,0,0,1.154,3.328,9.646,0.198,0.036,-0.077,1.386,-7.087,19.613,0.617,0.396,1.797,happy
3.28,945,3183,2769,1329,2741,0,2855,3411,2,0,0,0,0,0,0,7,1.195,3.168,9.584,0.201,0.032,-0.071,3.618,2.727,7.242,1.355,0.395,1.919,happy
3.29,1174,3438,3049,1500,2991,0,3051,3471,0,0,0,22,0,0,21,0,1.235,3.215,9.519,0.224,0.015,-0.071,3.838,1.322,6.862,1.544,0.133,1.596,happy
3.30,1239,3489,3056,1647,3008,0,3012,3405,0,0,0,0,0,0,0,0,1.180,3.431,9.622,0.201,0.017,-0.066,5.143,-1.132,9.536,1.908,-0.237,1.046,happy
3.31,1360,3523,3143,1744,3051,0,3003,3325,1613,2547,0,2488,2587,1690,1567,3102,1.310,3.275,9.397,0.185,0.031,-0.054,5.938,-1.135,10.654,2.594,-0.257,0.498,happy
3.32,1470,3548,3202,1883,3071,0,2935,3179,0,0,0,0,0,0,0,0,1.197,3.278,9.404,0.146,0.012,-0.033,2.241,-1.279,7.192,3.463,-1.117,-0.332,happy
3.33,1557,3597,3251,1953,3131,0,2871,3022,0,8,0,0,0,16,0,0,1.161,3.314,9.357,0.126,0.027,-0.038,1.765,-1.872,5.756,3.516,-1.431,-0.418,happy
3.34,1627,3620,3295,2078,3118,0,2811,2820,0,0,0,0,0,0,0,0,1.252,3.376,9.342,0.116,0.059,-0.065,2.416,-3.393,7.374,3.456,-1.219,-0.667,happy
3.35,1621,3649,3329,2167,3136,0,2754,2639,0,0,0,0,0,0,0,0,1.149,3.426,9.354,0.105,0.064,-0.062,0.383,-4.875,9.993,3.705,-1.663,-0.741,happy
3.36,1594,3674,3371,2296,3167,0,2730,2523,0,0,0,0,0,0,0,0,1.159,3.333,9.292,0.084,0.075,-0.048,0.642,-4.927,9.977,3.721,-1.741,-0.699,happy
3.37,1683,3696,3394,2394,3184,0,2685,2445,0,0,0,0,0,0,0,0,1.135,3.359,9.285,0.047,0.100,-0.044,-2.358,-5.976,12.689,3.814,-2.060,-0.476,happy
3.38,1760,3718,3440,2497,3195,0,2613,2356,0,0,0,0,0,0,19,1,1.101,3.335,9.337,0.018,0.127,-0.051,-5.514,-7.252,14.310,3.896,-2.574,0.516,happy
3.39,1907,3733,3472,2596,3173,583,2508,2278,0,2,0,0,0,0,0,0,1.185,3.357,9.311,0.025,0.121,-0.044,-6.505,-8.851,15.763,3.985,-2.664,1.169,happy
3.40,2017,3755,3493,2690,3182,864,2384,2094,0,0,0,0,0,0,0,0,1.082,3.299,9.347,0.057,0.083,-0.040,-8.009,-11.732,15.232,3.868,-3.266,2.092,happy
3.41,2191,3772,3523,2741,3150,533,2115,1626,0,0,0,31,27,0,7,0,1.085,3.191,9.352,0.101,0.089,-0.058,-9.620,-12.213,10.503,3.183,-3.668,2.585,happy
3.42,2327,3783,3561,2840,3041,0,1658,240,3,0,0,0,0,0,0,0,1.032,3.266,9.376,0.092,0.136,-0.051,-10.436,-11.945,9.086,2.783,-3.455,2.841,happy
3.43,2527,3805,3601,2946,2869,0,1007,0,0,0,0,0,0,0,0,0,0.929,3.290,9.390,0.140,0.116,-0.029,-6.732,-10.908,6.000,1.594,-2.291,2.386,happy
3.44,2662,3822,3618,2993,2640,0,623,0,0,0,0,0,0,0,0,0,0.843,3.376,9.311,0.207,0.083,-0.022,-2.878,-11.339,3.915,0.880,-1.182,1.589,happy
3.45,2739,3834,3632,3041,2309,0,350,0,0,0,0,0,0,0,0,0,0.867,4.056,9.165,0.264,0.074,-0.061,-1.973,-11.856,2.399,0.247,-0.294,0.687,happy
3.46,2821,3839,3645,3091,2165,0,192,0,0,0,0,0,0,0,0,0,0.883,3.215,9.380,0.249,0.076,-0.111,-2.145,-11.248,2.294,-0.382,-0.026,-0.163,happy
3.47,2893,3844,3654,3127,1956,0,0,0,0,0,0,0,0,0,0,0,1.367,2.890,9.052,0.378,0.056,-0.014,-2.471,-11.229,-3.409,-1.591,0.307,-1.109,happy
3.48,2961,3853,3669,3152,1846,0,0,0,0,0,33,0,0,0,0,0,1.099,3.974,9.428,0.462,0.071,0.034,2.768,-3.515,12.040,-1.859,0.749,-0.755,happy
3.49,3003,3853,3683,3195,1693,0,0,0,69,0,0,0,0,0,1,0,1.109,3.531,9.263,0.542,0.101,0.079,4.209,0.350,14.607,-1.896,-0.751,-0.976,happy
3.50,3088,3850,3682,3215,1619,0,0,0,0,0,0,0,0,0,0,0,1.025,3.651,9.359,0.640,0.103,0.124,3.922,2.052,4.685,-1.978,-0.476,-0.108,happy
3.51,3039,3792,3551,3209,1298,0,0,0,0,83,0,0,0,0,0,75,0.843,3.476,9.170,0.754,0.145,0.176,3.115,-0.057,6.689,-2.444,0.331,0.907,happy
3.52,3197,3843,3691,3254,1281,0,0,0,0,535,0,0,37,0,573,255,1.051,3.749,9.481,0.822,0.215,0.233,4.492,-7.633,13.305,-2.679,0.211,0.898,happy
3.53,3265,3809,3682,3283,1011,0,0,0,0,1483,0,0,405,0,1196,1125,1.020,3.462,9.340,1.049,0.375,0.348,4.673,-1.300,6.534,-0.046,2.292,0.545,happy
3.54,3349,3695,3677,3275,625,0,0,0,0,1563,0,0,569,0,1366,1707,0.958,3.594,9.275,1.368,0.479,0.420,1.262,-0.929,9.883,-0.419,2.122,0.696,happy
3.55,3402,3323,3631,3156,203,0,0,0,0,1653,0,0,1055,0,1939,2603,1.240,3.761,9.234,1.721,0.508,0.461,1.812,-5.025,11.241,-0.274,2.124,0.693,happy
3.56,3438,2998,3511,2542,0,0,0,0,0,1770,0,0,1415,0,2267,3067,1.030,3.792,9.191,2.193,0.521,0.443,-1.326,-4.305,14.418,-0.367,0.898,0.325,happy
3.57,3467,2675,3263,2222,0,0,0,0,0,1881,0,26,1555,9,2397,3371,0.069,4.161,8.945,2.623,0.602,0.217,2.219,-3.960,9.409,-0.179,0.785,0.306,happy
3.58,3431,2271,2281,1932,0,0,0,0,0,1915,0,105,1758,0,2732,3624,1.166,5.119,9.127,3.340,0.288,-0.211,0.749,-3.326,10.539,-0.195,0.250,0.278,happy
3.59,3301,1559,1648,1620,0,0,0,0,45,2029,2,551,1971,1,2932,3768,-0.383,5.732,11.741,4.113,-0.022,-0.610,1.470,-3.019,9.266,-0.215,-0.003,0.189,happy
3.60,2251,720,140,1041,0,0,0,0,61,1998,1228,749,2009,19,3037,3824,0.804,7.779,11.775,4.762,0.053,-1.186,1.168,-3.390,9.462,-0.212,-0.017,0.173,happy
3.61,1665,0,0,0,0,0,0,0,105,1997,1850,853,2333,28,3260,3914,0.618,9.823,10.297,5.348,0.197,-1.463,1.525,-3.768,9.627,-0.010,-0.081,0.042,happy
3.62,617,0,0,0,0,0,0,0,189,2046,1947,987,2601,39,3477,3975,-4.913,10.357,19.597,2.797,0.584,-1.384,1.463,-3.345,9.486,0.072,-0.067,-0.047,happy
3.63,0,0,0,0,0,0,0,0,217,2023,1991,1182,2662,43,3543,3981,-0.955,-2.308,9.792,-0.031,0.789,-2.812,1.573,-3.280,9.538,0.072,-0.033,-0.008,happy
3.64,0,0,0,0,0,0,0,0,261,2065,1873,1263,2868,45,3631,3993,3.970,1.635,12.730,-1.051,0.649,-2.241,1.568,-3.132,9.345,0.017,-0.010,0.033,happy
3.65,0,0,0,0,0,0,0,0,341,2044,2080,1387,2961,47,3677,3999,6.840,2.002,10.178,-2.018,0.495,-0.891,1.571,-3.345,9.464,0.007,0.002,0.043,happy
3.66,0,0,0,0,0,0,0,0,445,2079,2083,1433,2999,41,3685,3992,6.450,3.077,7.649,-2.797,0.443,0.663,1.580,-3.237,9.256,0.003,-0.004,0.032,happy
3.67,0,0,0,0,0,0,0,0,359,2098,2085,1453,3038,43,3694,3989,5.011,3.225,6.055,-2.939,0.520,1.417,1.645,-3.333,9.464,-0.006,0.004,0.034,happy
3.68,0,0,0,0,0,0,0,0,431,2105,2088,1501,3067,50,3704,3977,3.893,3.871,6.120,-3.003,0.540,1.898,1.657,-3.316,9.376,-0.009,0.004,0.032,happy
3.69,0,0,0,0,0,0,0,0,455,2107,2096,1515,3105,59,3705,3965,3.251,4.920,6.732,-3.096,0.637,2.208,1.635,-3.290,9.378,-0.005,0.005,0.033,happy
3.70,0,0,0,0,0,0,0,0,429,2111,2101,1507,3112,47,3706,3956,2.430,5.605,6.888,-3.203,0.709,2.401,1.597,-3.244,9.402,-0.012,-0.001,0.038,happy
3.71,0,0,0,0,0,0,0,0,620,2137,2088,1525,3141,43,3683,3877,3.086,6.539,7.118,-3.184,0.889,2.641,1.702,-3.338,9.316,-0.013,-0.008,0.042,happy
3.72,0,0,0,0,0,0,0,0,493,2065,2083,1597,3159,47,3661,3855,3.685,7.384,8.629,-3.175,1.079,2.979,1.530,-3.361,9.507,0.002,-0.010,0.024,happy
3.73,0,0,0,0,0,0,0,0,499,2085,2027,1593,3179,51,3673,3849,4.180,7.997,9.606,-3.169,1.133,3.198,1.542,-3.352,9.426,0.017,-0.012,0.016,happy
3.74,0,0,0,0,0,0,0,0,488,2125,2080,1611,3209,72,3686,3861,5.375,8.552,10.283,-3.186,1.317,3.423,1.551,-3.345,9.402,0.043,-0.013,0.007,happy
3.75,0,0,0,0,0,0,0,0,419,2024,2085,1525,3235,47,3695,3865,7.724,10.166,9.519,-3.231,1.806,3.670,1.633,-3.359,9.440,0.060,-0.011,0.007,happy
3.76,0,0,0,0,0,0,0,0,335,1967,2078,1532,3261,47,3706,3863,7.709,11.954,9.220,-2.884,1.878,4.227,1.707,-3.290,9.392,0.067,-0.001,0.011,happy
3.77,0,0,0,0,0,0,0,0,365,1957,2101,1470,3292,49,3709,3859,6.452,12.522,7.702,-2.294,1.625,4.606,1.621,-3.278,9.392,0.045,-0.007,0.016,happy
3.78,0,0,0,0,0,0,0,0,444,2025,2101,1370,3304,51,3721,3862,5.236,13.314,7.084,-1.518,1.088,4.689,1.664,-3.256,9.270,0.046,-0.001,0.022,happy
3.79,0,0,0,0,0,0,0,0,469,2078,2106,1353,3333,47,3740,3959,3.764,12.876,6.551,-0.950,0.612,4.440,1.573,-3.263,9.359,0.035,-0.005,0.024,happy
3.80,0,0,0,0,0,0,0,0,559,2003,2106,1274,3363,43,3741,3870,3.345,11.598,4.975,-0.444,0.348,3.931,1.621,-3.242,9.352,0.023,-0.021,0.022,happy
3.81,0,0,0,0,0,0,0,0,638,2063,2106,1294,3370,47,3818,3861,5.140,11.844,4.997,-0.024,0.474,3.632,1.597,-3.270,9.524,0.032,-0.010,0.029,happy
3.82,0,0,0,0,0,0,0,0,719,2059,2080,1116,3336,47,3689,3787,5.564,10.819,3.098,0.369,0.805,3.709,1.705,-3.182,9.309,0.014,-0.029,0.041,happy
3.83,0,0,0,0,0,0,0,0,713,2055,2085,1061,3349,43,3676,3785,5.425,10.570,3.821,0.926,0.527,4.057,1.623,-3.223,9.378,0.021,-0.027,0.038,happy
3.84,0,0,0,0,0,0,0,0,710,2040,2080,979,3340,51,3659,3740,5.274,11.090,5.341,1.212,0.334,4.388,1.731,-3.072,9.428,0.006,-0.024,0.050,happy
3.85,0,0,0,0,0,0,0,0,793,2106,2037,965,3303,59,3593,3687,3.900,9.974,5.042,1.292,0.427,4.460,1.666,-3.115,9.373,-0.026,-0.030,0.076,happy
3.86,0,0,0,0,0,0,0,0,803,1901,1870,694,2987,94,3207,3283,1.891,8.753,4.982,1.456,0.559,4.288,1.772,-3.227,9.275,-0.060,-0.050,0.097,happy
3.87,0,0,0,0,102,0,0,0,911,1779,1840,676,2899,209,3093,3135,0.819,8.325,6.151,1.564,0.525,3.886,1.812,-3.299,9.371,-0.066,-0.027,0.110,happy
3.88,0,28,0,0,405,0,0,0,1129,1960,1855,798,2984,109,3120,3236,-18.007,16.046,14.181,1.216,0.879,2.540,1.820,-3.203,9.330,-0.096,0.047,0.195,happy
3.89,321,1408,0,0,624,0,0,0,1391,1956,1868,870,3012,77,3157,3287,-0.682,9.543,16.836,0.151,0.773,-0.353,1.805,-3.390,9.294,-0.109,0.049,0.202,happy
3.90,662,2169,219,0,963,0,0,0,1855,2025,1952,749,3175,51,3160,3469,-3.994,4.436,16.271,-0.013,-0.336,-0.263,1.856,-3.493,9.436,-0.091,0.079,0.146,happy
3.91,892,2763,1659,113,1393,0,0,0,2138,1981,1957,915,3115,48,2861,3439,0.357,4.925,9.436,-0.454,0.002,-0.326,1.774,-3.464,9.330,-0.080,0.046,0.089,happy
3.92,1050,2963,2166,480,1794,0,412,0,2316,1933,1947,905,3048,47,2707,3407,1.381,2.648,9.424,0.174,-0.382,-0.158,1.788,-3.424,9.467,-0.079,0.044,0.081,happy
3.93,1285,3127,2384,677,2262,0,1169,419,2504,1837,1937,871,2719,47,2160,3271,0.852,3.711,9.230,0.177,-0.212,0.099,1.817,-3.438,9.426,-0.112,0.041,0.048,happy
3.94,1535,3199,2464,882,2414,0,1712,1461,2611,1633,1876,777,1711,47,1493,2943,0.658,4.113,9.345,0.081,-0.144,0.087,1.985,-3.531,9.234,-0.169,0.037,0.035,happy
3.95,1653,3235,2481,752,2451,0,2160,2017,2516,1299,1717,741,1215,93,940,2331,1.125,3.716,9.369,-0.019,-0.042,-0.001,1.621,-4.171,8.918,-0.313,0.070,0.007,happy
3.96,1670,3253,2518,596,2510,0,2411,2307,1597,2549,1159,2486,2579,1751,1565,3101,1.618,3.294,9.263,0.095,-0.144,-0.033,1.046,-3.493,9.215,-0.159,0.159,0.089,happy
3.97,1777,3372,2559,623,2777,0,2624,2518,1597,2549,977,2487,2579,1662,1567,3111,1.408,3.749,9.163,0.098,-0.116,0.006,-3.282,-0.958,11.054,0.064,-0.060,0.991,happy
3.98,1811,3393,2641,626,2850,0,2724,2655,1594,2551,0,2489,2581,1663,1562,3103,1.338,3.649,9.100,0.037,-0.037,0.031,0.340,-1.690,10.161,0.513,-0.964,3.752,happy
3.99,1820,3440,2703,644,2896,0,2800,2736,1591,2524,0,2488,2579,1663,1567,3103,1.494,3.579,9.153,-0.008,0.003,0.035,1.331,-5.250,9.364,0.423,-1.358,4.366,happy
4.00,1783,3471,2769,717,2967,0,2847,2802,1597,2549,0,2487,2579,1671,1566,3103,1.341,3.771,9.165,-0.079,0.057,0.068,2.562,-8.080,8.143,0.846,-1.064,4.366,happy
4.01,1670,3491,2803,778,3021,0,2895,2888,1580,2549,0,2487,2577,1672,1564,3102,1.336,3.603,9.165,-0.134,0.075,0.055,0.448,-8.777,6.962,0.825,-1.215,4.132,happy
4.02,1589,3519,2885,846,3029,0,2929,2959,135,0,0,0,0,0,0,380,1.293,3.491,9.268,-0.142,0.072,0.045,2.777,-9.134,7.362,1.442,-1.196,3.018,happy
4.03,1489,3527,2864,915,3083,0,2958,3018,77,0,0,0,0,0,0,283,1.094,3.412,9.194,-0.107,0.052,0.065,-0.065,-6.881,6.316,0.800,-1.372,2.049,happy
4.04,1411,3536,2891,950,3087,0,2976,3060,75,9,0,0,0,0,0,176,1.161,3.469,9.369,-0.091,0.065,0.057,-1.389,-6.701,7.796,0.683,-1.401,1.939,happy
4.05,1269,3536,2905,982,3088,0,2993,3093,2,20,0,0,0,8,0,136,1.180,3.371,9.318,-0.058,0.090,0.039,-3.460,-5.183,9.294,0.505,-1.087,2.109,happy
4.06,1199,3536,2911,959,3070,0,3003,3120,0,0,0,0,0,37,0,51,1.089,3.393,9.397,-0.042,0.078,0.035,-5.830,-4.762,10.242,0.666,-0.998,3.024,happy
4.07,1094,3534,2901,912,3056,0,3014,3150,0,0,0,0,0,0,0,84,1.132,3.340,9.333,-0.035,0.091,0.041,-4.738,-5.066,10.020,0.729,-1.020,3.536,happy
4.08,926,3531,2894,927,3020,0,3022,3168,0,0,0,0,0,0,0,26,1.168,3.342,9.306,-0.037,0.090,0.027,-2.478,-4.887,9.428,0.740,-0.791,4.001,happy
4.09,923,3519,2877,900,3014,0,3014,3187,0,0,0,0,0,0,0,13,1.197,3.297,9.244,-0.035,0.098,0.022,-1.776,-4.899,9.304,0.704,-0.649,4.052,happy
4.10,739,3398,2846,882,2797,0,2875,3157,0,0,0,0,0,0,0,1,1.147,3.342,9.416,-0.041,0.093,0.022,-1.520,-4.860,8.803,0.669,-0.519,4.113,happy
4.11,712,3504,2861,833,3008,0,3025,3216,0,0,0,0,0,0,0,5,1.185,3.318,9.311,-0.032,0.088,0.014,-1.243,-4.839,8.401,0.592,-0.428,4.215,happy
4.12,718,3486,2753,902,2999,0,2983,3239,0,0,0,102,0,0,0,0,1.116,3.306,9.304,-0.016,0.092,0.005,-0.759,-4.903,8.329,0.487,-0.341,4.331,happy
4.13,606,3419,2754,859,2857,0,2864,3250,0,0,0,0,0,0,0,1,1.168,3.263,9.299,-0.019,0.104,-0.006,0.637,-6.112,10.302,0.463,-0.387,4.323,happy
4.14,669,3472,2833,839,3012,0,3041,3280,0,0,0,0,0,0,0,1,1.228,3.254,9.318,-0.020,0.112,-0.007,0.637,-6.112,10.302,0.463,-0.387,4.323,happy
4.15,649,3472,2831,883,3014,0,3044,3292,0,0,0,0,0,0,0,26,1.171,3.292,9.335,-0.029,0.126,-0.007,2.310,-5.641,8.753,0.689,-0.453,4.025,happy
4.16,602,3427,2794,953,2981,0,3019,3277,0,27,0,0,0,0,0,0,1.001,3.179,9.349,-0.026,0.127,-0.002,2.411,-5.274,7.647,0.616,-0.456,3.926,happy
4.17,541,3428,2795,944,2991,0,3030,3265,0,0,0,0,0,0,0,0,0.941,3.208,9.335,-0.014,0.114,0.011,1.743,-5.444,7.848,0.511,-0.629,3.896,happy
4.18,551,3419,2794,1037,2983,0,3037,3312,0,0,0,0,0,0,27,0,1.140,3.170,9.268,-0.016,0.105,0.016,1.415,-5.887,8.729,0.460,-0.892,3.942,happy
4.19,528,3199,2693,1019,2750,0,2866,3102,0,0,0,0,0,0,0,23,1.070,3.079,9.364,0.004,0.091,0.016,0.381,-5.942,9.108,0.523,-1.135,4.103,happy
4.20,687,3387,2763,1327,2823,0,3026,3315,0,0,0,0,0,0,0,0,1.130,3.110,9.328,0.014,0.083,0.011,-0.019,-6.302,9.165,0.620,-1.348,4.366,happy
4.21,674,3362,2819,1305,2836,0,2977,3178,0,0,0,0,0,0,0,0,0.977,3.172,9.404,0.040,0.090,0.017,1.030,-6.586,8.562,0.722,-1.331,4.366,happy
4.22,803,3422,2849,1575,2719,0,3025,3335,0,0,0,0,0,0,0,0,1.065,3.235,9.388,0.042,0.095,0.026,2.260,-7.063,7.908,0.747,-1.223,4.366,happy
4.23,934,3442,2896,1663,2758,0,3031,3349,0,0,0,0,0,0,0,0,1.030,3.306,9.383,0.037,0.115,0.026,3.002,-7.096,7.080,0.713,-1.200,4.366,happy
4.24,987,3419,2900,1693,2751,53,3003,3338,0,0,0,0,0,0,0,0,0.917,3.201,9.522,0.028,0.108,0.021,4.515,-7.410,6.618,0.602,-1.240,4.366,happy
4.25,981,3344,2910,1783,2582,23,2927,3281,0,0,0,0,0,0,0,0,0.941,3.117,9.392,0.043,0.088,0.012,4.851,-7.585,5.018,0.155,-2.150,4.366,happy
4.26,1171,3409,2943,1885,2764,129,2941,3310,0,0,0,16,0,0,3,0,0.888,3.156,9.424,0.053,0.084,0.009,12.735,-6.732,5.574,0.064,-1.556,3.999,happy
4.27,1361,3431,3027,2000,2747,174,2883,3280,0,0,0,0,0,0,0,171,0.950,3.175,9.424,0.090,0.086,-0.012,12.471,-1.753,10.609,0.016,-1.104,3.236,happy
4.28,1508,3440,3082,2113,2673,10,2811,3199,0,0,0,0,0,0,0,970,0.979,3.201,9.445,0.134,0.079,-0.043,19.613,-1.216,1.365,-1.141,-0.984,-0.483,happy
4.29,1622,3461,3117,2190,2616,0,2672,3013,0,2469,0,2431,73,0,2091,3333,0.900,3.223,9.436,0.151,0.076,-0.039,-11.325,-19.613,19.613,-0.847,-1.222,0.018,happy
4.30,1574,3269,2948,2077,2390,0,2215,2278,39,0,0,2,0,0,872,2631,0.797,3.115,9.455,0.208,0.057,-0.056,2.330,1.199,7.767,-0.924,-0.237,-0.003,happy
4.31,1671,3266,3184,2260,2355,0,2066,1696,35,0,0,5,12,0,1055,3039,0.888,3.220,9.491,0.269,0.044,-0.083,1.283,-4.709,11.248,-0.533,-0.255,-0.046,happy
4.32,1795,3504,3216,2288,2399,0,1386,553,45,253,2,335,191,13,1369,3285,1.022,3.371,9.325,0.298,0.086,-0.090,0.532,-3.134,9.711,-0.147,-0.027,0.066,happy
4.33,1693,3502,3213,2246,1872,0,361,0,43,312,0,405,345,0,1728,3333,1.173,3.874,9.045,0.363,0.261,-0.028,1.247,-3.553,9.340,-0.254,-0.208,-0.010,happy
4.34,1610,3413,3184,2126,766,0,0,0,57,523,0,688,679,0,2423,3507,0.982,2.854,9.330,0.491,0.470,0.069,0.955,-3.570,9.462,-0.102,-0.122,0.005,happy
4.35,1616,3107,3067,1952,165,0,0,0,39,477,0,829,891,0,2600,3380,2.365,3.606,9.680,0.594,0.721,0.180,1.178,-3.522,9.553,-0.050,-0.058,0.000,happy
4.36,1611,2026,2730,1802,0,0,0,0,35,551,12,879,1124,10,2773,3387,2.605,4.322,10.276,0.434,1.451,0.107,1.195,-3.512,9.313,-0.058,-0.053,0.010,happy
4.37,1418,495,975,1481,0,0,0,0,55,671,1051,1065,1829,19,3151,3723,4.846,6.194,10.836,0.083,2.769,-0.378,1.154,-3.687,9.459,0.010,-0.094,-0.001,happy
4.38,240,0,0,394,0,0,0,0,63,783,1266,1147,2165,7,3357,3795,6.223,4.214,7.714,0.148,3.596,-1.624,1.269,-3.357,9.187,0.011,-0.069,0.021,happy
4.39,0,0,0,0,0,0,0,0,107,798,1256,1133,2219,26,3327,3669,8.097,7.963,10.415,-0.646,4.860,-1.803,1.508,-3.239,9.278,0.019,-0.034,0.013,happy
4.40,0,0,0,0,0,0,0,0,42,803,1164,1139,2327,23,3409,3688,14.748,8.631,7.312,-0.602,2.090,2.323,1.279,-3.390,9.328,-0.008,0.026,0.046,happy
4.41,0,0,0,0,0,0,0,0,75,869,1215,1005,2321,23,3403,3694,7.166,7.080,5.322,-0.156,1.759,3.220,1.329,-3.531,9.318,-0.021,0.028,0.048,happy
4.42,0,0,0,0,0,0,0,0,159,825,1259,1071,2311,22,3419,3701,1.223,6.376,8.614,-0.149,0.777,3.318,0.718,-3.493,9.479,-0.012,0.052,0.051,happy
4.43,0,0,0,0,0,0,0,0,78,751,1374,1015,2291,23,3421,3719,3.601,5.497,9.354,-0.020,0.152,3.424,2.428,-4.314,9.412,0.116,0.021,0.006,happy
4.44,0,0,0,0,0,0,0,0,78,859,1620,1115,2246,37,3410,3719,4.511,4.700,9.567,-0.064,-0.333,3.584,1.204,-3.431,9.357,0.054,0.028,0.013,happy
4.45,0,0,0,0,0,0,0,0,61,907,1771,1128,2228,19,3405,3709,4.863,3.905,8.890,-0.043,-0.338,3.843,1.180,-3.603,9.428,0.117,0.010,-0.020,happy
4.46,0,0,0,0,0,0,0,0,40,903,1801,1166,2247,11,3407,3705,4.005,3.457,8.890,-0.075,-0.272,3.988,1.173,-3.455,9.390,0.130,0.011,-0.027,happy
4.47,0,0,0,0,0,0,0,0,123,1017,1850,1274,2257,13,3380,3701,2.679,2.871,9.431,-0.196,-0.132,3.916,1.180,-3.393,9.416,0.119,0.001,-0.025,happy
4.48,0,0,0,0,0,0,0,0,53,1042,1906,1141,2345,13,3419,3688,1.171,2.574,10.300,-0.449,-0.258,3.413,1.180,-3.450,9.392,0.128,0.029,-0.002,happy
4.49,0,0,0,0,0,0,0,0,61,1053,1937,1181,2367,19,3420,3691,2.576,2.272,10.398,-0.760,-0.131,3.259,1.250,-3.388,9.333,0.133,0.054,0.007,happy
4.50,0,0,0,0,0,0,0,0,73,1243,1965,1339,2414,19,3443,3699,3.029,2.509,10.613,-0.941,-0.066,3.285,1.252,-3.326,9.304,0.105,0.061,0.024,happy
4.51,0,0,0,0,0,0,0,0,29,1359,2019,1395,2443,11,3439,3687,3.024,3.191,11.174,-1.086,-0.122,3.356,1.211,-3.352,9.424,0.103,0.086,0.044,happy
4.52,0,0,0,0,0,0,0,0,26,1369,2019,1487,2439,10,3437,3688,3.089,4.142,11.547,-1.257,-0.161,3.474,1.228,-3.440,9.431,0.105,0.107,0.055,happy
4.53,0,0,0,0,0,0,0,0,72,1439,2121,1637,2428,23,3429,3673,3.122,4.580,10.795,-1.374,-0.108,3.629,1.257,-3.270,9.371,0.072,0.099,0.060,happy
4.54,0,0,0,0,0,0,0,0,121,1435,2019,1693,2407,29,3399,3634,2.878,5.018,9.953,-1.353,0.071,3.752,1.317,-3.347,9.285,0.056,0.088,0.055,happy
4.55,0,0,0,0,0,0,0,0,114,1427,2024,1817,2364,25,3351,3601,2.880,5.523,9.349,-1.252,0.317,3.873,1.286,-3.407,9.445,0.059,0.095,0.061,happy
4.56,0,0,0,0,0,0,0,0,149,1442,2032,1782,2300,31,3308,3547,2.974,6.371,9.663,-1.131,0.597,4.011,1.221,-3.462,9.596,0.043,0.094,0.052,happy
4.57,0,0,0,0,0,0,0,0,186,1354,1937,1809,2239,41,3286,3559,2.729,7.764,10.788,-1.070,0.818,4.139,1.161,-3.357,9.457,0.038,0.086,0.052,happy
4.58,0,0,0,0,0,0,0,0,267,1431,2044,1804,2247,46,3263,3526,2.636,9.301,12.184,-1.173,0.992,4.258,1.221,-3.273,9.318,0.026,0.068,0.055,happy
4.59,0,0,0,0,0,0,0,0,437,1499,2060,1864,2261,51,3183,3439,2.126,10.374,13.068,-1.434,1.128,4.360,1.097,-3.359,9.524,0.011,0.070,0.062,happy
4.60,0,0,0,0,0,0,0,0,732,1527,2057,1958,2213,0,3003,3272,-1.355,11.001,12.105,-1.830,0.696,4.505,1.109,-3.268,9.397,-0.018,0.077,0.073,happy
4.61,0,0,0,0,0,0,0,0,1287,1775,2162,2355,2377,35,2927,3318,-4.049,8.973,7.997,-1.851,-0.173,4.158,1.092,-3.273,9.333,-0.062,0.075,0.069,happy
4.62,0,0,0,0,0,0,0,0,1545,1879,2183,2411,2389,47,2789,3279,-7.994,10.944,5.787,-1.288,0.111,3.085,1.199,-3.357,9.440,-0.092,0.099,0.069,happy
4.63,0,0,0,0,0,0,0,0,2157,1903,2119,2504,2375,92,2565,3132,-10.400,10.211,3.156,-0.654,-0.267,1.813,1.204,-3.361,9.646,-0.181,0.106,0.060,happy
4.64,0,0,0,0,0,0,0,0,2845,2291,2224,2887,2586,47,2377,3193,-8.265,12.062,0.211,0.469,0.113,0.609,1.027,-3.615,9.469,-0.279,0.044,0.012,happy
4.65,0,0,0,0,0,0,0,0,3052,2447,2252,2953,2596,47,2018,3031,-6.053,13.800,0.685,1.389,0.474,-0.025,1.130,-3.479,9.419,-0.263,0.024,-0.005,happy
4.66,0,0,0,0,51,0,0,55,3478,2579,2065,3094,2483,47,1161,2479,-0.086,3.294,19.606,0.667,0.633,-0.627,1.269,-3.498,9.371,-0.258,0.016,-0.028,happy
4.67,0,0,0,0,152,0,301,2289,3723,2651,2249,3241,2316,37,136,1886,1.006,-3.771,1.951,2.564,-1.370,-0.344,1.439,-3.395,8.851,-0.039,-0.023,0.053,happy
4.68,0,0,0,0,426,0,865,2943,3815,2569,2275,3307,1903,5,4,1403,2.081,8.629,15.735,2.050,-0.951,-0.272,1.911,-3.349,8.976,-0.428,0.128,-0.041,happy
4.69,0,0,0,0,894,0,1690,3126,3939,2221,2280,3451,599,4,5,669,4.870,5.571,17.593,1.353,0.862,-0.671,1.013,-3.400,9.371,-0.769,0.120,-0.278,happy
4.70,0,480,0,0,1228,0,1959,3216,3931,1813,2280,3539,94,0,2,542,0.019,1.353,9.888,0.639,1.268,-0.122,1.520,-2.938,10.001,-1.242,0.192,-0.499,happy
4.71,0,1296,0,0,1422,0,2256,3312,4040,1549,2331,3541,9,1,0,411,0.247,2.741,10.321,0.535,0.905,-0.277,2.337,-2.823,10.599,-1.563,0.334,-0.508,happy
4.72,0,1963,0,0,1856,0,2463,3382,4068,559,2323,3287,0,0,0,149,0.321,3.721,10.135,0.317,0.240,-0.143,2.816,-3.175,10.106,-2.875,1.077,-0.157,happy
4.73,64,2487,239,0,2192,0,2613,3435,4049,0,0,2328,0,6,0,41,0.443,2.871,9.922,0.405,-0.042,-0.247,1.743,-5.006,16.604,-4.366,1.113,1.725,happy
4.74,261,2843,1341,11,2389,0,2814,3479,3935,0,0,1053,0,0,0,30,0.912,3.309,9.335,0.250,-0.063,-0.212,1.772,-7.628,14.099,-4.366,1.123,2.775,happy
4.75,607,3026,1927,174,2513,0,2895,3504,3549,0,0,7,0,0,0,0,0.929,3.031,9.582,0.218,0.011,-0.101,2.521,-8.401,14.013,-4.366,0.939,4.072,happy
4.76,825,3142,2338,404,2658,0,2994,3511,1406,0,15,0,0,0,0,1,1.178,3.352,9.665,0.226,-0.050,-0.009,-2.729,-7.884,15.177,-3.662,-0.257,3.910,happy
4.77,1088,3219,2580,621,2811,0,3039,3502,0,0,53,0,0,0,0,0,1.135,3.163,9.505,0.191,-0.027,-0.062,1.015,0.048,19.613,-0.968,-0.569,4.366,happy
4.78,1293,3289,2721,791,2889,0,3069,3473,0,0,0,0,0,0,0,0,1.168,3.287,9.543,0.185,-0.049,-0.055,9.541,2.272,7.458,0.642,-0.655,1.964,happy
4.79,1350,3298,2783,891,2935,0,2997,3376,0,0,71,0,0,0,0,0,1.168,3.189,9.479,0.161,-0.036,-0.043,5.686,4.712,8.576,0.755,-1.173,0.941,happy
4.80,1454,3376,2851,1040,2986,0,3056,3409,0,0,0,13,28,0,0,0,1.176,3.124,9.467,0.166,-0.051,-0.051,6.033,1.832,11.085,0.990,-1.978,-0.050,happy
4.81,1567,3421,2928,1171,3018,0,3022,3291,0,0,0,7,0,0,2,0,1.276,3.259,9.412,0.198,-0.050,-0.027,1.628,1.381,12.474,2.448,-2.063,-1.185,happy
4.82,1650,3469,3006,1365,3053,0,2981,3157,0,0,0,0,0,0,0,0,1.199,3.203,9.335,0.171,-0.060,-0.009,-1.784,1.420,10.568,2.842,-2.214,-1.201,happy
4.83,1715,3515,3080,1561,3102,0,2928,3000,0,16,0,0,0,0,0,0,1.216,3.287,9.342,0.181,-0.066,-0.011,-2.720,-0.057,10.779,3.279,-2.019,-0.634,happy
4.84,1792,3545,3142,1696,3123,0,2866,2742,0,0,0,0,0,0,0,0,1.228,3.302,9.436,0.169,-0.047,-0.031,-2.334,-2.143,12.268,3.791,-2.053,-0.228,happy
4.85,1869,3583,3209,1811,3166,0,2816,2441,0,0,0,0,0,0,0,0,1.132,3.244,9.275,0.172,-0.059,-0.041,-1.482,-3.081,12.280,3.905,-2.204,-0.250,happy
4.86,1911,3622,3266,1894,3199,0,2753,2269,0,0,0,0,0,18,0,0,1.219,3.376,9.309,0.169,-0.010,-0.031,0.158,-5.145,14.636,4.050,-2.293,-0.533,happy
4.87,1995,3670,3329,2041,3250,0,2689,2137,0,0,0,0,0,0,0,31,1.226,3.390,9.261,0.129,-0.013,-0.034,0.163,-6.440,16.410,4.027,-2.076,-0.916,happy
4.88,2109,3683,3376,2160,3269,0,2627,1874,0,0,0,0,0,0,0,0,1.214,3.347,9.323,0.135,-0.022,-0.040,-0.438,-8.207,18.194,3.879,-2.023,-0.965,happy
4.89,2145,3657,3393,2192,3234,0,2480,1532,0,0,0,0,0,0,0,0,1.214,3.390,9.390,0.148,-0.025,-0.052,-3.338,-12.778,15.996,3.189,-2.677,-1.385,happy
4.90,2353,3739,3463,2364,3303,0,2335,426,0,0,0,0,0,0,0,0,1.408,3.417,9.249,0.193,-0.005,-0.070,-2.102,-19.613,10.300,2.314,-1.860,-2.307,happy
4.91,2495,3760,3485,2447,3267,0,1883,0,1599,0,0,9,2599,1688,2133,0,1.202,3.519,9.337,0.210,0.026,-0.070,-5.564,-19.613,1.508,1.950,-0.799,-2.342,happy
4.92,2665,3778,3508,2558,3139,0,1307,0,1593,2555,0,2493,2583,1628,1571,3227,1.279,3.677,9.270,0.222,0.082,-0.048,-11.224,-19.613,-8.856,0.313,-1.183,-1.264,happy
4.93,2815,3774,3531,2642,2555,0,464,0,0,0,0,0,0,0,0,0,1.508,3.345,9.287,0.319,0.222,-0.049,1.128,-3.658,3.048,-1.971,2.672,-0.039,happy
4.94,2918,3801,3548,2704,2183,0,271,0,0,0,0,0,0,0,0,0,2.016,1.712,8.952,0.534,0.200,-0.020,5.313,0.651,19.613,-1.337,2.620,0.218,happy
4.95,3009,3812,3574,2745,1965,0,207,0,0,0,0,0,0,0,0,123,1.343,3.553,9.462,0.810,0.165,0.150,1.899,6.967,7.544,-1.471,1.544,0.254,happy
4.96,3115,3826,3602,2804,1683,0,126,0,0,0,0,0,0,0,0,540,1.326,3.563,9.436,0.994,0.298,0.210,-0.857,-3.112,8.009,-1.437,2.109,1.211,happy
4.97,3216,3830,3647,2875,1334,0,0,0,0,17,0,0,0,0,21,1127,1.496,3.436,9.438,1.205,0.269,0.218,-4.887,-9.373,18.344,-2.198,1.221,0.491,happy
4.98,3274,3829,3568,2928,1307,0,0,0,27,0,0,0,0,0,231,1833,1.279,3.361,9.318,1.453,0.376,0.257,-6.445,-1.647,11.801,-1.766,0.697,0.396,happy
4.99,3412,3776,3613,2959,664,0,0,0,27,0,0,0,0,0,596,2589,2.545,2.679,9.572,2.071,0.648,0.485,-4.594,-2.763,14.856,-2.061,0.127,0.464,happy
5.00,3482,3675,3583,2923,502,0,0,0,5,0,0,0,0,0,1127,3135,1.616,2.993,9.153,2.534,0.869,0.623,1.259,-5.088,12.273,-2.063,-0.413,0.239,happy
5.01,3538,3219,3543,2559,132,0,0,0,13,0,0,0,0,0,1605,3481,3.400,2.885,10.417,2.984,1.047,0.603,2.629,-4.374,11.849,-1.684,-0.454,0.287,happy
5.02,3601,2660,3125,1856,0,0,0,0,7,17,56,1,437,0,2282,3508,-0.836,1.508,11.729,3.995,0.886,-0.156,0.488,-3.766,13.132,-0.875,0.955,0.382,happy
5.03,3520,1534,1749,1482,0,0,0,0,11,0,74,0,777,0,2741,3881,0.769,6.187,16.946,6.128,0.543,-1.541,0.934,-4.324,11.162,-0.718,0.076,0.003,happy
5.04,2801,537,0,184,0,0,0,0,27,0,0,2,1017,0,2859,3831,2.923,6.388,14.210,7.202,0.721,-3.110,0.931,-2.950,10.582,-0.630,0.111,-0.010,happy
5.05,1940,0,0,0,0,0,0,0,90,9,0,0,1352,0,2997,3981,2.655,8.823,13.992,7.216,0.603,-3.378,1.073,-3.486,9.843,-0.424,0.046,0.133,happy
5.06,859,0,0,0,0,0,0,0,104,199,2,156,1627,2,3179,4029,1.815,13.795,13.803,5.352,1.833,-3.250,0.611,-3.759,9.799,-0.182,-0.069,0.108,happy
5.07,0,0,0,0,0,0,0,0,99,279,0,252,1915,2,3171,3951,4.434,5.928,19.613,1.477,0.960,-3.080,1.384,-3.419,9.936,-0.048,0.117,0.081,happy
5.08,0,0,0,0,0,0,0,0,102,342,23,373,2104,1,3335,4003,14.617,9.641,11.090,0.233,-0.302,-0.902,1.460,-2.998,9.409,-0.006,0.105,0.092,happy
5.09,0,0,0,0,0,0,0,0,110,489,7,405,2295,0,3469,4095,8.282,-2.598,9.134,-0.733,0.353,-0.644,1.377,-3.424,9.651,-0.015,0.022,0.017,happy
5.10,0,0,0,0,0,0,0,0,93,443,7,378,2419,2,3548,4095,5.792,-1.518,8.198,-0.922,-0.042,0.139,1.252,-3.065,9.067,-0.010,-0.036,-0.033,happy
5.11,0,0,0,0,0,0,0,0,77,569,0,393,2477,2,3592,4095,5.116,-0.613,8.653,-1.250,-0.671,0.531,1.377,-3.215,9.440,0.047,0.070,-0.005,happy
5.12,0,0,0,0,0,0,0,0,117,537,5,469,2540,7,3624,4095,4.829,-0.050,9.833,-1.820,-0.851,0.686,1.460,-3.242,9.924,0.003,0.020,-0.033,happy
5.13,0,0,0,0,0,0,0,0,110,570,734,505,2570,29,3636,4095,3.929,0.522,10.341,-2.461,-0.853,0.910,1.336,-2.823,9.254,0.037,0.000,0.033,happy
5.14,0,0,0,0,0,0,0,0,124,649,1405,555,2628,31,3644,4069,2.682,1.604,9.807,-3.044,-0.748,1.108,1.480,-3.045,9.431,-0.001,0.006,0.048,happy
5.15,0,0,0,0,0,0,0,0,125,696,1535,663,2670,29,3643,4075,1.298,1.994,8.435,-3.422,-0.951,1.234,1.130,-3.077,9.419,-0.003,-0.013,0.027,happy
5.16,0,0,0,0,0,0,0,0,111,683,1591,723,2735,29,3640,4071,0.816,2.485,7.544,-3.562,-1.206,1.144,1.226,-3.223,9.644,0.031,0.013,0.018,happy
5.17,0,0,0,0,0,0,0,0,88,729,1768,821,2787,24,3635,4057,0.639,3.306,8.485,-3.675,-1.228,0.977,1.183,-3.117,9.457,0.023,-0.016,-0.005,happy
5.18,0,0,0,0,0,0,0,0,83,831,1847,837,2827,21,3621,4039,-0.622,4.192,9.594,-3.872,-1.300,0.736,1.183,-2.825,9.266,-0.025,-0.085,0.000,happy
5.19,0,0,0,0,0,0,0,0,94,995,1919,853,2873,27,3636,4019,-0.697,5.112,10.360,-4.080,-1.409,0.523,1.226,-3.029,9.340,-0.016,-0.046,0.055,happy
5.20,0,0,0,0,0,0,0,0,107,1368,2108,827,3007,28,3643,3967,-0.067,6.091,10.439,-4.203,-1.535,0.451,1.353,-3.053,9.493,-0.063,-0.045,0.096,happy
5.21,0,0,0,0,0,0,0,0,109,1493,2121,1048,3163,28,3629,3918,-0.443,7.673,13.080,-4.156,-1.620,0.598,1.403,-3.045,9.323,-0.106,-0.059,0.109,happy
5.22,0,0,0,0,0,0,0,0,71,1677,2162,1407,3241,21,3609,3877,-0.393,9.057,15.179,-4.231,-1.423,0.773,1.547,-3.285,8.940,-0.035,-0.084,0.159,happy
5.23,0,0,0,0,0,0,0,0,279,2279,2193,1829,3356,53,3503,3771,-1.398,12.129,18.079,-3.987,-1.649,0.953,1.305,-3.297,9.622,-0.149,-0.049,0.133,happy
5.24,0,0,0,0,0,0,0,0,845,2452,2206,1935,3443,51,3225,3625,-3.010,16.573,19.613,-4.369,-1.631,1.131,1.437,-3.232,9.419,-0.168,-0.023,0.115,happy
5.25,0,0,0,0,0,0,0,0,1060,2565,2203,2125,3449,47,3111,3481,-1.659,16.343,8.346,-4.006,-1.252,1.460,1.302,-3.211,9.479,-0.164,-0.039,0.076,happy
5.26,194,0,0,0,90,0,0,0,1734,2739,2226,2506,3430,51,2776,3112,-8.813,18.534,2.138,-2.632,-1.359,1.285,1.487,-3.728,9.498,-0.212,0.025,0.072,happy
5.27,335,0,0,0,172,0,0,0,2383,2906,2282,2773,3579,50,2348,2269,-7.903,19.613,-14.066,-1.383,-1.475,1.505,1.480,-3.371,9.210,-0.336,0.110,0.049,happy
5.28,414,0,0,0,181,0,0,0,2636,3107,2265,2840,3539,45,2069,1671,-5.375,14.353,-4.137,2.080,1.168,0.469,1.437,-3.742,9.136,-0.324,0.114,0.017,happy
5.29,192,0,0,0,112,0,0,0,3095,3128,2121,3033,2964,47,741,1299,2.215,2.840,16.601,1.553,1.386,-0.072,1.659,-3.488,9.622,-0.310,0.262,0.025,happy
5.30,212,0,0,0,125,0,0,0,3323,3171,2311,3191,2473,0,20,564,0.560,-6.378,7.800,1.627,-0.257,0.395,1.106,-1.120,9.943,-0.788,0.312,-0.072,happy
5.31,0,0,0,0,133,0,385,1917,3435,3079,2316,3293,2147,5,3,501,-2.045,0.002,11.310,2.780,0.004,0.010,1.360,-4.025,9.105,-0.486,0.224,-0.069,happy
5.32,0,0,0,0,400,0,901,2838,3588,2715,2323,3435,1068,8,4,351,2.246,5.569,13.714,2.527,-0.372,-0.207,1.018,-2.883,8.262,-0.677,0.059,-0.052,happy
5.33,0,0,0,0,877,0,1802,3212,3704,2479,2346,3519,269,5,3,230,3.330,4.961,11.732,1.717,0.009,0.074,1.111,-2.794,9.701,-1.596,0.249,-0.190,happy
5.34,0,0,0,0,1072,0,2309,3359,3723,2343,2408,3497,87,4,2,201,7.209,8.001,12.062,1.064,0.691,-0.244,1.429,-2.902,9.443,-2.348,0.360,-0.291,happy
5.35,0,503,0,0,1580,0,2545,3475,3692,1501,2428,3286,47,13,0,147,-0.773,3.924,11.880,0.540,1.171,-0.376,2.811,-3.366,10.534,-3.683,1.009,-0.088,happy
5.36,288,1217,0,0,1925,0,2703,3566,3541,5,92,2055,0,0,0,51,1.465,3.376,10.453,0.723,1.198,-0.572,3.096,-4.298,13.982,-4.366,1.087,1.824,happy
5.37,733,1946,0,0,2132,0,2838,3615,1612,0,0,923,2221,2007,8,0,1.046,3.237,10.046,0.623,1.066,-0.626,3.431,-7.621,17.700,-4.366,1.104,2.854,happy
5.38,1102,2450,0,0,2362,0,2933,3639,2577,0,0,0,0,0,0,0,1.032,3.007,10.025,0.475,0.355,-0.328,3.577,-5.875,17.882,-4.366,1.994,3.823,happy
5.39,1287,2688,0,0,2444,0,2871,3655,1769,0,112,0,0,0,0,0,0.939,3.084,9.926,0.431,0.087,-0.198,1.848,-12.160,11.839,-4.366,2.437,3.818,happy
5.40,1664,2983,944,0,2631,0,3108,3662,0,0,0,0,0,0,0,0,1.338,3.220,9.486,0.467,-0.016,-0.157,-4.609,-10.855,19.613,-0.621,-0.457,3.445,happy
5.41,1743,3025,1680,48,2559,0,2943,3583,0,0,0,1,0,0,0,0,1.276,3.472,9.495,0.347,0.033,-0.100,9.886,3.965,14.880,0.901,-0.985,2.995,happy
5.42,2032,3219,2128,209,2853,0,3140,3616,0,0,0,0,0,0,0,0,1.391,3.601,9.428,0.267,0.034,-0.073,11.076,1.551,6.934,1.406,-0.550,1.938,happy
5.43,2176,3261,2352,379,2906,0,3134,3576,0,0,0,0,0,0,0,0,1.262,3.725,9.574,0.133,0.028,-0.012,9.057,0.651,7.242,1.417,-0.745,0.766,happy
5.44,2286,3335,2506,478,2958,0,3120,3527,0,2,0,0,0,0,0,0,1.257,3.397,9.498,0.102,0.006,0.015,8.712,0.022,9.531,1.792,-1.106,-0.372,happy
5.45,2367,3383,2608,584,2998,0,3087,3443,0,0,0,0,0,0,0,0,1.171,3.292,9.354,0.103,-0.045,0.016,8.274,-1.063,10.731,2.362,-1.158,-1.356,happy
5.46,2441,3466,2803,777,3059,0,3029,3255,0,0,0,0,0,3,0,0,1.336,3.428,9.438,0.033,-0.044,0.062,0.730,-0.979,8.849,3.357,-1.322,-2.211,happy
5.47,2469,3518,2909,888,3094,0,2983,3094,0,0,0,0,0,0,0,0,1.283,3.290,9.364,0.014,-0.034,0.070,-0.929,-1.480,8.317,3.535,-1.606,-2.129,happy
5.48,2515,3579,3046,1068,3137,0,2928,2921,0,0,0,0,0,0,1,0,1.221,3.287,9.335,0.041,-0.050,0.057,-1.219,-3.251,10.518,3.996,-1.456,-1.493,happy
5.49,2559,3635,3164,1311,3184,0,2864,2697,0,0,0,7,0,0,0,0,1.384,3.146,9.325,0.051,-0.067,0.046,-1.142,-4.226,11.705,4.288,-1.514,-1.225,happy
5.50,2640,3691,3271,1535,3226,0,2785,2506,0,37,0,0,0,0,0,0,1.274,3.273,9.292,0.136,-0.056,0.005,0.187,-5.753,12.328,4.366,-1.753,-1.094,happy
5.51,2721,3757,3347,1687,3279,0,2734,2287,0,0,0,0,0,0,0,0,1.381,3.302,9.187,0.141,-0.056,-0.022,0.658,-7.712,16.199,4.366,-2.102,-1.335,happy
5.52,2815,3786,3409,1808,3312,0,2662,2065,0,0,0,0,0,0,0,0,1.262,3.268,9.333,0.133,-0.043,-0.023,0.280,-9.471,19.127,4.366,-2.266,-1.407,happy
5.53,2910,3823,3465,1947,3347,0,2581,1741,0,0,84,0,0,0,0,0,1.377,3.359,9.380,0.180,-0.036,-0.033,-1.125,-13.879,17.755,4.348,-2.767,-1.506,happy
5.54,2960,3825,3488,2020,3347,0,2351,468,1595,2566,0,2525,2595,1684,1581,3146,1.453,3.385,9.273,0.187,-0.035,-0.062,-1.171,-19.613,15.136,3.492,-3.221,-1.855,happy
5.55,3114,3898,3561,2197,3381,0,2055,0,0,0,0,0,0,0,0,0,1.384,3.531,9.280,0.287,-0.035,-0.066,-1.760,-19.613,5.552,2.974,-2.565,-2.182,happy
5.56,3213,3910,3615,2341,3297,0,1487,0,1599,2551,0,2449,2583,1693,1571,3108,1.300,3.311,9.467,0.407,-0.070,-0.060,-11.854,-19.613,-5.229,0.885,-1.680,-2.046,happy
5.57,3306,3941,3638,2443,2977,0,511,0,0,2727,0,2715,2667,23,1971,3256,1.465,3.496,9.151,0.496,0.049,-0.066,-7.180,-19.613,-6.673,-1.368,0.222,-1.208,happy
5.58,3408,3961,3678,2530,2134,0,260,0,1593,2551,0,2488,2581,1663,1572,3113,1.930,2.617,9.282,0.891,0.103,0.150,3.754,-15.694,1.329,-2.832,1.316,-1.511,happy
5.59,3518,3967,3702,2624,1784,0,0,0,0,0,28,0,0,0,0,0,1.753,3.766,9.323,1.032,0.293,0.185,2.981,13.151,12.028,-1.561,0.197,-1.394,happy
5.60,3575,3972,3715,2637,1728,0,0,0,0,0,0,0,0,0,0,397,1.379,3.747,9.038,1.239,0.311,0.167,-5.102,7.638,2.631,-2.951,0.622,-0.253,happy
5.61,3632,3959,3725,2642,1509,0,0,0,0,0,0,0,0,0,105,937,1.197,3.859,9.256,1.453,0.342,0.171,-10.077,-5.820,18.644,-3.100,0.396,0.320,happy
5.62,3683,3943,3707,2642,1442,0,0,0,1592,2557,0,2493,2583,1671,1575,3100,1.470,3.634,9.392,1.782,0.469,0.244,-8.710,-7.331,16.422,-2.355,0.134,0.501,happy
5.63,3723,3808,3664,2487,1034,0,0,0,0,0,0,0,0,0,985,2904,2.073,3.146,9.787,2.481,0.822,0.416,6.340,-6.527,11.586,-2.103,-0.607,0.394,happy
5.64,3707,3630,3550,2167,571,0,0,0,0,13,0,0,0,0,1627,3307,3.093,3.713,10.183,3.115,0.730,0.413,5.174,-4.666,9.711,-1.760,-0.253,0.353,happy
5.65,3659,2637,3050,1610,0,0,0,0,1541,2569,0,2547,2667,1864,1652,3134,3.627,5.832,13.305,4.396,0.293,-0.291,1.530,-4.896,16.084,-1.192,1.398,1.083,happy
5.66,3530,1728,1412,832,0,0,0,0,0,0,0,0,407,0,2725,3807,3.175,4.089,15.316,6.228,0.033,-1.510,0.204,-4.788,13.008,-0.387,1.018,0.457,happy
5.67,3277,1289,0,125,0,0,0,0,5,2,0,0,825,0,2953,3995,3.515,6.414,15.285,7.180,0.592,-2.234,3.723,-3.065,8.729,-0.197,1.161,0.481,happy
5.68,2782,485,0,0,0,0,0,0,41,0,0,0,1156,0,3069,3974,1.405,5.224,14.212,7.954,0.276,-2.708,0.687,-3.089,10.611,-0.276,0.915,0.385,happy
5.69,1921,0,0,0,0,0,0,0,59,0,0,0,1401,0,3251,4079,2.363,10.851,12.170,8.131,0.669,-3.084,1.441,-3.668,10.523,-0.124,0.822,0.413,happy
5.70,1159,0,0,0,0,0,0,0,37,0,0,0,1687,0,3309,4095,-3.412,16.934,19.613,4.804,-0.125,-2.496,1.094,-3.242,10.142,-0.094,0.707,0.358,happy
5.71,7,0,0,0,0,0,0,0,41,0,0,0,1869,0,3451,4095,3.917,2.875,19.613,0.482,-0.331,-3.554,1.432,-3.598,10.994,-0.111,0.643,0.313,happy
5.72,78,0,0,0,0,0,0,0,25,0,0,0,1993,0,3526,4095,11.372,2.258,13.664,-1.341,-0.318,-2.174,1.865,-3.244,9.929,-0.020,0.618,0.262,happy
5.73,84,0,0,0,0,0,0,0,27,0,0,0,2119,0,3573,4095,7.049,-1.360,7.927,-1.149,0.727,-1.696,1.805,-3.299,9.867,-0.042,0.394,0.140,happy
5.74,0,0,0,0,0,0,0,0,31,0,25,13,2224,0,3604,4095,4.451,-2.559,8.622,-1.389,-0.030,-1.149,1.832,-2.904,9.088,-0.111,0.253,0.059,happy
5.75,0,0,0,0,0,0,0,0,35,0,0,0,2281,0,3637,4095,5.832,0.237,10.877,-1.886,-1.189,-0.581,1.729,-3.096,9.603,-0.042,0.258,0.085,happy
5.76,0,0,0,0,0,0,0,0,56,0,0,0,2300,0,3644,4095,7.015,0.450,10.326,-2.713,-1.404,-0.104,1.872,-3.163,9.553,-0.043,0.257,0.105,happy
5.77,0,0,0,0,0,0,0,0,119,0,0,19,2314,0,3628,4095,5.222,0.273,8.835,-3.277,-1.041,0.584,1.896,-2.586,8.909,-0.084,0.261,0.138,happy
5.78,0,0,0,0,0,0,0,0,86,0,0,75,2359,0,3611,4095,2.167,0.690,8.159,-3.653,-0.797,0.914,1.700,-2.859,9.354,-0.140,0.268,0.148,happy
5.79,0,0,0,0,0,0,0,0,74,197,0,137,2404,2,3592,4095,-0.215,1.693,8.353,-3.899,-1.229,0.945,1.549,-3.100,9.476,-0.137,0.258,0.131,happy
5.80,0,0,0,0,0,0,0,0,135,426,1131,420,2431,37,3556,4095,-0.247,2.772,8.911,-4.082,-1.538,0.734,1.475,-3.141,9.474,-0.120,0.250,0.094,happy
5.81,0,0,0,0,0,0,0,0,109,568,1236,569,2476,13,3534,4095,0.022,3.845,10.025,-4.299,-1.501,0.564,1.156,-3.000,9.725,-0.118,0.190,0.094,happy
5.82,0,0,0,0,0,0,0,0,150,635,1686,815,2525,36,3519,4095,-0.927,5.006,11.217,-4.526,-1.508,0.374,1.226,-2.899,9.388,-0.135,0.120,0.113,happy
5.83,0,0,0,0,0,0,0,0,181,1097,2037,1119,2653,39,3512,4043,-0.419,6.804,11.858,-4.742,-1.856,0.171,1.468,-3.467,9.237,-0.104,0.024,0.149,happy
5.84,0,0,0,0,0,0,0,0,212,1263,2106,1407,2778,43,3513,4013,0.225,8.892,13.008,-4.607,-2.086,0.218,1.425,-3.170,9.287,-0.130,0.018,0.184,happy
5.85,0,0,0,0,0,0,0,0,285,1645,1965,1821,2967,46,3515,3975,0.026,12.579,16.575,-4.595,-2.244,0.623,1.369,-3.196,9.627,-0.195,-0.027,0.180,happy
5.86,0,0,0,0,0,0,0,0,445,2166,2193,2201,3132,47,3487,3895,-0.702,14.664,16.635,-4.272,-2.527,0.992,1.384,-3.321,9.493,-0.146,0.008,0.152,happy
5.87,0,0,0,0,0,0,0,0,638,2382,2203,2453,3210,51,3497,3797,-1.010,18.701,17.363,-3.987,-1.931,1.271,1.393,-3.390,9.646,-0.139,-0.017,0.117,happy
5.88,0,0,0,0,0,0,0,0,1199,2607,2203,2451,3349,48,3027,3663,-1.448,18.105,8.760,-3.707,-1.682,1.602,1.415,-3.438,9.498,-0.190,-0.083,0.052,happy
5.89,208,0,0,0,0,0,0,0,1766,2729,2180,2695,3325,53,2597,3163,-5.559,17.303,-0.273,-2.237,-1.201,2.439,1.516,-3.402,9.723,-0.231,-0.054,0.046,happy
5.90,285,0,0,0,219,0,0,0,2265,2841,2244,2853,3383,47,2430,2826,-9.764,19.613,-10.915,-0.811,-1.097,2.763,1.554,-3.543,9.524,-0.236,-0.039,0.045,happy
5.91,257,0,0,0,136,0,0,0,2620,2952,2247,3049,3435,47,1627,1886,1.982,19.455,-7.669,3.346,0.198,1.882,1.437,-3.701,9.419,-0.272,0.107,-0.002,happy
5.92,0,0,0,0,161,0,0,0,2915,3171,2259,3261,2824,37,104,1203,-2.172,2.919,19.613,1.434,1.488,0.476,1.432,-6.072,8.952,-0.127,0.153,0.132,happy
5.93,0,0,0,0,113,0,242,626,3129,3225,2257,3293,2631,17,85,615,-3.462,-5.045,4.211,2.268,0.425,0.206,2.480,-0.101,10.542,-0.663,0.239,-0.014,happy
5.94,0,0,0,0,237,0,639,2527,3320,3225,2272,3400,1615,5,0,536,-4.073,3.601,12.617,2.941,-0.567,-0.440,1.271,-3.282,9.498,-0.686,0.219,-0.099,happy
5.95,0,0,0,0,651,0,1419,3092,3470,2836,2249,3430,551,1,0,313,5.069,6.800,13.147,2.226,-0.516,0.179,1.695,-2.583,9.548,-1.474,0.350,-0.187,happy
5.96,0,0,0,0,958,0,2194,3043,3548,2628,2352,3529,205,5,3,185,-0.555,7.247,17.719,1.898,1.535,-0.786,2.389,-2.002,9.984,-2.237,0.416,-0.297,happy
5.97,0,848,0,0,1531,0,2532,3417,3619,1886,2439,3385,53,3,0,109,1.824,3.936,12.213,0.822,1.550,-0.586,4.966,-2.703,11.222,-3.918,0.985,-0.377,happy
5.98,94,1693,0,0,1932,0,2733,3532,3363,247,1635,2543,2,0,0,123,2.002,3.448,9.522,0.583,1.374,-0.493,2.557,-3.371,14.621,-4.366,1.221,1.321,happy
5.99,422,2218,0,0,2237,0,2822,3582,3035,0,0,1461,0,0,0,67,0.936,3.457,10.906,0.368,1.068,-0.512,3.237,-9.546,19.613,-4.366,1.274,2.273,happy
6.00,624,2656,0,0,2446,0,2923,3619,2357,2,0,262,27,0,0,0,0.927,3.627,10.539,0.262,0.540,-0.431,4.111,-5.758,16.728,-4.366,1.605,3.634,happy
6.01,827,2930,403,0,2583,0,3019,3645,0,0,0,0,0,0,0,0,1.161,3.196,9.792,0.229,0.210,-0.345,-0.773,-6.543,19.613,-2.667,1.091,3.955,happy
6.02,911,3033,1082,0,2675,0,3088,3632,0,0,0,0,0,0,0,0,1.611,3.510,9.685,0.241,0.089,-0.066,-1.164,-13.309,19.613,-0.030,-0.555,3.280,happy
6.03,970,3120,1601,0,2761,0,3118,3628,0,0,0,0,0,0,13,0,1.717,3.029,9.187,0.191,0.113,0.030,7.652,7.029,10.736,1.190,-0.720,3.011,happy
6.04,901,2957,1776,0,2615,0,2908,3379,0,0,0,0,0,0,13,0,1.571,3.014,9.242,0.160,0.149,-0.051,8.440,3.081,5.164,1.410,-0.141,2.219,happy
6.05,1110,3245,2229,208,2882,0,3123,3581,1,0,0,0,0,0,0,0,1.274,2.919,9.404,0.234,0.162,-0.079,7.056,0.622,7.130,1.479,-0.567,1.338,happy
6.06,1168,3296,2474,368,2956,0,3106,3536,0,0,0,0,0,0,0,0,1.255,3.400,9.689,0.202,0.088,-0.075,8.171,-0.156,9.639,1.964,-1.174,0.376,happy
6.07,1225,3366,2595,507,3011,0,3071,3486,0,0,0,0,0,0,0,29,1.252,3.160,9.579,0.209,0.033,-0.069,8.583,-0.936,9.577,2.555,-1.321,-0.576,happy
6.08,1320,3452,2784,771,3058,0,3010,3308,0,0,0,0,0,0,0,0,1.247,3.371,9.553,0.222,-0.037,-0.040,5.514,-1.022,9.127,3.068,-1.363,-1.332,happy
6.09,1442,3511,2945,1007,3118,0,2939,3111,0,0,0,0,0,0,0,0,1.267,3.242,9.433,0.220,-0.047,-0.038,0.146,-1.420,7.640,3.534,-1.863,-1.765,happy
6.10,1535,3580,3058,1277,3152,0,2861,2898,0,0,0,0,0,0,0,0,0.704,3.816,9.878,0.213,-0.059,0.003,-0.907,-2.945,10.362,3.835,-1.764,-1.358,happy
6.11,1636,3639,3180,1578,3200,0,2786,2650,0,0,0,0,0,0,14,0,1.286,3.239,9.213,0.181,-0.042,-0.022,-0.819,-4.101,11.866,4.114,-1.750,-1.155,happy
6.12,1712,3689,3264,1758,3225,0,2719,2419,0,0,0,0,0,0,0,0,1.252,3.464,9.366,0.139,-0.025,-0.020,-0.697,-5.193,12.637,4.366,-1.989,-1.063,happy
6.13,1805,3744,3328,1943,3263,0,2654,2161,0,0,0,0,0,20,0,0,1.310,3.342,9.220,0.142,-0.046,-0.051,0.362,-7.180,16.039,4.366,-2.139,-1.251,happy
6.14,1879,3723,3339,2027,3219,0,2532,1952,0,0,0,0,0,0,0,0,1.259,3.510,9.342,0.102,0.002,-0.044,0.232,-8.262,18.443,4.366,-1.982,-1.340,happy
6.15,2044,3795,3447,2199,3326,0,2502,1756,11,0,0,0,0,7,0,0,1.353,3.397,9.376,0.096,0.011,-0.058,-2.696,-13.448,19.613,4.366,-2.243,-1.321,happy
6.16,2130,3827,3454,2320,3341,0,2306,944,1594,2551,0,2491,2583,1674,1576,3107,1.362,3.338,9.385,0.151,0.007,-0.071,-4.436,-13.817,16.589,3.271,-2.628,-1.590,happy
6.17,2315,3855,3536,2432,3347,0,2030,0,1595,2557,0,2506,2599,1693,1583,3117,1.369,3.378,9.263,0.191,-0.005,-0.080,-5.478,-19.613,4.484,3.184,-1.590,-1.276,happy
6.18,2446,3856,3573,2525,3242,0,1573,0,1594,2549,0,2484,2579,1659,1570,3107,1.326,3.479,9.268,0.261,0.022,-0.058,-9.395,-19.613,-5.590,0.719,-1.958,-1.348,happy
6.19,2662,3888,3621,2626,3019,0,769,0,0,0,0,0,0,0,0,0,1.451,3.493,9.527,0.373,0.061,-0.045,-5.464,-18.943,-9.843,-1.870,0.306,-1.507,happy
6.20,2737,3903,3632,2640,2426,0,338,0,33,0,0,0,0,0,0,0,1.056,3.697,9.735,0.482,0.063,-0.137,-2.339,-5.397,3.093,-2.182,2.673,-0.120,happy
6.21,2844,3903,3646,2699,2201,0,295,0,0,0,0,0,0,0,0,0,1.336,2.842,9.390,0.875,-0.062,0.010,3.646,-3.326,19.613,-1.586,2.286,-0.206,happy
6.22,2962,3908,3648,2721,1968,0,214,0,0,0,0,20,0,0,29,243,1.530,3.754,9.143,1.155,-0.016,0.129,4.386,5.418,9.598,-1.714,-0.028,-1.021,happy
6.23,3179,3893,3662,2768,1675,0,0,0,0,0,0,0,0,0,0,711,1.367,4.032,9.474,1.326,0.138,0.136,-2.533,3.950,2.787,-2.699,0.592,0.005,happy
6.24,3280,3898,3664,2796,1527,0,0,0,0,0,0,0,0,0,0,1289,1.209,3.639,9.048,1.497,0.192,0.140,-8.423,-7.372,17.549,-2.753,0.504,0.076,happy
6.25,3163,3643,3461,2591,1237,0,0,0,0,0,0,0,0,0,30,1967,1.652,3.783,9.359,1.717,0.274,0.213,-7.499,-4.041,16.374,-2.426,-0.132,0.161,happy
6.26,3446,3871,3649,2755,1311,0,0,0,0,0,0,0,0,0,621,2519,2.131,3.440,9.340,2.065,0.409,0.333,-1.094,-2.995,11.499,-2.313,-0.321,0.524,happy
6.27,3504,3728,3454,2320,995,0,0,0,0,0,0,0,0,0,1502,3189,1.530,3.328,9.814,2.711,0.673,0.411,3.869,-4.472,9.845,-1.670,-0.193,0.240,happy
6.28,3543,3297,3441,1955,558,0,0,0,0,0,0,0,7,0,1996,3417,2.423,3.677,10.424,3.145,0.739,0.354,5.516,-5.792,8.636,-0.800,1.078,0.386,happy
6.29,3549,2830,3186,1730,229,0,0,0,1605,2552,0,2496,2597,1694,1583,3108,1.348,3.950,11.231,3.919,0.398,0.110,1.073,-3.534,9.699,-0.428,1.487,0.575,happy
6.30,3491,2128,2078,1330,0,0,0,0,0,0,2,0,779,0,2759,3897,2.330,5.308,16.374,5.510,-0.254,-1.156,1.721,-3.407,10.470,-0.379,1.070,0.433,happy
6.31,2827,1136,0,82,0,0,0,0,0,0,0,0,1013,0,2861,3945,2.696,7.683,15.617,7.242,-0.289,-2.453,0.543,-3.625,10.953,-0.358,0.524,0.237,happy
6.32,2064,446,0,0,0,0,0,0,24,0,0,103,1287,0,3035,4015,3.144,10.127,14.135,7.161,-0.235,-2.952,1.336,-3.357,9.735,-0.283,0.450,0.276,happy
6.33,1146,0,0,0,0,0,0,0,5,10,0,243,1529,0,3132,4061,-1.214,13.041,15.522,5.891,0.181,-2.825,0.785,-3.594,10.161,-0.144,0.246,0.215,happy
6.34,179,0,0,0,0,0,0,0,1,4,0,501,1821,0,3290,4073,-0.218,4.583,19.613,1.317,0.396,-3.898,1.434,-3.393,9.790,-0.095,0.221,0.163,happy
6.35,0,0,0,0,0,0,0,0,8,600,1041,746,2027,5,3390,4073,11.372,7.125,13.712,0.265,0.436,-2.928,1.470,-2.902,9.199,-0.102,0.139,0.124,happy
6.36,0,0,0,0,0,0,0,0,0,639,1133,937,2166,3,3511,4095,8.109,-2.983,14.260,-1.120,0.953,-3.038,1.554,-3.304,9.713,-0.035,0.171,0.168,happy
6.37,0,0,0,0,0,0,0,0,23,667,1261,1050,2294,8,3590,4095,8.794,-1.982,8.660,-1.450,0.624,-2.032,1.647,-3.316,9.527,-0.100,0.077,0.110,happy
6.38,0,0,0,0,0,0,0,0,47,669,1425,1176,2423,9,3597,4095,8.028,-0.934,8.758,-1.568,-0.215,-1.165,1.396,-3.242,9.625,-0.077,0.075,0.111,happy
6.39,0,0,0,0,0,0,0,0,59,703,1850,1192,2517,16,3631,4095,8.363,-0.103,9.914,-1.961,-0.841,-0.301,1.575,-3.488,10.195,-0.085,0.059,0.078,happy
6.40,0,0,0,0,0,0,0,0,46,839,2014,1479,2661,13,3647,4095,6.732,0.893,9.637,-2.804,-1.034,1.007,1.408,-3.381,9.395,-0.025,0.042,0.093,happy
6.41,0,0,0,0,0,0,0,0,68,895,2055,1533,2707,21,3637,4093,3.766,1.173,8.914,-3.228,-0.880,1.443,1.470,-3.201,9.445,-0.015,0.054,0.085,happy
6.42,0,0,0,0,0,0,0,0,71,1077,2085,1679,2733,37,3621,4079,1.211,1.413,8.145,-3.453,-1.037,1.580,1.410,-3.103,9.352,-0.038,0.062,0.083,happy
6.43,0,0,0,0,0,0,0,0,78,1157,2101,1771,2781,6,3595,4059,0.560,2.258,8.665,-3.603,-1.295,1.496,1.293,-3.220,9.383,-0.077,0.017,0.065,happy
6.44,0,0,0,0,0,0,0,0,105,1339,2119,1813,2811,45,3565,4040,-0.007,2.978,9.823,-3.752,-1.353,1.298,1.178,-3.259,9.380,-0.072,-0.002,0.052,happy
6.45,0,0,0,0,0,0,0,0,119,1452,2144,1890,2893,29,3529,3995,-0.445,5.064,11.849,-4.150,-1.492,1.026,1.307,-3.249,9.476,-0.009,0.040,0.102,happy
6.46,0,0,0,0,0,0,0,0,121,1481,2152,1927,2927,36,3526,3980,-0.397,6.685,12.838,-4.363,-1.578,0.853,1.300,-3.091,9.280,-0.015,0.056,0.121,happy
6.47,0,0,0,0,0,0,0,0,119,1723,2185,2077,3029,30,3613,3829,-1.130,9.340,15.689,-4.565,-1.630,0.780,1.223,-3.170,9.455,-0.064,0.024,0.128,happy
6.48,0,0,0,0,0,0,0,0,171,2059,2213,2335,3160,39,3501,3897,-1.432,11.454,15.419,-4.375,-1.944,0.617,1.334,-3.261,9.498,-0.068,0.011,0.128,happy
6.49,0,0,0,0,0,0,0,0,296,2271,2385,2395,3239,47,3444,3859,0.699,17.348,19.283,-3.982,-2.425,0.752,1.358,-3.366,9.531,-0.058,-0.016,0.120,happy
6.50,0,0,0,0,0,0,0,0,761,2441,2111,2613,3327,63,3079,3709,1.851,19.613,14.164,-4.230,-1.807,1.316,1.281,-3.306,9.436,-0.128,-0.065,0.076,happy
6.51,0,0,0,0,0,0,0,0,1010,2551,2224,2699,3366,47,2937,3604,-0.129,17.933,2.976,-3.158,-1.475,1.988,1.288,-3.263,9.515,-0.148,-0.062,0.055,happy
6.52,80,0,0,0,150,0,0,0,1544,2451,1791,2602,3089,78,2431,2861,-7.001,19.613,-0.496,-1.527,-0.946,3.065,1.630,-3.388,9.421,-0.201,0.000,0.056,happy
6.53,68,0,0,0,369,0,0,0,2257,2871,2198,2997,3389,47,1979,2419,-11.983,19.613,-12.854,0.089,-0.019,2.196,1.642,-3.431,9.333,-0.302,0.057,0.016,happy
6.54,11,0,0,0,272,0,0,0,2733,3021,2218,3127,3014,47,904,1677,2.729,11.181,-1.504,3.199,1.085,1.013,1.192,-4.472,9.060,-0.285,0.106,0.011,happy
6.55,0,0,0,0,272,0,0,0,2895,3059,2206,3187,2765,41,159,1383,2.689,-1.355,18.395,1.153,0.741,0.765,1.623,-6.220,9.057,0.037,0.118,0.155,happy
6.56,0,0,0,0,0,0,290,1269,3155,3143,2239,3350,2065,0,3,572,-4.870,-4.427,6.704,2.764,0.035,-0.270,1.082,-4.381,9.383,-0.653,0.119,-0.064,happy
6.57,0,0,0,0,374,0,847,2624,3357,2853,2275,3439,1001,4,0,530,-2.375,4.640,14.238,3.010,-0.197,-0.516,1.781,-2.543,8.626,-0.899,0.252,-0.135,happy
6.58,0,0,0,0,816,0,1695,3092,3465,2723,2275,3554,483,5,6,332,4.913,4.978,11.655,2.289,-0.137,0.021,1.918,-2.478,9.531,-1.254,0.237,-0.159,happy
6.59,34,0,0,0,1168,0,2334,3258,3593,2367,2385,3579,136,5,3,169,8.169,9.867,11.466,1.167,1.210,-0.395,2.916,-1.678,9.761,-2.982,0.488,-0.347,happy
6.60,384,976,0,0,1728,0,2594,3440,3608,1362,2469,3261,38,5,0,173,-0.395,4.322,12.510,0.678,1.542,-0.534,5.562,-5.758,12.704,-4.342,1.416,0.042,happy
6.61,639,1837,0,0,2064,0,2766,3519,3560,438,2231,2788,0,62,0,111,0.812,4.350,11.468,0.503,1.211,-0.424,1.235,-3.129,16.156,-4.366,1.149,1.017,happy
6.62,749,2336,0,0,2304,0,2893,3567,1596,2535,0,2492,2585,1674,1557,3109,0.381,3.572,11.250,0.357,0.972,-0.432,5.112,-7.278,15.804,-4.366,1.568,3.251,happy
6.63,912,2736,0,0,2479,0,3027,3627,1717,0,0,0,0,0,0,0,0.991,3.110,9.673,0.208,0.392,-0.347,2.777,-12.340,11.083,-4.366,2.220,3.773,happy
6.64,1002,2893,280,0,2529,0,3086,3629,13,0,0,0,0,0,0,0,1.362,2.720,9.191,0.300,0.210,-0.235,-0.910,-9.349,19.137,-3.730,1.914,3.840,happy
6.65,1023,2993,941,0,2662,0,3120,3632,0,0,0,0,0,0,0,0,1.544,3.326,9.735,0.227,0.078,-0.102,0.950,-2.239,19.613,-0.495,0.186,4.096,happy
6.66,1059,3069,1494,0,2736,0,3153,3600,0,0,0,0,0,0,0,0,1.674,3.215,9.409,0.202,0.091,0.019,9.989,-0.158,19.613,0.900,-1.257,2.938,happy
6.67,1150,3171,1872,19,2832,0,3163,3603,2,0,0,0,0,0,0,0,1.391,3.282,9.639,0.157,0.090,-0.042,10.403,-0.275,6.297,1.598,-0.634,2.272,happy
6.68,1190,3219,2158,76,2919,0,3168,3567,0,0,0,0,7,0,0,0,1.223,3.304,9.536,0.199,0.131,-0.043,8.641,3.000,4.240,1.641,-0.612,1.259,happy
6.69,1204,3275,2368,257,2979,0,3152,3537,0,0,0,0,0,0,0,0,1.051,3.304,9.766,0.205,0.063,-0.043,8.432,0.840,6.634,1.674,-0.911,0.202,happy
6.70,1234,3312,2510,411,3037,0,3125,3461,0,26,0,25,4,0,6,137,1.164,3.191,9.486,0.231,-0.003,-0.051,7.582,-1.240,10.374,2.104,-1.212,-0.778,happy
6.71,1323,3386,2694,631,3110,0,3069,3290,0,0,0,0,0,0,0,0,1.178,3.426,9.586,0.209,-0.071,-0.030,5.341,-2.162,11.392,2.878,-1.375,-1.549,happy
6.72,1393,3454,2847,784,3178,0,3014,3071,0,0,0,0,0,0,0,0,1.331,3.361,9.493,0.220,-0.082,-0.010,-1.276,-1.954,7.293,3.572,-1.847,-1.825,happy
6.73,1462,3519,2947,934,3209,0,2969,2887,0,0,0,0,0,0,0,0,1.240,3.211,9.282,0.184,-0.066,-0.013,-2.045,-3.503,9.555,3.832,-1.727,-1.063,happy
6.74,1563,3566,3043,1072,3262,0,2907,2653,0,0,0,0,0,0,0,0,1.334,3.273,9.189,0.180,-0.073,-0.029,-1.310,-4.587,10.896,4.048,-1.685,-0.753,happy
6.75,1652,3614,3141,1274,3293,0,2866,2416,0,21,0,0,0,0,0,0,1.391,3.464,9.112,0.182,-0.068,-0.060,-0.302,-5.581,11.413,4.238,-1.935,-0.877,happy
6.76,1757,3676,3223,1525,3332,0,2801,2265,0,0,0,0,0,0,0,0,1.422,3.577,9.354,0.141,-0.033,-0.068,-1.077,-6.946,14.724,4.237,-2.198,-1.235,happy
6.77,1872,3705,3294,1757,3355,0,2745,2080,0,0,0,0,0,0,0,0,1.348,3.481,9.311,0.142,-0.025,-0.052,-2.363,-9.476,19.613,4.366,-2.004,-1.065,happy
6.78,1997,3750,3371,1884,3383,0,2673,1827,0,0,0,0,0,0,0,0,1.334,3.426,9.275,0.160,-0.017,-0.056,-2.543,-11.447,18.529,4.366,-2.050,-1.256,happy
6.79,2130,3772,3418,1994,3407,0,2537,1307,1593,2553,0,2495,2589,1674,1576,3111,1.305,3.457,9.354,0.197,-0.022,-0.084,-4.405,-18.141,16.333,3.952,-2.259,-1.385,happy
6.80,2240,3795,3466,2047,3406,0,2274,0,1592,2551,0,2491,2601,1671,1567,3109,1.415,3.656,9.208,0.213,0.007,-0.077,-3.239,-19.613,10.274,3.428,-1.946,-1.544,happy
6.81,2224,3784,3319,2192,3290,0,1719,0,1593,2543,0,2493,2587,1673,1575,3111,1.422,3.536,9.110,0.241,0.047,-0.059,-9.357,-19.613,-3.531,1.630,-0.953,-1.792,happy
6.82,2491,3845,3533,2364,3199,0,1207,0,0,0,0,0,0,0,0,0,1.456,3.493,9.163,0.276,0.148,-0.046,-8.294,-18.462,-2.856,-0.265,-0.260,-1.164,happy
6.83,2374,3733,3327,2471,2265,0,330,0,0,0,0,0,0,0,27,0,1.623,3.302,9.160,0.330,0.253,-0.083,-10.901,-18.155,-9.414,-1.913,1.186,-0.547,happy
6.84,2721,3859,3605,2621,2031,0,272,0,0,0,0,0,0,0,0,137,1.528,3.941,9.110,0.791,0.150,0.119,-0.247,3.869,19.613,-1.089,0.694,0.010,happy
6.85,2810,3750,3530,2643,1794,0,100,0,0,0,0,0,0,0,0,691,1.369,3.771,9.345,0.918,0.269,0.167,4.367,5.653,-0.675,-2.728,-0.398,0.119,happy
6.86,2966,3858,3633,2762,1681,0,0,0,0,0,0,0,0,0,0,1135,1.132,3.673,9.151,1.038,0.296,0.153,0.417,-5.306,10.305,-2.553,0.663,0.544,happy
6.87,3088,3855,3633,2812,1600,0,0,0,1,0,0,0,0,0,0,1973,1.008,3.831,9.131,1.240,0.288,0.169,-7.149,-8.047,17.518,-2.333,-0.060,0.171,happy
6.88,3147,3795,3600,2819,1355,0,0,0,43,0,53,0,0,0,423,2537,1.829,3.359,9.582,1.498,0.364,0.220,-2.241,-1.188,11.983,-2.335,-0.208,0.510,happy
6.89,3339,3795,3611,2769,1094,0,0,0,0,0,0,10,0,0,1385,3325,2.097,3.299,9.981,2.176,0.608,0.430,2.916,-4.451,10.939,-1.891,-0.095,0.173,happy
6.90,3426,3316,3494,2231,491,0,0,0,0,0,0,9,0,0,1747,3615,2.394,3.266,10.429,2.981,0.847,0.443,-4.199,-8.487,15.117,-1.154,1.398,1.098,happy
6.91,3486,2631,3041,1747,0,0,0,0,0,0,0,0,316,0,2531,3883,-0.192,1.130,11.751,4.094,0.447,-0.423,-0.304,-4.422,13.736,-0.723,1.056,0.507,happy
6.92,3383,1684,1535,1221,0,0,0,0,5,0,0,5,760,0,2791,4009,1.585,4.525,15.285,5.868,-0.053,-1.410,0.654,-3.838,10.594,-0.406,0.403,0.276,happy
6.93,2334,537,0,0,0,0,0,0,5,0,0,229,1065,0,2925,4051,2.861,9.692,14.863,7.373,-0.279,-2.346,1.065,-3.397,10.171,-0.348,0.272,0.246,happy
6.94,1467,0,0,0,0,0,0,0,30,0,0,448,1055,0,3097,4085,1.590,9.723,13.819,6.823,0.048,-2.997,0.972,-3.309,9.922,-0.206,0.174,0.203,happy
6.95,695,0,0,0,0,0,0,0,51,1,0,621,1454,2,3219,4095,2.263,12.763,19.613,3.324,-0.104,-2.685,1.113,-3.318,9.948,-0.100,0.175,0.193,happy
6.96,0,0,0,0,0,0,0,0,51,0,0,777,1637,31,3327,4095,5.370,-3.117,19.613,0.157,0.473,-3.653,1.377,-3.349,9.553,-0.116,0.097,0.116,happy
6.97,0,0,0,0,0,0,0,0,60,229,0,871,1807,2,3412,4095,8.492,-0.852,13.903,-0.700,0.175,-2.303,1.401,-3.402,9.790,-0.023,0.123,0.085,happy
6.98,0,0,0,0,0,0,0,0,76,505,765,805,2006,27,3493,4095,6.958,-0.158,8.308,-0.738,0.426,-1.796,1.554,-3.505,9.735,-0.021,0.054,0.033,happy
6.99,0,0,0,0,0,0,0,0,38,169,918,909,2107,5,3543,4095,6.112,-1.932,9.325,-1.255,-0.228,-1.274,1.377,-3.311,9.457,0.021,0.077,0.044,happy
7.00,0,0,0,0,0,0,0,0,41,89,1097,967,2175,11,3571,4095,7.056,-0.479,9.299,-1.676,-0.899,-0.572,1.434,-3.048,9.227,-0.037,-0.009,0.055,happy
7.01,0,0,0,0,0,0,0,0,51,247,1210,1070,2232,13,3588,4095,6.665,-0.280,8.744,-2.204,-1.032,0.048,1.314,-2.756,9.263,-0.017,0.056,0.120,happy
7.02,0,0,0,0,0,0,0,0,63,435,1192,1124,2291,20,3578,4095,5.495,0.199,8.729,-2.650,-0.976,0.666,1.358,-3.069,9.385,-0.091,0.041,0.140,happy
7.03,0,0,0,0,0,0,0,0,51,623,1389,1244,2359,17,3571,4095,3.290,0.869,8.760,-3.046,-0.965,1.065,1.405,-3.330,9.524,-0.087,0.064,0.119,happy
7.04,0,0,0,0,0,0,0,0,115,659,1916,1339,2381,25,3524,4095,1.142,1.329,8.392,-3.318,-1.114,1.228,1.398,-3.227,9.565,-0.068,0.080,0.100,happy
7.05,0,0,0,0,0,0,0,0,92,701,1947,1471,2413,27,3545,4095,0.421,1.851,8.633,-3.523,-1.318,1.176,1.271,-2.988,9.335,-0.098,0.063,0.105,happy
7.06,0,0,0,0,0,0,0,0,111,723,2075,1587,2467,29,3533,4095,-0.266,2.648,9.850,-3.712,-1.373,1.021,1.214,-3.093,9.428,-0.117,0.044,0.120,happy
7.07,0,0,0,0,0,0,0,0,125,1084,2101,1775,2635,30,3511,4063,-0.874,4.566,11.557,-4.123,-1.481,0.724,1.331,-3.213,9.426,-0.070,0.047,0.128,happy
7.08,0,0,0,0,0,0,0,0,265,1380,2152,1947,2763,45,3452,4031,-1.130,5.892,12.945,-4.217,-1.565,0.484,1.290,-3.048,9.409,-0.091,0.042,0.154,happy
7.09,0,0,0,0,0,0,0,0,303,1429,2180,2142,2845,111,3503,4013,-1.942,8.217,15.421,-4.412,-1.742,0.237,1.113,-3.340,9.562,-0.144,0.027,0.155,happy
7.10,0,0,0,0,0,0,0,0,378,1741,2229,2439,2957,51,3463,3941,-2.923,9.524,15.431,-4.158,-1.915,0.002,1.255,-3.278,9.354,-0.106,0.023,0.109,happy
7.11,0,0,0,0,0,0,0,0,880,2201,2242,2595,3091,78,3350,3895,-3.589,13.147,16.103,-3.556,-2.339,-0.088,1.314,-3.299,9.392,-0.147,-0.048,0.061,happy
7.12,0,0,0,0,0,0,0,0,1117,2381,2249,2683,3145,51,3187,3839,-0.543,16.573,13.889,-3.068,-2.367,0.107,1.329,-3.361,9.316,-0.170,-0.060,0.058,happy
7.13,0,0,0,0,0,0,0,0,1823,2577,2265,2861,3225,47,2663,3653,0.445,18.342,11.004,-2.821,-1.245,0.686,1.329,-3.361,9.438,-0.261,-0.054,-0.006,happy
7.14,0,0,0,0,0,0,0,0,2415,2660,2270,3065,3289,47,2164,3172,-7.539,19.613,2.684,-2.520,-1.176,1.824,1.389,-3.536,9.333,-0.272,-0.010,-0.020,happy
7.15,0,0,0,0,0,0,0,0,2635,2720,2270,3173,3283,45,1873,2808,-8.751,18.325,-11.648,-0.828,-0.604,1.701,1.365,-3.493,9.416,-0.278,-0.016,-0.028,happy
7.16,0,0,0,0,0,0,0,0,2937,2871,2275,3225,3165,49,911,1693,-5.061,12.117,-0.764,1.739,0.491,0.234,1.346,-3.610,9.325,-0.243,0.003,-0.005,happy
7.17,0,0,0,0,0,0,0,0,3183,2971,2567,3367,2374,31,164,1383,0.680,5.933,17.506,1.055,1.645,-0.253,1.439,-3.596,9.230,-0.231,0.124,0.061,happy
7.18,0,0,0,0,0,0,0,0,3311,3055,2285,3359,2023,0,5,797,2.054,-2.523,7.709,1.231,0.666,-0.050,1.990,-2.172,9.840,-0.488,0.219,0.015,happy
7.19,0,0,0,0,106,0,203,368,3390,3013,2290,3415,1607,7,2,493,0.735,-3.213,5.681,2.057,0.368,-0.596,1.365,-3.673,8.813,-0.546,0.240,-0.032,happy
7.20,0,0,0,0,319,0,676,2230,3593,2613,2316,3483,669,6,3,315,2.720,3.318,11.428,2.723,-0.191,-0.110,1.573,-3.831,9.402,-0.591,0.271,-0.107,happy
7.21,0,0,0,0,837,0,1477,2963,3720,2473,2326,3589,312,5,4,185,1.391,5.717,11.624,2.096,-0.392,0.107,1.599,-2.971,9.804,-1.314,0.247,-0.238,happy
7.22,69,0,0,0,1151,0,2149,3191,3763,2290,2352,3619,57,25,0,155,6.084,9.440,12.795,1.142,0.402,-0.219,2.219,-3.179,9.330,-1.970,0.305,-0.305,happy
7.23,256,176,0,0,1616,0,2483,3383,3789,1765,2472,3510,0,0,1,99,1.970,5.090,12.265,0.564,0.969,-0.432,1.753,-3.187,10.056,-3.348,0.921,-0.334,happy
7.24,426,875,0,0,1990,0,2669,3514,3567,699,2275,2950,3,0,0,71,2.397,3.704,9.934,0.412,1.090,-0.487,-0.093,-2.883,13.171,-4.366,0.933,0.727,happy
7.25,527,1595,0,0,2222,0,2801,3568,3238,169,0,2229,0,0,0,1,1.463,2.885,9.567,0.390,1.359,-0.630,1.798,-5.080,13.621,-4.366,0.692,1.440,happy
7.26,778,2319,0,0,2403,0,2836,3598,2152,0,0,413,0,0,0,0,0.268,4.932,12.711,0.552,0.747,-0.433,2.662,-6.424,9.924,-4.366,0.988,2.480,happy
7.27,972,2629,142,0,2457,0,2886,3601,1595,2568,0,2505,2507,1711,1598,3112,1.477,4.202,11.090,0.506,0.645,-0.360,2.272,-9.390,12.232,-4.366,0.941,2.649,happy
7.28,1468,2896,1825,157,2557,0,2981,3607,35,0,0,0,0,0,0,0,1.681,4.005,9.776,0.265,0.098,-0.063,1.535,-10.305,14.607,-2.592,1.478,2.617,happy
7.29,1878,3051,2422,820,2673,0,3022,3583,0,0,0,0,0,0,0,0,1.118,3.220,9.656,0.177,0.174,0.031,4.762,0.091,19.613,0.073,0.851,2.740,happy
7.30,2106,3120,2603,1137,2705,0,3029,3551,0,0,0,0,0,12,0,0,0.611,3.455,10.099,0.074,0.078,0.049,6.352,-0.637,15.596,1.042,0.242,1.591,happy
7.31,2352,3229,2755,1664,2768,0,3007,3479,0,0,0,0,0,0,0,0,1.125,3.335,9.625,0.165,-0.007,0.053,3.960,0.797,4.939,1.376,0.411,0.850,happy
7.32,2501,3282,2811,1797,2789,0,2993,3406,0,0,0,0,0,0,0,0,1.097,3.369,9.665,0.175,-0.026,0.043,4.161,-1.221,7.590,1.423,-0.193,0.165,happy
7.33,2542,3297,2800,1882,2736,0,2890,3319,0,0,0,0,0,0,0,0,1.077,3.508,9.524,0.184,-0.030,0.041,3.989,-1.633,9.316,1.860,-0.644,-0.449,happy
7.34,2721,3403,2935,2055,2814,0,2914,3206,0,0,0,0,0,0,0,0,1.257,3.402,9.333,0.178,-0.021,0.026,1.753,-2.588,8.744,2.895,-0.899,-1.168,happy
7.35,2835,3440,2996,2161,2821,0,2855,3071,0,0,0,0,0,25,0,0,1.228,3.486,9.376,0.147,-0.022,0.025,1.283,-2.928,7.463,3.144,-0.860,-1.282,happy
7.36,2928,3489,3062,2266,2859,0,2827,2961,0,0,0,0,0,0,0,0,1.111,3.527,9.340,0.118,-0.027,0.014,0.874,-3.862,8.329,3.306,-0.734,-1.518,happy
7.37,3005,3541,3131,2336,2906,0,2818,2864,0,5,0,0,0,0,0,0,1.250,3.472,9.311,0.100,-0.026,-0.007,2.073,-5.440,9.711,3.496,-0.801,-1.807,happy
7.38,3062,3574,3169,2365,2970,0,2815,2769,0,0,0,0,0,0,0,0,1.343,3.440,9.222,0.088,-0.030,-0.011,2.825,-6.033,9.797,3.559,-0.703,-2.110,happy
7.39,3129,3605,3213,2419,3012,0,2811,2704,0,0,0,0,0,0,0,0,1.245,3.402,9.282,0.092,-0.030,-0.013,3.522,-7.171,10.259,3.407,-0.489,-3.097,happy
7.40,3184,3650,3247,2480,3089,0,2800,2647,0,0,0,0,0,52,0,0,1.271,3.464,9.242,0.107,-0.025,-0.010,5.054,-8.428,11.693,3.065,-0.146,-4.179,happy
7.41,3188,3645,3291,2511,3115,0,2771,2509,0,0,0,0,0,4,0,0,1.348,3.417,9.292,0.144,-0.044,-0.026,5.801,-10.192,11.947,2.874,0.226,-4.366,happy
7.42,3263,3681,3309,2535,3177,0,2702,2259,0,0,7,0,0,0,0,0,1.295,3.438,9.345,0.176,-0.058,-0.037,4.882,-16.218,12.146,2.457,0.624,-4.366,happy
7.43,3301,3696,3322,2559,3212,0,2613,1853,1593,2549,0,2488,2581,1669,1567,3107,1.288,3.591,9.196,0.191,-0.043,-0.027,5.768,-17.008,5.162,1.940,1.357,-4.366,happy
7.44,3343,3723,3346,2611,3231,0,2497,1301,1593,2565,0,2487,2605,1669,1433,3107,1.396,3.637,9.237,0.198,-0.052,-0.038,4.389,-16.051,3.347,1.329,1.118,-4.366,happy
7.45,3152,3526,3158,2416,3017,0,2171,362,1575,2633,0,2486,2583,1661,1567,3101,1.511,3.668,9.131,0.199,-0.033,-0.031,3.689,-15.548,2.476,0.118,-0.189,-4.138,happy
7.46,3397,3765,3404,2656,3225,0,2129,0,1592,2550,0,2356,2581,1669,1567,3104,1.482,3.654,9.151,0.180,-0.009,-0.028,4.487,-13.858,1.829,-0.485,-0.317,-3.536,happy
7.47,3421,3775,3420,2657,3172,0,1787,0,1592,2552,0,2501,2579,1670,1567,3103,1.446,3.757,9.194,0.191,0.009,-0.029,4.681,-12.780,1.544,-0.851,-0.298,-3.302,happy
7.48,3445,3790,3441,2659,3088,0,1278,0,1591,2549,0,2489,2581,1741,1567,3100,1.350,3.656,9.134,0.186,0.032,-0.024,6.218,-10.491,1.322,-1.525,-0.394,-3.042,happy
7.49,3455,3811,3457,2619,2967,0,881,0,1592,2589,0,2489,2579,1663,1571,3102,1.386,3.754,9.141,0.205,0.017,-0.044,8.358,-9.436,-0.991,-3.205,0.162,-3.326,happy
7.50,3434,3760,3409,2448,2677,0,457,0,1592,2549,0,2571,2583,1663,1567,3108,1.437,3.800,9.234,0.221,0.023,-0.078,6.476,-7.626,11.638,-2.422,1.177,-3.273,happy
7.51,3456,3797,3461,2352,2142,0,143,0,1595,2474,0,2487,2580,1668,1567,3104,1.743,3.302,9.131,0.353,0.038,-0.142,-19.613,-6.337,19.613,-1.753,1.330,1.499,happy
7.52,3395,3776,3359,2127,1805,0,0,0,0,0,0,0,716,11,2278,2959,1.532,3.651,8.954,0.464,0.114,-0.073,2.315,-4.204,10.333,-0.275,1.134,0.459,happy
7.53,3264,3719,3277,1966,1526,0,0,0,0,35,0,0,1006,4,2520,3161,1.686,3.845,8.894,0.519,0.160,-0.065,-3.768,-2.535,14.372,0.108,0.202,0.130,happy
7.54,2954,3459,3189,1690,1151,0,0,0,1,0,0,3,1833,0,2937,3478,2.660,3.383,7.858,0.582,0.237,-0.087,0.900,-3.007,9.249,0.065,0.120,0.087,happy
7.55,2814,3286,3071,1530,1094,0,0,0,27,5,0,0,2067,0,2855,3087,1.923,3.828,7.831,0.738,0.277,-0.057,2.950,-2.746,8.507,-0.121,0.066,0.138,happy
7.56,2623,3015,2939,1338,739,0,0,0,47,87,2,10,2335,8,3087,3256,0.481,4.393,9.761,0.632,0.183,-0.498,3.029,-3.311,8.006,-0.131,0.142,0.127,happy
7.57,2480,2817,2655,1234,291,0,0,0,51,349,0,1,2577,0,3133,3327,0.196,4.398,9.273,0.442,-0.398,-1.617,2.023,-3.091,9.179,-0.095,0.248,0.199,happy
7.58,2359,2544,2150,1043,181,0,0,0,110,607,2,1,2889,0,3445,3623,0.886,4.156,8.875,0.197,-1.062,-2.781,2.088,-2.962,9.122,-0.142,-0.039,0.169,happy
7.59,2222,1745,1091,205,0,0,0,0,148,740,2,0,2953,0,3539,3736,1.618,4.913,8.641,-0.013,-1.744,-3.972,1.595,-3.318,9.098,-0.084,-0.114,0.117,happy
7.60,1967,937,0,0,0,0,0,0,201,719,2,0,3128,0,3706,3828,1.092,6.172,8.701,-0.307,-2.171,-5.074,1.805,-3.163,9.043,-0.093,-0.021,0.098,happy
7.61,1597,418,0,0,0,0,0,0,221,857,0,0,3159,0,3732,3867,1.858,6.821,7.786,-0.516,-2.310,-5.588,1.798,-3.189,9.318,-0.059,0.070,0.101,happy
7.62,972,0,0,0,0,0,0,0,255,863,0,1,3165,1,3753,3866,0.187,6.515,8.143,-0.914,-2.232,-6.130,1.844,-3.153,9.105,-0.088,0.114,0.112,happy
7.63,401,0,0,0,0,0,0,0,249,857,0,0,3194,0,3763,3887,-4.350,7.250,8.274,-1.211,-2.453,-6.880,1.705,-3.239,9.323,-0.062,0.168,0.103,happy
7.64,0,0,0,0,76,0,0,0,341,922,0,0,3192,0,3788,3893,-7.245,13.499,9.562,-1.269,-2.806,-7.361,1.738,-3.266,9.189,-0.075,0.213,0.081,happy
7.65,70,0,0,0,196,0,0,0,233,1016,0,0,3209,0,3797,3893,-2.516,11.789,8.305,-2.024,-3.629,-7.061,1.537,-3.045,9.234,-0.101,0.232,0.085,happy
7.66,111,0,0,0,181,0,0,0,219,927,25,2,3187,0,3804,3930,1.867,9.127,2.696,-1.866,-3.422,-6.760,1.583,-3.232,9.443,-0.124,0.261,0.118,happy
7.67,89,0,0,0,199,0,0,0,253,951,0,0,3161,0,3819,3937,2.157,8.830,3.862,-1.429,-3.221,-6.215,1.597,-3.098,9.170,-0.126,0.266,0.158,happy
7.68,39,0,0,0,185,0,0,0,200,1071,0,0,3093,0,3833,3989,3.033,8.645,5.622,-1.244,-3.295,-5.628,1.398,-3.134,9.536,-0.130,0.270,0.175,happy
7.69,0,0,0,0,112,0,0,0,246,1065,0,91,2957,3,3821,3964,3.843,6.711,6.345,-1.009,-2.545,-4.683,1.846,-3.333,9.105,-0.163,0.270,0.201,happy
7.70,0,0,0,0,0,0,0,0,302,1134,20,343,2903,3,3800,3968,1.903,5.454,6.773,-0.701,-2.064,-3.569,0.843,-3.354,9.981,-0.168,0.202,0.132,happy
7.71,0,0,0,0,0,0,0,0,329,1184,1115,533,2905,48,3793,3995,0.342,5.085,7.930,-0.447,-1.725,-2.933,1.386,-3.335,9.515,-0.126,0.177,0.111,happy
7.72,0,0,0,0,76,0,0,0,379,1109,1382,767,2808,51,3751,4011,-1.118,3.891,9.076,-0.151,-1.098,-2.142,1.216,-3.347,9.584,-0.083,0.120,0.111,happy
7.73,0,0,0,0,39,0,0,0,392,1101,1420,983,2745,53,3736,4007,-2.619,3.005,9.634,-0.002,-0.704,-2.053,1.226,-3.182,9.445,-0.089,0.151,0.146,happy
7.74,0,0,0,0,0,0,0,0,344,1050,1420,1231,2526,51,3672,4027,0.716,2.301,9.263,-0.030,-0.256,-2.301,1.377,-3.539,9.340,-0.107,0.214,0.199,happy
7.75,0,0,0,0,0,0,0,0,547,1018,1901,1591,2319,51,3561,4040,-1.456,1.604,10.429,-0.092,-0.699,-2.731,1.199,-3.618,9.419,-0.008,0.176,0.060,happy
7.76,0,0,0,0,0,0,0,0,543,1003,1952,1629,2316,54,3518,4045,0.967,0.929,10.525,-0.265,-0.947,-3.029,1.116,-3.484,9.366,-0.015,0.143,0.024,happy
7.77,0,0,0,0,0,0,0,0,563,1143,2011,1743,2279,51,3419,4061,0.666,1.032,10.961,-0.315,-0.892,-3.016,1.207,-3.388,9.397,-0.032,0.105,-0.005,happy
7.78,0,0,0,0,0,0,0,0,743,1131,2075,2007,2277,51,3238,4067,0.196,1.575,10.633,-0.533,-1.055,-3.157,1.207,-3.486,9.431,-0.062,0.110,0.019,happy
7.79,0,0,0,0,0,0,0,0,752,1075,2093,2153,2309,51,3101,4067,0.919,2.602,10.080,-0.705,-1.160,-3.386,1.159,-3.512,9.431,-0.085,0.114,0.012,happy
7.80,0,0,0,0,0,0,0,0,1045,1051,2101,2204,2235,51,2917,4071,1.939,3.249,9.225,-0.772,-1.331,-3.542,1.113,-3.524,9.436,-0.104,0.113,0.000,happy
7.81,0,0,0,0,0,0,0,0,1214,997,2108,2459,2074,68,2831,4049,3.227,3.859,8.478,-0.732,-1.374,-3.420,1.025,-3.558,9.467,-0.080,0.124,0.010,happy
7.82,0,0,0,0,0,0,0,0,1242,1131,2111,2501,1929,46,2873,4075,4.444,4.235,7.499,-0.581,-1.163,-3.044,0.915,-3.728,9.656,-0.080,0.118,0.024,happy
7.83,0,0,0,0,0,0,0,0,1337,1047,2111,2473,1774,86,2863,4053,5.449,4.278,6.524,-0.287,-0.994,-2.483,0.984,-3.666,9.266,-0.048,0.131,0.002,happy
7.84,0,0,0,0,0,0,0,0,1229,1241,2108,2531,1611,9,2803,4072,6.318,4.654,4.288,0.612,-0.403,-1.623,1.013,-3.661,9.550,0.002,0.146,0.011,happy
7.85,0,0,0,0,0,0,0,0,1164,1149,2096,2483,1527,47,2798,4078,9.239,3.136,6.388,0.832,-0.382,-0.997,1.027,-3.627,9.426,-0.027,0.141,0.019,happy
7.86,0,279,0,0,317,0,0,0,951,1181,2080,2483,1341,47,2812,4086,4.690,6.524,6.871,-0.011,0.271,0.039,0.972,-3.661,9.522,-0.002,0.165,0.043,happy
7.87,0,711,0,0,884,0,0,640,936,1193,2034,2521,1033,51,2699,4091,-4.968,1.659,9.261,0.087,0.160,-0.020,0.895,-3.644,9.455,0.007,0.169,0.045,happy
7.88,207,1431,0,0,1014,0,130,1474,786,927,1870,2515,523,51,2533,4071,0.539,3.309,9.294,0.194,-0.087,0.058,0.838,-3.740,9.503,0.045,0.235,0.097,happy
7.89,511,1913,257,0,1255,0,554,1917,635,781,1778,2535,185,41,2317,4059,1.623,3.184,9.110,0.221,-0.008,-0.086,0.848,-3.639,9.479,0.032,0.251,0.099,happy
7.90,929,2251,1186,375,1360,0,976,2355,395,645,1471,2523,5,10,1753,4044,0.589,3.438,9.560,0.341,-0.148,0.015,1.037,-3.716,9.567,0.099,0.317,0.134,happy
7.91,1372,2544,1849,682,1684,0,1569,2643,249,313,0,2445,19,0,1311,3980,0.888,3.649,9.577,0.159,-0.173,0.046,0.761,-3.658,9.527,0.146,0.433,0.184,happy
7.92,1586,2768,2192,1001,2005,0,1936,2864,247,22,0,2341,0,0,1029,3897,1.068,3.517,9.318,0.114,-0.138,0.028,1.317,-4.015,9.931,0.243,0.533,0.180,happy
7.93,1753,2909,2416,1294,2250,0,2336,3017,25,22,0,1843,0,0,903,3795,1.178,3.524,9.246,0.092,-0.106,0.073,2.799,-7.319,11.181,0.901,1.205,0.396,happy
7.94,1813,3082,2606,1559,2413,0,2559,3157,0,0,0,283,0,0,249,3426,1.010,3.215,9.093,0.084,-0.122,0.083,3.036,-5.485,10.676,1.862,2.022,0.346,happy
7.95,1999,3166,2723,1678,2529,0,2727,3237,0,0,0,29,0,0,0,3047,1.037,3.388,9.191,0.080,-0.117,0.077,7.436,-7.822,11.688,2.255,2.313,0.169,happy
7.96,2149,3238,2822,1719,2691,0,2846,3302,0,0,0,0,0,0,0,1960,1.168,3.407,9.321,0.078,-0.088,0.031,15.071,-5.109,15.354,1.319,1.395,-2.525,happy
7.97,2251,3339,2881,1813,2841,26,2922,3349,0,0,0,0,0,0,0,1528,1.207,3.436,9.364,0.109,-0.082,0.016,9.649,-4.901,5.452,0.814,1.641,-4.366,happy
7.98,2317,3383,2946,1862,2928,118,2951,3321,0,0,0,0,0,0,2,1381,1.180,3.527,9.290,0.111,-0.047,0.025,9.711,-9.831,4.621,0.267,1.923,-4.366,happy
7.99,2349,3434,2790,1906,2988,3,2828,3293,0,0,0,0,0,0,0,1107,1.159,3.531,9.309,0.094,-0.054,0.031,4.503,-9.900,5.892,-0.673,0.971,-4.366,happy
8.00,2418,3440,3034,1936,3051,0,2972,3174,0,0,0,0,0,0,0,795,1.283,3.596,9.287,0.097,-0.033,0.017,0.943,-7.858,8.404,-1.035,1.060,-4.366,happy
8.01,2439,3504,3069,1953,3137,46,2963,3211,0,0,0,0,0,0,0,740,1.190,3.541,9.275,0.094,-0.042,0.005,-1.470,-5.598,10.041,-0.999,0.917,-4.366,happy
8.02,2384,3529,3092,1943,3184,0,2963,3162,0,0,0,0,0,0,0,443,1.176,3.486,9.333,0.097,-0.047,0.005,-1.906,-3.019,11.310,-0.793,0.372,-4.269,happy
8.03,2370,3520,3120,1899,3184,0,2973,3120,0,7,0,0,18,0,7,359,1.288,3.598,9.321,0.090,-0.044,-0.006,-0.129,-1.822,11.741,-0.213,0.219,-2.816,happy
8.04,2389,3555,3125,1843,3277,0,2960,3063,0,0,0,0,0,0,0,301,1.295,3.555,9.170,0.106,-0.072,-0.018,1.326,-1.721,11.437,0.073,0.165,-2.340,happy
8.05,2405,3579,3147,1740,3321,0,2969,2947,0,0,0,0,0,0,6,345,1.250,3.587,9.244,0.116,-0.088,-0.030,4.190,-2.131,9.979,0.488,-0.002,-2.045,happy
8.06,2391,3611,3150,1575,3371,0,2951,2812,0,0,0,0,0,4,0,285,1.341,3.594,9.258,0.116,-0.080,-0.044,5.571,-3.268,9.962,0.619,-0.301,-2.423,happy
8.07,2370,3602,3151,1407,3379,0,2929,2736,0,0,0,0,0,0,0,275,1.367,3.500,9.206,0.124,-0.087,-0.061,5.748,-3.670,9.579,0.674,-0.409,-2.738,happy
8.08,2374,3610,3159,1152,3418,0,2894,2671,0,0,0,0,0,0,0,165,1.314,3.541,9.254,0.152,-0.095,-0.076,4.266,-3.687,8.016,0.463,-0.381,-3.163,happy
8.09,2380,3632,3158,1013,3446,0,2832,2621,0,0,0,0,0,0,0,137,1.369,3.594,9.187,0.185,-0.106,-0.059,3.141,-4.779,9.424,0.191,-0.094,-3.255,happy
8.10,2413,3618,3163,832,3461,0,2721,2510,0,0,0,0,0,0,0,101,1.559,3.745,9.110,0.212,-0.106,-0.065,2.078,-5.823,11.696,0.206,-0.171,-3.229,happy
8.11,2459,3643,3152,804,3473,0,2609,2429,0,0,0,0,0,0,0,70,1.583,3.711,9.052,0.185,-0.091,-0.080,1.231,-6.886,12.163,0.458,-0.549,-3.082,happy
8.12,2501,3693,3157,887,3504,0,2555,2224,0,0,0,0,0,0,0,35,1.640,3.601,8.921,0.210,-0.081,-0.075,0.950,-9.206,12.615,0.534,-0.764,-2.947,happy
8.13,2551,3697,3200,1088,3505,0,2501,1975,0,0,0,0,0,0,0,0,1.542,3.766,9.112,0.241,-0.050,-0.067,0.204,-10.980,13.738,0.916,-0.809,-3.027,happy
8.14,2625,3733,3259,1209,3518,0,2418,1534,0,0,0,38,0,0,0,0,1.573,3.862,9.043,0.260,-0.082,-0.068,-3.630,-9.890,7.673,1.139,-0.776,-3.023,happy
8.15,2768,3786,3315,1330,3517,0,2305,0,0,0,138,0,0,0,1,0,1.547,3.948,9.000,0.281,-0.058,-0.086,-4.820,-11.866,4.341,0.424,-0.244,-2.480,happy
8.16,2890,3787,3374,1473,3472,0,2085,0,0,0,0,0,0,0,0,0,1.674,3.974,8.715,0.278,0.083,-0.125,-5.243,-13.132,4.956,0.188,-0.017,-2.150,happy
8.17,2947,3802,3394,1573,3422,0,1823,0,0,0,0,0,0,0,0,0,1.700,3.800,9.031,0.245,0.136,-0.181,-5.243,-13.132,4.956,0.188,-0.017,-2.150,happy
8.18,3024,3820,3430,1683,3322,0,1424,0,0,0,0,0,0,0,0,0,1.705,3.936,9.273,0.258,0.137,-0.224,-4.954,-11.291,2.078,-0.334,0.175,-1.724,happy
8.19,3093,3829,3463,1741,3146,0,983,0,0,0,0,0,0,0,0,0,1.281,4.027,9.263,0.307,0.095,-0.283,-3.361,-8.282,2.792,-0.769,0.330,-1.563,happy
8.20,3152,3835,3467,1773,2774,0,539,0,0,0,74,0,0,0,0,0,1.369,4.082,9.170,0.381,0.052,-0.262,-3.888,-9.134,-0.685,-1.871,1.514,-1.290,happy
8.21,3204,3829,3480,1744,2436,0,368,0,1530,2603,0,2555,2658,1863,1653,3147,1.013,4.427,9.428,0.542,0.029,-0.163,0.874,-5.684,15.763,-1.368,1.679,-1.283,happy
8.22,3283,3842,3504,1808,2275,0,0,0,0,0,0,0,0,0,0,403,1.343,4.149,8.863,0.701,0.054,-0.032,-2.358,5.073,5.200,-1.148,0.425,-1.092,happy
8.23,3331,3855,3508,1751,2240,0,0,0,0,0,0,0,38,0,0,875,1.389,4.209,8.880,0.795,0.058,0.028,-8.152,1.341,10.606,-2.003,0.267,-0.177,happy
8.24,3374,3859,3572,1735,2169,0,0,0,0,0,0,0,0,0,26,1553,1.372,4.334,8.966,0.875,0.095,0.087,-9.843,-4.008,14.902,-2.000,0.247,0.554,happy
8.25,3394,3850,3487,1730,2064,0,0,0,0,0,0,0,0,0,427,2070,1.267,4.413,8.911,1.034,0.112,0.159,-1.568,-5.478,13.096,-1.716,-0.112,0.762,happy
8.26,3428,3837,3489,1527,1955,0,0,0,0,0,0,0,0,0,1171,2918,1.312,4.075,8.861,1.405,0.109,0.227,6.354,-1.748,12.663,-1.464,-1.088,0.208,happy
8.27,3443,3793,3436,1311,1873,0,0,0,1605,2580,0,2515,2607,1705,1579,3125,1.310,3.632,9.268,1.934,0.076,0.295,1.053,-6.299,10.602,-0.734,0.482,0.322,happy
8.28,3440,3691,3119,829,1744,0,0,0,13,11,23,9,274,6,2019,2980,1.147,3.268,10.441,2.789,-0.274,0.291,2.124,-3.469,10.063,-0.354,0.965,0.483,happy
8.29,3388,2918,2621,274,1458,0,0,0,33,0,0,0,1001,11,2766,3755,0.479,4.827,12.179,4.195,-1.368,0.088,0.788,-4.523,10.412,-0.298,0.381,0.264,happy
8.30,3027,2469,666,0,1092,0,0,0,99,0,0,0,1377,0,2879,3831,0.697,6.220,12.289,5.235,-2.136,-0.309,1.259,-3.342,9.828,-0.254,0.266,0.188,happy
8.31,2367,1450,0,0,250,0,0,0,40,0,2,0,1960,0,3103,3812,6.438,6.979,11.068,6.254,-2.653,-1.274,1.068,-3.701,9.910,-0.017,0.083,0.110,happy
8.32,1713,714,0,0,0,0,0,0,42,264,17,7,2247,0,3299,3993,2.619,9.677,11.305,7.090,-2.819,-1.312,1.506,-3.438,9.598,0.073,0.121,0.051,happy
8.33,1007,0,0,0,0,0,0,0,55,364,0,0,2411,0,3435,4039,2.006,14.942,11.856,6.238,-3.180,-1.231,1.688,-3.618,9.711,0.129,0.063,0.043,happy
8.34,305,0,0,0,0,0,0,0,85,412,0,0,2520,0,3486,4019,2.349,14.415,8.447,4.835,-4.173,-1.037,1.788,-3.292,9.299,0.110,0.066,0.002,happy
8.35,0,0,0,0,0,0,0,0,78,483,12,60,2671,1,3591,4043,5.966,12.402,10.070,2.575,-3.017,-1.933,1.535,-3.237,9.491,0.063,0.029,-0.025,happy
8.36,0,0,0,0,0,0,0,0,24,595,0,105,2779,1,3641,4078,7.470,5.358,15.802,-0.072,-0.878,-3.294,1.501,-3.074,9.124,0.044,0.032,-0.017,happy
8.37,0,0,0,0,0,0,0,0,111,603,10,135,2869,3,3692,4091,8.205,0.227,19.613,-2.864,-1.806,-3.009,1.865,-3.206,9.596,0.054,0.086,0.014,happy
8.38,0,0,0,0,0,0,0,0,107,614,2,157,2931,2,3711,4088,3.589,3.675,2.406,-2.543,-0.071,-2.440,1.585,-3.177,9.412,0.019,0.089,0.040,happy
8.39,0,0,0,0,0,0,0,0,124,603,1136,216,2985,29,3736,4091,-1.578,-5.363,1.788,-1.498,-0.924,-2.917,1.626,-3.357,9.433,0.017,0.085,0.027,happy
8.40,0,0,0,0,0,0,0,0,112,647,1182,220,3048,28,3699,4071,4.911,2.703,11.681,-3.094,-1.413,-2.027,1.360,-3.259,9.452,0.028,0.054,0.017,happy
8.41,0,0,0,0,0,0,0,0,103,745,1356,359,3064,27,3730,4056,4.599,1.798,10.791,-3.898,-0.771,-1.543,1.398,-3.105,9.426,0.018,0.011,0.007,happy
