timestamp,L1,L2,L3,L4,L5,L6,L7,L8,R1,R2,R3,R4,R5,R6,R7,R8,acc_x_left,acc_y_left,acc_z_left,gyro_x_left,gyro_y_left,gyro_z_left,acc_x_right,acc_y_right,acc_z_right,gyro_x_right,gyro_y_right,gyro_z_right,mood
0,0,0,0,0,0,0,0,0,7,2199,2700,2823,1597,7,3453,3353,1.887,2.586,7.329,-2.506,-0.962,-0.231,0.757,-2.559,9.902,-0.071,0.06,0.075,happy
0.01,0,0,0,0,0,0,0,0,5,2479,2715,2895,1767,0,3411,3181,1.274,2.763,6.764,-2.787,-0.935,0.018,0.824,-2.636,9.907,-0.116,0.056,0.079,happy
0.02,0,0,0,0,0,0,0,0,43,2577,2812,2939,1853,13,3345,2891,0.749,3.381,6.385,-2.926,-0.952,0.22,0.594,-2.564,9.883,-0.108,0.051,0.059,happy
0.03,0,0,0,0,0,0,0,0,11,2638,2853,3080,1927,7,3247,2523,0.546,4.223,6.515,-2.981,-1.004,0.4,0.85,-2.763,9.718,-0.094,0.049,0.042,happy
0.04,0,0,0,0,0,0,0,0,29,2676,2817,3096,2060,10,3087,2393,0.412,5.171,7.061,-3.029,-1.095,0.656,0.797,-2.871,9.91,-0.089,0.047,0.038,happy
0.05,0,0,0,0,0,0,0,0,109,2719,2894,3160,2164,29,3080,2275,0.69,5.926,7.599,-3.08,-1.064,0.975,0.745,-2.758,9.943,-0.08,0.02,0.03,happy
0.06,0,0,0,0,0,0,0,0,191,2793,2930,3232,2319,59,2871,2117,-0.189,7.333,8.851,-3.206,-0.885,1.435,0.682,-2.646,9.778,-0.055,0.047,0.031,happy
0.07,0,0,0,0,0,0,0,0,276,2853,2961,3255,2376,51,2809,2121,-0.857,8.121,9.495,-3.334,-0.87,1.64,0.816,-2.813,9.754,-0.048,0.059,0.041,happy
0.08,0,0,0,0,0,0,0,0,493,3004,2981,3372,2486,51,2739,1877,-1.085,8.09,9.155,-3.39,-0.74,1.622,0.666,-2.636,9.706,-0.061,0.062,0.042,happy
0.09,0,0,0,0,0,0,0,0,679,3090,3017,3401,2585,44,2634,1605,-0.67,7.994,8.926,-3.239,-0.79,1.457,0.84,-2.794,9.548,-0.066,0.05,0.032,happy
0.1,0,0,0,0,0,0,0,0,660,3125,3014,3461,2614,53,2596,1437,0.5,8.255,9.471,-3.009,-0.82,1.395,0.594,-2.701,9.936,-0.089,0.041,0.021,happy
0.11,0,0,0,0,0,0,0,0,1095,3183,3037,3502,2639,31,2455,974,0.378,9.175,11.451,-2.73,-0.994,1.39,0.699,-2.782,9.73,-0.067,0.047,0.023,happy
0.12,0,0,0,0,0,0,0,0,1113,3206,3027,3540,2582,51,2355,653,0.134,9.153,11.449,-2.825,-0.97,1.387,0.785,-2.737,9.708,-0.09,0.044,0.01,happy
0.13,0,0,0,0,0,0,0,0,1211,3291,3050,3551,2495,53,2271,398,-2.239,7.769,10.247,-2.499,-0.842,1.11,0.8,-2.849,9.653,-0.113,0.035,0.004,happy
0.14,0,0,0,0,0,0,0,0,1447,3275,3078,3615,2296,35,2026,153,-4.441,8.959,11.059,-1.814,-1.268,0.678,0.778,-2.921,9.402,-0.105,0.042,0.005,happy
0.15,0,0,0,0,0,0,0,0,1583,3338,3089,3686,2237,10,1819,19,-0.845,14.856,7.642,-0.968,-1.767,0.76,0.766,-2.837,9.68,-0.076,0.034,0.015,happy
0.16,0,0,0,0,0,0,0,0,1813,3353,3089,3709,2283,29,1503,5,-3.366,13.317,7.039,-1.257,-0.927,0.372,0.74,-2.993,9.735,-0.058,0.028,0.019,happy
0.17,0,0,0,0,0,0,0,0,2063,3385,3104,3757,2145,6,982,1,-3.905,15.251,2.339,-0.814,-1.151,0.298,0.608,-2.895,9.778,-0.025,-0.037,0.058,happy
0.18,0,0,0,0,0,0,0,0,2229,3416,3002,3788,2072,5,583,2,-4.161,15.28,-1.006,-0.048,-1,0.4,0.735,-2.794,9.646,-0.073,-0.021,0.055,happy
0.19,0,0,0,0,0,0,0,0,2423,3465,3130,3849,1775,4,389,0,-2.849,16.388,-6.419,1.352,1.013,0.484,0.002,-1.875,9.974,-0.399,0.077,-0.081,happy
0.2,0,0,0,0,0,0,0,0,2456,3479,3178,3975,1597,5,413,0,-0.213,7.717,0.862,1.489,1.929,0.576,0.982,-2.787,9.409,-0.36,0.08,-0.093,happy
0.21,0,0,0,0,0,0,208,205,2520,3480,3145,3893,1145,3,357,0,4.482,6.067,19.613,0.792,2.099,0.7,0.833,-3.134,9.538,-0.467,0.104,-0.138,happy
0.22,0,0,0,0,0,0,816,2062,2649,3499,3140,3903,583,4,331,0,-13.455,-6.287,1.829,2.576,-0.074,0.026,0.771,-2.938,9.431,-0.482,0.022,-0.16,happy
0.23,0,0,0,0,0,0,1021,2585,2975,3558,3145,3833,153,2,197,0,-0.982,9.175,14.365,2.382,0.328,-0.874,0.955,-2.88,9.675,-0.617,-0.113,-0.197,happy
0.24,0,0,0,0,0,0,1645,2816,2996,3510,3145,3888,125,0,277,0,5.239,0.69,2.301,2.09,1.05,-0.582,1.137,-2.945,9.699,-0.862,-0.42,-0.216,happy
0.25,460,0,0,0,969,0,2350,2822,3018,3343,3227,3839,175,23,229,0,-5.016,8.25,11.37,-0.496,0.845,-0.172,0.795,-3.203,9.874,-0.997,-0.465,-0.266,happy
0.26,945,577,1313,131,1343,0,2778,3001,2925,3164,3150,3699,90,1,319,0,-0.642,1.494,8.578,0.525,0.268,-0.223,1.563,-2.682,10.733,-1.577,-0.168,-0.234,happy
0.27,1186,963,2385,660,1216,0,2960,3122,2803,2571,3140,3503,173,0,0,0,0.256,3.694,8.988,0.229,0.095,-0.145,1.992,-2.588,10.743,-2.763,0.036,-0.237,happy
0.28,1522,1328,2832,1520,1771,0,3162,3222,2591,1951,3140,3319,287,0,0,0,0.275,3.721,9.294,0.2,0.043,-0.087,0.414,-2.279,10.293,-3.39,-0.134,-0.134,happy
0.29,1842,1654,3095,2095,2065,0,3274,3275,2108,653,2408,1865,303,0,0,0,0.316,3.965,9.491,0.085,0.044,-0.023,-0.247,-2.622,13.238,-4.634,-0.713,0.443,happy
0.3,2041,1845,3251,2278,2169,78,3339,3297,1573,0,2,30,0,0,0,0,0.395,3.833,9.414,0.072,0.051,0.009,-0.362,-4.966,10.855,-6.048,-1.528,1.051,happy
0.31,2142,1965,3317,2428,2250,309,3376,3323,952,0,2,0,0,0,0,0,0.148,3.56,9.23,0.077,-0.001,0.011,0.948,-9.242,10.704,-5.955,-1.549,1.253,happy
0.32,2219,2042,3360,2523,2390,481,3431,3359,56,0,0,0,0,2,0,0,0.223,3.438,9.206,0.032,0.066,-0.017,2.234,-9.929,9.665,-4.785,-1.461,1.185,happy
0.33,2224,2096,3403,2619,2416,624,3467,3375,44,0,0,0,0,0,0,0,0.139,3.85,9.287,0.037,0.079,-0.018,2.863,-4.159,16.211,-1.283,-0.288,2.531,happy
0.34,2302,2176,3440,2701,2496,656,3487,3376,0,0,0,0,0,0,0,0,0.005,3.558,9.064,0.047,0.044,-0.012,1.46,-13.453,14.614,-0.033,0.018,2.662,happy
0.35,2320,2250,3487,2792,2541,656,3481,3343,0,1,0,0,0,0,0,0,0.16,3.565,9.23,0.093,0.042,-0.021,2.897,-1.219,8.83,1.921,-0.118,2.113,happy
0.36,2394,2369,3539,2880,2638,604,3407,3216,0,0,0,0,0,0,0,0,0.206,3.587,9.316,0.109,0.08,-0.033,4.652,-1.712,6.965,2.613,0.03,1.31,happy
0.37,2531,2481,3598,2981,2688,260,3291,3013,0,0,0,0,0,0,0,0,0.072,3.596,9.206,0.135,0.064,-0.025,5.116,-1.621,5.514,2.804,0.151,0.774,happy
0.38,2704,2599,3664,3066,2723,178,3059,2619,0,0,0,0,0,0,0,0,0.158,3.785,9.369,0.14,0.085,-0.005,4.125,-1.923,4.925,2.871,0.287,-0.294,happy
0.39,2890,2660,3719,3184,2623,0,2681,1823,0,0,2,0,0,0,0,0,0.194,3.943,9.426,0.128,0.142,0.003,2.533,-3.859,7.324,2.969,-0.186,-1.045,happy
0.4,3039,2709,3750,3248,2503,0,2256,1072,0,0,0,0,0,0,0,0,0.189,3.922,9.285,0.148,0.14,0,2.447,-5.083,7.544,3.153,-0.253,-1.32,happy
0.41,3175,2741,3783,3340,2337,0,1631,0,0,0,0,0,0,0,0,0,0.208,3.843,9.225,0.131,0.144,0.024,1.453,-5.689,7.482,3.266,-0.183,-1.526,happy
0.42,3248,2747,3803,3375,2117,0,1383,0,13,0,0,0,0,0,0,0,-0.029,3.745,9.141,0.197,0.132,0.038,-0.007,-6.385,8.033,3.326,-0.159,-1.64,happy
0.43,3311,2780,3825,3414,1831,0,987,0,0,0,0,0,0,0,43,0,-0.022,3.9,9.44,0.193,0.14,0.038,-0.977,-7.118,8.531,3.384,-0.197,-1.656,happy
0.44,3365,2837,3840,3442,1632,0,795,0,0,0,0,0,0,0,0,0,0.074,3.867,9.273,0.161,0.126,0.025,-1.511,-7.76,8.677,3.442,-0.148,-1.512,happy
0.45,3422,2866,3849,3483,1651,0,535,0,0,0,0,0,0,0,0,0,0.089,4.149,9.232,0.178,0.103,0.035,-1.314,-8.334,8.892,3.451,-0.05,-1.247,happy
0.46,3486,2891,3859,3511,1584,0,322,0,0,0,0,0,9,2,0,0,0.043,3.812,9.201,0.164,0.109,0.025,-0.127,-9.311,9.79,3.442,0.053,-0.94,happy
0.47,3535,2902,3869,3537,1367,0,272,0,0,0,0,0,0,0,0,0,0.022,4.034,9.208,0.159,0.102,0.025,1.073,-10.733,10.333,3.354,0.056,-0.727,happy
0.48,3566,2898,3879,3566,1319,0,176,0,0,0,0,0,0,0,0,0,-0.029,4.082,9.285,0.174,0.106,0.028,1.609,-12.483,9.024,3.13,-0.083,-0.649,happy
0.49,3601,2895,3894,3569,1449,0,58,0,0,0,0,0,0,0,0,0,-0.014,4.015,9.249,0.178,0.1,0.023,1.99,-13.908,7.597,2.72,-0.295,-0.725,happy
0.5,3633,2902,3891,3583,1488,0,0,0,0,0,0,0,0,0,0,0,-0.096,4.123,9.139,0.169,0.089,0.016,1.992,-14.574,7.144,2.246,-0.462,-0.955,happy
0.51,3654,2918,3899,3610,1424,0,0,0,37,0,0,0,0,0,27,0,-0.067,4.18,9.086,0.135,0.086,0.015,0.989,-14.286,7.513,1.808,-0.54,-1.168,happy
0.52,3685,2938,3904,3626,1328,0,0,0,0,0,0,0,0,0,0,0,-0.108,4.077,9.136,0.104,0.068,0.011,-0.263,-13.345,6.852,1.419,-0.52,-1.238,happy
0.53,3702,2924,3914,3637,1386,0,0,0,1,3,0,0,1,0,0,0,-0.026,4.061,9.17,0.102,0.056,0.013,-1.355,-12.617,6.357,1.038,-0.405,-1.121,happy
0.54,3728,2945,3914,3649,1366,0,0,0,0,0,28,0,0,0,0,0,0.014,3.943,9.175,0.108,0.051,0.015,-2.294,-12.062,7.305,0.777,-0.229,-0.854,happy
0.55,3749,2915,3921,3663,1301,0,0,0,0,0,0,0,0,0,13,0,-0.093,3.934,9.148,0.133,0.051,0.032,-2.744,-9.95,7.025,0.631,-0.096,-0.531,happy
0.56,3761,2899,3921,3659,1262,0,0,0,0,0,0,0,0,0,0,0,-0.041,4.073,9.153,0.127,0.055,0.025,-2.528,-7.989,5.37,0.319,-0.049,-0.219,happy
0.57,3767,2917,3920,3661,1041,0,0,0,0,0,0,0,0,0,0,0,0.022,4.094,9.234,0.131,0.051,0.027,-1.642,-6.732,3.333,-0.134,-0.004,0.008,happy
0.58,3769,2909,3931,3671,1041,0,0,0,0,0,17,0,0,0,0,0,0.077,4.02,9.246,0.128,0.062,0.014,19.613,-2.394,13.46,-1.819,0.247,0.298,happy
0.59,3777,2897,3920,3655,1203,0,0,0,0,0,0,0,0,0,0,0,0.165,4.128,9.069,0.134,0.055,0.041,-2.207,-16.834,13.223,-1.201,3.204,0.992,happy
0.6,3777,2905,3920,3654,1193,0,0,0,0,0,0,0,0,0,0,0,0.165,4.14,9.27,0.128,0.061,0.072,-0.498,3.045,0.151,1.163,0.529,0.075,happy
0.61,3773,2864,3910,3645,944,0,0,0,0,0,7,8,0,0,211,0,0.098,4.269,9.179,0.128,0.046,0.099,5.296,-3.443,5.418,-0.528,0.929,0.89,happy
0.62,3734,2786,3889,3602,645,0,0,0,0,0,0,477,117,0,583,0,-0.17,4.561,9.148,0.051,-0.049,0.088,-0.287,-6.62,13.46,-0.972,-0.242,0.595,happy
0.63,3659,2627,3831,3504,263,0,0,0,0,1225,1993,1629,133,0,1513,0,0.565,3.785,9.553,0.059,-0.043,0.075,-0.443,-2.052,10.494,-0.013,0.105,0.222,happy
0.64,3583,2457,3775,3408,0,0,0,0,8,1512,2551,2382,95,3,2005,1555,0.311,3.864,9.543,0.274,-0.039,0.116,0.347,-2.832,9.881,-0.047,0.057,0.122,happy
0.65,3427,2059,3650,3191,0,0,0,0,63,1683,2556,2555,345,21,2191,2011,0.201,4.211,8.909,0.444,-0.11,0.141,0.797,-2.995,9.572,0.043,0.054,0.059,happy
0.66,3169,1375,3423,2738,0,0,0,0,171,2008,2659,2729,700,39,2615,2461,0.244,4.022,9.395,0.529,-0.058,0.085,0.73,-2.88,9.847,0.035,0.059,0.051,happy
0.67,2637,560,2955,2059,0,0,0,0,247,2235,2761,2891,1213,44,2794,2726,0.081,4.29,9.584,0.585,0.158,-0.123,0.673,-2.952,9.905,0.067,0.06,0.028,happy
0.68,1893,0,1664,418,0,0,0,0,213,2331,2751,2954,1439,45,2870,2866,0.237,1.796,10.147,0.573,0.107,-0.523,0.565,-2.552,9.687,0.068,0.025,0.008,happy
0.69,944,0,0,0,0,0,0,0,261,2348,2723,3064,1775,51,2983,3025,1.681,2.837,10.999,0.604,0.11,-0.79,0.637,-2.787,9.804,0.064,0.024,0,happy
0.7,0,0,0,0,0,0,0,0,267,2399,2766,3135,1885,71,3097,3127,-0.184,-0.486,12.936,-0.107,0.237,-1.121,0.625,-2.715,9.67,0.039,0.026,0.002,happy
0.71,0,0,0,0,0,0,0,0,278,2453,2771,3163,1949,52,3135,3157,2.243,-0.338,10.221,-1.041,-0.176,-1.138,0.632,-2.71,9.706,0.03,0.019,0.014,happy
0.72,0,0,0,0,0,0,0,0,277,2501,2710,3195,2005,51,3161,3194,2.911,-0.163,9.658,-1.129,-0.441,-1.032,0.697,-2.765,9.692,0.014,0.018,0.013,happy
0.73,0,0,0,0,0,0,0,0,242,2504,2756,3229,2024,51,3199,3207,4.697,0.663,6.96,-1.132,-0.487,-0.547,0.656,-2.691,9.764,0.019,0.012,0.012,happy
0.74,0,0,0,0,0,0,0,0,246,2501,2725,3253,2067,47,3217,3192,3.974,2.339,8.157,-0.771,-0.569,0.124,0.63,-2.655,9.711,0.021,0.021,0.012,happy
0.75,0,0,0,0,0,0,0,0,263,2477,2761,3260,1993,71,3213,3195,3.476,4.238,11.102,-0.731,-0.746,0.574,0.615,-2.708,9.754,0.025,0.026,0.013,happy
0.76,0,0,0,0,0,0,0,0,221,2451,2712,3291,1958,46,3244,3213,1.712,4.707,10.336,-1.112,-0.59,1.152,0.666,-2.622,9.687,0.011,0.03,0.017,happy
0.77,0,0,0,0,0,0,0,0,239,2391,2756,3279,1925,47,3243,3231,-5.883,3.879,8.176,-0.85,-0.625,0.897,0.644,-2.691,9.728,-0.008,0.029,0.02,happy
0.78,0,0,0,0,0,0,0,0,251,2375,2567,3283,1901,51,3241,3241,-4.266,5.78,8.205,-0.811,-0.271,-0.011,0.548,-2.71,9.79,-0.008,0.024,0.02,happy
0.79,0,0,0,0,0,0,0,0,269,2324,2756,3276,1831,25,3237,3228,-0.17,5.76,-1.846,0.085,0.385,-0.499,0.658,-2.708,9.699,-0.008,0.027,0.019,happy
0.8,0,0,0,0,0,0,0,0,267,2258,2741,3255,1739,53,3223,3221,-1.793,10.123,5.325,1.125,0.935,-0.204,0.587,-2.693,9.692,-0.01,0.025,0.017,happy
0.81,0,0,0,0,0,0,0,0,277,2248,2738,3252,1715,52,3192,3215,0.28,6.634,5.473,1.037,1.448,0.22,0.599,-2.77,9.735,0.001,0.023,0.013,happy
0.82,0,0,0,0,0,0,0,0,285,2265,2741,3264,1687,59,3227,3225,-4.468,6.888,8.035,-1.222,1.046,0.07,0.622,-2.71,9.754,-0.002,0.026,0.015,happy
0.83,0,0,0,0,0,0,0,205,287,2264,2741,3271,1677,52,3221,3218,1.853,1.48,8.2,-0.374,-0.044,-0.005,0.57,-2.686,9.828,-0.003,0.018,0.009,happy
0.84,157,0,0,0,0,0,336,784,297,2216,2733,3255,1626,45,3197,3189,0.661,4.434,9.682,0.115,-0.072,-0.053,0.673,-2.749,9.771,0.013,0.023,0.015,happy
0.85,427,0,250,7,0,0,694,1104,243,2248,2715,3273,1575,51,3157,3158,0.235,3.211,9.385,0.079,0,-0.078,0.694,-2.801,9.756,0.018,0.019,0.012,happy
0.86,656,0,611,240,185,0,1005,1339,107,1979,2692,3211,1261,29,3119,3143,0.218,3.9,9.644,0.169,-0.009,-0.098,0.74,-2.729,9.708,0.028,0.018,-0.002,happy
0.87,951,90,1115,298,418,0,1234,1646,13,1580,2648,3103,601,7,3015,3128,0.002,3.675,9.354,0.095,0.049,-0.083,0.472,-2.77,9.776,0.048,0.024,0.003,happy
0.88,1085,115,1411,592,620,0,1454,2032,5,1489,2597,3003,484,5,2967,3140,-0.101,3.505,9.333,0.099,0.034,-0.074,0.555,-2.974,9.823,0.083,0.028,-0.015,happy
0.89,1237,285,1723,848,816,0,1657,2256,5,1387,2577,2679,103,5,2995,3173,-0.057,3.644,9.404,0.088,0.03,-0.051,0.673,-2.684,9.723,0.117,0.036,-0.03,happy
0.9,1321,344,1915,880,977,0,1862,2438,2,843,1850,2059,84,3,2963,3229,-0.067,4.132,9.661,-0.005,-0.037,0.011,0.713,-2.677,9.799,0.072,0.026,-0.031,happy
0.91,1338,384,1674,592,1207,0,2118,2681,0,489,1543,1939,103,5,2910,3295,-0.045,3.524,9.359,-0.063,-0.05,0.029,0.591,-2.643,9.802,0.048,0.012,-0.038,happy
0.92,1335,387,1320,357,1227,0,2250,2829,1,92,1405,1130,33,2,2837,3295,0.026,3.558,9.531,-0.008,-0.046,0.023,0.608,-2.614,9.802,0.036,-0.034,-0.079,happy
0.93,1200,123,690,187,1264,0,2364,2935,0,1,708,520,30,0,2805,3449,0.019,3.646,9.565,-0.082,-0.074,0.056,0.608,-2.567,9.756,0.063,-0.041,-0.071,happy
0.94,957,27,202,0,1279,0,2450,3007,0,0,775,274,55,0,2799,3355,0.168,3.062,9.179,-0.06,-0.051,0.046,0.709,-2.504,9.747,0.055,-0.015,-0.049,happy
0.95,778,0,96,0,1259,0,2448,3017,0,0,685,167,119,0,2815,3382,0.321,3.199,9.076,0.081,-0.011,0.008,0.67,-2.514,9.608,0.056,-0.011,-0.037,happy
0.96,759,0,144,0,999,0,2320,2902,0,0,447,47,70,0,2921,3435,0.201,3.12,9.5,0.148,0.015,0.008,0.582,-2.591,9.823,0.084,0.02,-0.005,happy
0.97,692,0,218,0,848,0,2109,2659,0,18,880,73,103,0,2950,3470,0.069,3.256,9.766,0.207,-0.034,0.016,0.69,-2.6,9.692,0.11,0.048,0.006,happy
0.98,593,38,278,0,336,0,991,1174,0,0,839,44,119,0,3025,3499,0.242,2.969,9.73,0.399,-0.094,0.015,0.742,-2.622,9.74,0.125,0.05,0.002,happy
0.99,479,57,403,0,0,0,0,0,0,0,918,55,127,0,3177,3579,-2.543,4.762,9.002,0.612,-0.217,-0.375,0.565,-2.279,9.697,0.092,0.085,0.063,happy
1,413,0,320,0,0,0,0,0,0,0,852,109,139,0,3230,3643,2.631,2.049,9.495,1.418,-0.163,-0.107,0.709,-2.473,9.811,0.068,0.094,0.085,happy
1.01,395,0,134,0,0,0,0,0,0,2,1008,153,159,0,3293,3688,0.644,1.846,11.803,1.958,-0.367,-0.221,0.737,-2.368,9.797,0.054,0.094,0.086,happy
1.02,384,0,0,0,0,0,0,0,0,1,1783,291,297,0,3259,3730,-0.244,0.014,13.302,2.053,-0.627,-0.48,0.632,-2.31,9.716,0.011,0.105,0.094,happy
1.03,302,0,0,0,0,0,0,0,0,0,1893,442,413,0,3397,3743,2.425,-1.726,15.706,1.818,-0.662,-0.948,0.575,-2.516,9.845,-0.001,0.101,0.093,happy
1.04,0,0,0,0,0,0,0,0,6,19,1896,599,551,2,3433,3755,4.997,-4.685,15.371,1.402,-0.208,-1.24,0.534,-2.356,9.697,-0.007,0.092,0.084,happy
1.05,0,0,0,0,0,0,0,0,0,1,1937,851,728,3,3464,3763,7.089,-4.156,14.633,0.844,0.224,-1.228,0.579,-2.248,9.804,-0.031,0.089,0.09,happy
1.06,0,0,0,0,0,0,0,0,11,371,2111,1182,869,1,3479,3764,6.251,-4.934,16.465,-0.074,0.129,-0.727,0.596,-2.54,9.847,-0.039,0.097,0.095,happy
1.07,0,0,0,0,0,0,0,0,3,554,2157,1398,984,37,3477,3707,5.686,-5.988,13.259,-0.677,-0.067,-0.325,0.654,-2.449,9.706,-0.06,0.098,0.085,happy
1.08,0,0,0,0,0,0,0,0,3,631,2203,1655,1067,7,3477,3669,4.238,-5.816,12.105,-0.926,-0.25,-0.01,0.649,-2.5,9.862,-0.083,0.102,0.09,happy
1.09,0,0,0,0,0,0,0,0,3,895,2188,1848,1123,7,3449,3605,3.1,-4.36,12.258,-1.176,-0.467,0.26,0.56,-2.502,9.867,-0.1,0.093,0.09,happy
1.1,0,0,0,0,0,0,0,0,3,1101,2244,1989,1227,1,3415,3547,2.2,-3.012,12.467,-1.438,-0.53,0.47,0.572,-2.591,9.804,-0.099,0.089,0.083,happy
1.11,0,0,0,0,0,0,0,0,21,1261,2341,2229,1291,12,3364,3487,1.154,-1.578,12.172,-1.648,-0.43,0.583,0.52,-2.686,9.948,-0.098,0.078,0.072,happy
1.12,0,0,0,0,0,0,0,0,17,1327,2454,2583,1385,9,3365,3271,-1.003,0.867,12.548,-1.88,-0.322,0.509,0.512,-2.658,9.948,-0.123,0.059,0.06,happy
1.13,0,0,0,0,0,0,0,0,43,1397,2664,2715,1553,16,3293,3129,-1.616,2.607,10.35,-2.125,-0.049,0.11,0.388,-2.397,9.888,-0.117,0.045,0.067,happy
1.14,0,0,0,0,0,0,0,0,145,1587,2751,2916,1767,35,3175,2635,-1.439,2.6,7.784,-1.732,0.139,-0.364,0.584,-2.684,9.606,-0.057,0.016,0.034,happy
1.15,0,0,0,0,0,0,0,0,587,1647,2771,3097,1975,51,2955,2574,-0.467,6.28,11.586,-1.495,-0.378,-0.547,0.646,-2.851,9.881,-0.084,0.002,0.027,happy
1.16,0,0,0,0,0,0,0,0,723,1771,2797,3173,2083,55,2796,2381,1.973,7.233,9.335,-1.467,-0.485,-0.345,0.352,-2.646,9.823,-0.09,-0.014,0.026,happy
1.17,0,0,0,0,0,0,0,0,1081,2199,2838,3320,2249,101,2515,2057,3.065,9.491,9.658,-1.285,-0.468,0.099,0.479,-2.715,9.917,-0.091,-0.015,0.015,happy
1.18,0,0,0,0,0,0,0,0,1437,2351,2940,3477,2379,52,2413,1117,1.391,9.273,6.986,-1.342,-0.25,0.707,0.457,-2.775,9.929,-0.078,-0.034,0.018,happy
1.19,0,0,0,0,0,0,0,0,1599,2386,2997,3544,2393,55,2283,815,-0.754,10.64,2.691,-0.635,-0.002,0.956,0.493,-2.832,9.723,-0.095,0,0.013,happy
1.2,0,0,0,0,0,0,0,0,1947,2524,3022,3607,2237,33,1852,93,-2.191,11.923,2.495,0.146,0.044,0.689,0.553,-2.909,9.567,-0.072,-0.026,0.011,happy
1.21,0,0,0,0,0,0,0,0,2135,2731,3078,3912,1945,13,1085,45,-0.158,14.82,-1.415,1.123,0.7,0.58,0.474,-2.816,9.68,-0.092,0.026,0.008,happy
1.22,0,0,0,0,0,0,0,1178,2380,2765,3089,3811,1913,23,469,59,0.886,3.412,8.08,1.346,1.885,0.504,0.73,-2.334,9.742,-0.2,0.035,-0.034,happy
1.23,0,0,0,0,0,0,631,2714,2622,2843,3104,3912,969,4,364,29,-12.196,-4.63,8.114,2.487,-0.086,0.057,0.261,-1.844,9.651,-0.817,0.197,-0.183,happy
1.24,0,0,0,0,0,0,928,3104,2869,2860,3091,4039,125,5,147,1,3.57,10.427,14.619,2.312,0.178,-0.331,1.425,-3.565,9.823,-0.895,-0.115,-0.19,happy
1.25,0,0,0,0,0,0,1534,3262,2908,2836,3104,3934,135,3,21,22,-1.094,2.368,9.179,1.582,0.379,-0.101,1.657,-2.691,9.706,-1.101,-0.428,-0.325,happy
1.26,0,0,0,0,124,0,2167,3244,3033,2584,3099,3871,25,0,0,0,8.368,18.706,15.945,0.814,-0.016,0.024,1.269,-2.859,9.261,-1.582,-0.628,-0.479,happy
1.27,490,0,125,0,880,0,2640,3331,3167,2168,3104,3771,0,0,0,0,-2.959,1.494,7.602,0.41,0.174,-0.255,2.294,-3.503,10.046,-2.417,0.049,-0.604,happy
1.28,1053,437,1731,867,1221,0,2935,3364,2934,1981,3099,3735,0,0,0,0,-0.421,3.953,9.893,0.451,-0.041,-0.185,1.942,-3.716,9.385,-2.948,0.514,-0.75,happy
1.29,1447,1322,2686,1790,1535,0,3118,3399,2685,1303,2917,3452,0,0,0,0,0.333,3.907,9.819,0.18,-0.015,-0.047,1.231,-2.528,11.284,-3.846,1.44,-0.381,happy
1.3,1867,1734,3024,2222,1846,0,3216,3385,2007,472,1837,2221,0,0,0,0,0.086,3.546,9.395,0.179,-0.001,0.014,0.972,-7.326,13.805,-5.658,0.974,1.091,happy
1.31,2143,2068,3248,2522,2080,0,3266,3333,1519,86,2,1387,0,0,0,2,0.101,3.56,9.361,0.185,-0.016,0.022,-0.16,-8.344,12.043,-6.069,0.033,2.177,happy
1.32,2369,2214,3401,2761,2168,0,3282,3280,303,0,0,0,0,0,0,0,0.304,3.73,9.246,0.165,0.044,-0.008,1.547,-15.593,14.166,-6.037,-0.691,2.863,happy
1.33,2512,2393,3497,2971,2356,0,3261,3180,0,0,0,0,0,0,55,0,0.043,3.716,9.397,0.123,0.092,-0.031,6.266,-6.189,12.694,-2.688,-0.144,3.3,happy
1.34,2685,2465,3582,3089,2465,0,3111,2975,0,0,0,0,0,0,9,0,0.189,3.56,9.088,0.17,0.059,-0.011,-1.832,-17.028,19.613,-0.358,-0.041,2.879,happy
1.35,2882,2559,3664,3219,2495,0,2844,2594,0,0,10,0,0,0,0,0,0.175,3.816,9.234,0.131,0.101,-0.008,6.539,-0.484,10.949,1.456,0.173,2.131,happy
1.36,2971,2677,3721,3307,2435,0,2256,1763,0,0,0,0,0,0,0,0,0.053,3.869,9.39,0.123,0.123,-0.001,6.637,0.536,7.602,1.924,0.122,0.946,happy
1.37,3015,2727,3749,3357,2364,0,1827,991,0,0,0,0,0,0,3,0,-0.024,3.776,9.242,0.138,0.11,0.015,6.388,0.548,7.705,2.054,-0.196,0.269,happy
1.38,3050,2768,3773,3408,2231,0,1561,0,0,0,17,0,0,0,0,0,0.002,3.764,9.301,0.152,0.104,0.023,5.88,-0.242,8.849,2.285,-0.45,-0.326,happy
1.39,3142,2822,3792,3440,2012,0,1149,0,0,0,61,0,0,0,0,0,0.057,3.922,9.273,0.171,0.119,0.012,4.922,-0.728,8.882,2.656,-0.601,-0.786,happy
1.4,3165,2864,3806,3481,1771,0,829,0,3,0,0,1,0,0,0,0,-0.038,3.986,9.246,0.174,0.124,0.017,3.215,-0.711,8.38,2.992,-0.625,-0.984,happy
1.41,3203,2857,3824,3509,1630,0,543,0,0,0,2,0,0,0,0,0,0.007,3.943,9.287,0.158,0.123,0.006,1.513,-1.348,9.153,3.236,-0.837,-1.011,happy
1.42,3258,2871,3838,3550,1487,0,254,0,0,0,0,0,0,0,0,0,0.019,3.905,9.333,0.164,0.132,0.014,0.852,-2.124,10.089,3.497,-1.165,-0.98,happy
1.43,3310,2911,3855,3566,1376,0,104,0,1,0,0,0,0,0,0,0,0.055,3.776,9.371,0.211,0.128,0.021,0.599,-2.875,10.221,3.701,-1.427,-0.967,happy
1.44,3327,2935,3856,3583,1333,0,0,0,0,0,0,0,0,0,0,0,-0.036,3.814,9.179,0.205,0.128,0.03,0.503,-3.323,9.972,3.843,-1.526,-0.986,happy
1.45,3349,2927,3862,3615,1234,0,0,0,0,0,0,0,0,0,0,0,-0.134,3.982,9.189,0.189,0.119,0.028,-0.019,-4.137,10.767,3.927,-1.529,-0.977,happy
1.46,3379,2942,3867,3631,1146,0,0,0,0,1,12,0,0,0,0,0,-0.11,3.862,9.189,0.181,0.127,0.022,-0.342,-4.511,11.466,3.979,-1.621,-0.99,happy
1.47,3415,2940,3869,3646,1273,0,0,0,0,0,0,0,0,0,0,0,-0.096,3.838,9.261,0.219,0.119,0.027,-0.227,-4.772,11.952,3.997,-1.695,-1.026,happy
1.48,3440,2901,3881,3655,1184,0,0,0,0,0,0,0,0,0,0,0,0.424,3.74,8.126,0.289,0.171,0.055,-0.34,-5.234,12.866,4.003,-1.663,-0.987,happy
1.49,3455,2878,3886,3673,1172,0,0,0,0,18,0,0,6,0,0,0,-0.132,3.946,9.165,0.223,0.108,0.04,-1.123,-5.906,14.219,3.96,-1.76,-0.888,happy
1.5,3490,2835,3895,3684,1115,0,0,0,0,0,0,0,0,0,0,0,0.002,3.989,9.127,0.238,0.094,0.046,-1.314,-6.768,15.574,3.963,-2.021,-0.769,happy
1.51,3519,2774,3901,3693,1248,0,0,0,0,0,0,0,0,0,0,0,-0.045,4.01,9.103,0.258,0.102,0.051,-0.656,-7.69,16.216,4.004,-2.188,-0.691,happy
1.52,3551,2717,3903,3715,1129,0,0,0,0,0,46,0,0,0,0,0,-0.105,3.96,9.017,0.278,0.088,0.073,-0.204,-8.827,17.231,4.04,-2.215,-0.687,happy
1.53,3575,2673,3917,3730,1022,0,0,0,0,0,0,0,0,0,17,0,-0.122,3.998,9.074,0.294,0.09,0.088,-0.091,-10.645,16.8,4.036,-2.169,-0.731,happy
1.54,3623,2699,3923,3745,917,0,0,0,0,0,20,0,5,0,0,0,-0.101,4.044,9.069,0.32,0.085,0.097,0.184,-11.485,14.913,3.861,-2.083,-0.793,happy
1.55,3664,2707,3925,3750,848,0,0,0,0,0,0,0,0,0,0,0,-0.23,4.147,8.985,0.327,0.079,0.109,1.36,-12.747,12.356,3.431,-1.977,-0.857,happy
1.56,3716,2687,3941,3765,651,0,0,0,0,0,0,0,0,0,0,0,-0.165,4.118,9.108,0.364,0.082,0.136,1.944,-15.021,12.629,2.949,-1.982,-1.02,happy
1.57,3758,2659,3940,3773,458,0,0,0,0,0,0,0,0,0,0,0,-0.199,4.152,9.033,0.393,0.092,0.158,2.239,-18.069,12.902,2.666,-1.853,-1.43,happy
1.58,3795,2661,3948,3775,390,0,0,0,0,0,0,0,0,0,0,0,-0.069,4.142,9.151,0.463,0.103,0.196,1.935,-19.01,7.017,2.206,-1.409,-2.271,happy
1.59,3825,2649,3949,3789,203,0,0,0,0,0,0,0,0,0,0,0,-0.031,4.087,8.983,0.552,0.124,0.23,2.016,-19.13,-0.74,1.393,-0.417,-3.033,happy
1.6,3856,2546,3954,3795,0,0,0,0,0,0,99,20,0,0,0,0,-0.026,4.353,9.079,0.635,0.148,0.253,-3.251,-19.613,-1.741,0.447,0.468,-3.273,happy
1.61,3879,2559,3959,3806,0,0,0,0,0,0,0,0,0,0,0,0,0.062,4.322,9.191,0.739,0.193,0.28,-9.124,-19.613,0.127,-0.211,0.381,-3.147,happy
1.62,3885,2468,3947,3845,0,0,0,0,0,0,0,0,0,0,0,0,0.002,4.269,8.973,0.861,0.209,0.306,-10.455,-19.35,-1.46,-0.825,0.503,-2.445,happy
1.63,3921,2491,3962,3813,0,0,0,0,0,0,0,0,0,0,0,0,0.031,3.974,8.818,1.023,0.239,0.308,-10.417,-16.501,0.462,-1.32,0.757,-1.397,happy
1.64,3938,2367,3958,3824,0,0,0,0,0,0,0,0,0,0,0,0,-0.01,4.264,9.009,1.102,0.312,0.379,8.143,6.46,17.667,-1.119,2.825,-0.491,happy
1.65,3962,2427,3956,3811,0,0,0,0,0,0,10,0,0,0,0,0,0.445,4.424,9.163,1.246,0.373,0.406,-9.728,12.895,15.555,-0.989,2.174,-0.338,happy
1.66,3967,2381,3935,3815,0,0,0,0,0,0,0,0,0,0,0,184,0.836,4.762,9.218,1.446,0.497,0.499,-1.532,6.342,2.732,-3.429,0.756,-0.423,happy
1.67,3967,2287,3892,3795,0,0,0,0,0,0,0,6,0,0,0,1131,0.864,4.932,9.052,1.71,0.668,0.622,-4.762,-1.741,10.944,-2.818,0.89,0.944,happy
1.68,3973,2275,3801,3782,0,0,0,0,0,0,0,0,31,0,0,2477,0.862,5.559,9.689,1.7,0.95,0.649,-3.134,-6.804,16.391,-2.923,0.42,0.717,happy
1.69,3978,2096,3600,3759,0,0,0,0,0,0,0,5,0,4,443,3118,0.931,5.265,8.892,2.099,1.196,0.704,-3.955,-2.231,15.335,-2.981,-0.028,0.55,happy
1.7,3975,1968,3446,3714,0,0,0,0,0,0,0,0,0,0,1047,3387,-0.036,5.049,7.939,2.53,1.39,0.748,0.527,-3.651,11.581,-2.656,0.083,0.735,happy
1.71,3959,1904,3341,3647,0,0,0,0,0,0,0,0,0,0,1438,3531,0.402,4.642,7.197,2.933,1.603,0.775,1.42,-5.801,12.601,-2.356,-0.181,0.51,happy
1.72,3911,1823,3264,3439,0,0,0,0,0,0,0,0,0,0,1899,3621,0.481,4.657,8.686,3.518,1.747,0.506,19.613,1.276,18.179,-3.381,1.225,0.218,happy
1.73,3853,1362,3010,2823,0,0,0,0,0,0,92,0,0,11,2393,3687,-1.214,5.737,10.12,4.39,1.177,-0.101,3.642,-10.228,13.393,-1.093,-0.703,-0.761,happy
1.74,3541,403,2378,1994,0,0,0,0,0,0,2,0,26,0,2651,3724,-3.172,13.417,14.626,5.231,-0.363,-2.144,-3.953,-1.384,14.396,-0.755,0.544,0.435,happy
1.75,2352,0,20,347,0,0,0,0,24,0,0,0,125,0,3019,3771,-5.322,16.094,13.429,6.486,-2.767,-2.535,0.263,-1.87,10.894,-0.185,0.25,0.122,happy
1.76,1454,0,0,0,0,0,0,0,10,40,2,0,166,0,3155,3789,-1.307,10.489,10.728,6.31,-3.019,-2.812,1.925,-2.772,9.419,-0.135,0.29,0.144,happy
1.77,745,0,0,0,0,0,0,0,0,429,1090,0,474,0,3231,3803,0.503,10.008,11.942,5.101,-1.724,-2.367,1.211,-2.567,10.58,-0.072,0.111,0.082,happy
1.78,0,0,0,0,0,0,0,0,2,868,975,0,664,26,3372,3795,5.679,6.407,18.67,2.098,-0.417,-2.72,1.199,-2.433,9.701,-0.021,0.046,0.06,happy
1.79,0,0,0,0,0,0,0,0,0,1084,1051,0,1083,0,3451,3771,5.09,11.662,19.613,0.18,-0.64,-1.226,1.106,-2.466,9.828,-0.055,-0.07,0.038,happy
1.8,0,0,0,0,0,0,0,0,0,1273,1709,0,1423,0,3527,3738,3.637,2.078,12.922,-0.781,-0.034,-1.25,1.391,-2.188,9.749,-0.094,-0.086,0.03,happy
1.81,0,0,0,0,0,0,0,0,0,1363,1850,0,1653,0,3589,3675,2.859,0.4,9.711,-1.179,-0.205,-0.941,1.446,-2.476,9.819,-0.112,-0.055,0.056,happy
1.82,0,0,0,0,0,0,0,0,0,1429,2224,0,1909,0,3619,3566,2.502,1.937,8.382,-1.428,-0.464,-0.789,1.207,-2.442,9.859,-0.104,-0.017,0.068,happy
1.83,0,0,0,0,0,0,0,0,0,1543,2244,0,1927,0,3631,3429,2.354,1.549,7.53,-1.614,-0.649,-0.673,1.365,-2.488,9.898,-0.102,-0.054,0.067,happy
1.84,0,0,0,0,0,0,0,0,0,1715,2395,17,2072,0,3615,3091,2.327,1.899,7.245,-1.85,-0.711,-0.533,1.188,-2.571,9.814,-0.087,-0.052,0.046,happy
1.85,0,0,0,0,0,0,0,0,1,1884,2569,57,2207,1,3673,2983,1.551,2.433,7.642,-2.155,-0.783,-0.423,1.231,-2.531,9.749,-0.068,-0.038,0.033,happy
1.86,0,0,0,0,0,0,0,0,1,1907,2610,94,2367,0,3645,2979,0.97,2.885,7.42,-2.435,-0.86,-0.347,1.113,-2.298,9.799,-0.059,-0.01,0.035,happy
1.87,0,0,0,0,0,0,0,0,1,2041,2648,90,2530,2,3647,3047,0.575,3.328,7.338,-2.643,-1.015,-0.276,1.159,-2.277,9.663,-0.057,0.041,0.053,happy
1.88,0,0,0,0,0,0,0,0,1,2063,2648,211,2629,1,3635,3068,0.52,4.35,7.53,-2.786,-1.209,-0.163,1.207,-2.248,9.493,-0.089,0.067,0.103,happy
1.89,0,0,0,0,0,0,0,0,11,2217,2659,399,2723,0,3621,3053,1.056,4.853,7.271,-2.915,-1.268,0.074,1.24,-2.473,9.653,-0.086,0.122,0.129,happy
1.9,0,0,0,0,0,0,0,0,23,2258,2695,811,2791,3,3610,3039,1.334,5.748,7.58,-2.931,-1.261,0.377,1.238,-2.528,9.594,-0.052,0.181,0.161,happy
1.91,0,0,0,0,0,0,0,0,13,2275,2715,1116,2872,1,3519,2969,1.166,6.309,8.418,-2.988,-1.164,0.717,1.113,-2.576,9.67,-0.015,0.256,0.162,happy
1.92,0,0,0,0,0,0,0,0,0,2312,2723,1451,2936,3,3592,2995,0.567,7.013,9.1,-3.06,-1.077,0.997,1.041,-2.61,9.646,0.018,0.314,0.178,happy
1.93,0,0,0,0,0,0,0,0,3,2331,2741,1849,2984,5,3541,3035,-0.543,7.52,9.5,-3.128,-1.065,1.15,1.204,-2.847,9.991,0.074,0.364,0.153,happy
1.94,0,0,0,0,0,0,0,0,2,2301,2766,2123,2996,51,3500,2917,-1.389,8.08,10.127,-3.185,-1.162,1.215,1.123,-2.612,9.862,-0.005,0.281,0.135,happy
1.95,0,0,0,0,0,0,0,0,0,2425,2805,2557,3062,4,3358,2879,-1.231,7.621,9.677,-3.234,-1.184,1.221,0.848,-2.523,9.799,0.025,0.184,0.103,happy
1.96,0,0,0,0,0,0,0,0,3,2493,2815,2622,3132,0,3228,2745,-1.118,7.436,10.013,-3.183,-1.193,1.182,0.955,-2.729,9.89,-0.042,0.155,0.092,happy
1.97,0,0,0,0,0,0,0,0,1,2535,2833,2715,3143,3,3183,2719,-0.721,7.283,10.479,-3.173,-1.213,1.193,0.22,-1.154,9.577,-0.144,0.14,0.08,happy
1.98,0,0,0,0,0,0,0,0,1,2589,2838,2807,3162,3,3171,2659,-0.486,7.08,10.434,-3.125,-1.214,1.195,0.881,-2.382,9.742,-0.031,0.123,0.08,happy
1.99,0,0,0,0,0,0,0,0,3,2615,2838,2899,3181,4,3148,2551,-0.611,6.972,10.587,-2.992,-1.219,1.219,0.898,-2.533,9.73,-0.059,0.131,0.079,happy
2,0,0,0,0,0,0,0,0,0,2643,2871,2965,3195,0,3111,2604,-0.907,7.377,11.823,-2.859,-1.31,1.248,0.85,-2.528,9.828,-0.051,0.111,0.074,happy
2.01,0,0,0,0,0,0,0,0,2,2675,2904,2995,3213,3,3059,2457,-0.769,8.025,12.412,-2.824,-1.323,1.249,0.826,-2.555,9.778,-0.039,0.095,0.068,happy
2.02,0,0,0,0,0,0,0,0,25,2695,2904,3029,3228,10,3099,2391,-1.032,7.705,11.899,-2.82,-1.133,1.205,0.843,-2.55,9.766,-0.075,0.11,0.064,happy
2.03,0,0,0,0,0,0,0,0,50,2723,2920,3091,3225,17,3027,2381,-2.672,7.561,11.633,-2.468,-0.904,0.986,0.816,-2.557,9.591,-0.073,0.084,0.063,happy
2.04,0,0,0,0,0,0,0,0,75,2853,2971,3175,3223,23,2909,1965,-2.126,9.914,12.694,-2.188,-0.9,0.878,0.759,-2.512,9.756,-0.125,0.073,0.049,happy
2.05,0,0,0,0,0,0,0,0,307,2955,2976,3223,3209,47,2787,1319,0.053,12.847,12.124,-2.096,-0.752,1.119,0.682,-2.602,9.694,-0.142,0.049,0.023,happy
2.06,0,0,0,0,0,0,0,0,567,3033,2966,3262,3191,51,2644,928,-1.216,13.415,5.478,-2.168,-0.049,1.458,0.891,-2.653,9.847,-0.149,0.07,0.019,happy
2.07,0,0,0,0,0,0,0,0,791,3123,3045,3373,3129,43,2453,120,-5.665,13.202,-1.717,-1.201,-0.245,1.436,0.709,-2.579,9.701,-0.189,0.059,-0.002,happy
2.08,0,0,0,0,0,0,0,0,1085,3196,3078,3427,2955,38,2071,165,-7.946,14.43,-1.788,-0.051,-0.34,0.834,0.69,-2.787,9.61,-0.157,0.031,0.008,happy
2.09,0,0,0,0,0,0,0,0,1343,3245,3084,3477,2684,37,1513,138,-5.708,13.439,-0.302,0.645,-0.082,-0.046,0.733,-2.679,9.524,-0.123,0.054,0.005,happy
2.1,0,0,0,0,0,0,0,0,1612,3415,3109,3561,2404,18,423,24,2.823,6.479,14.384,1.18,2.622,-0.565,0.836,-2.753,9.512,-0.08,0.033,0.068,happy
2.11,0,0,0,0,0,0,400,1318,1776,3401,3124,3590,2123,5,582,0,-4.116,-6.867,18.589,1.85,1.589,-0.299,0.845,-2.164,9.972,-0.517,0.103,-0.099,happy
2.12,0,0,0,0,0,0,771,2830,2099,3437,3140,3633,1191,4,415,0,-6.098,4.003,8.049,3.577,0.738,-1.001,1.118,-3.067,9.74,-0.694,0.137,-0.179,happy
2.13,0,0,0,0,0,0,1386,3257,2335,3323,3160,3643,394,3,345,0,0.874,8.971,14.617,2.381,0.699,-0.785,1.525,-2.394,9.553,-0.874,0,-0.239,happy
2.14,0,0,0,0,0,0,2197,3378,2649,2917,3127,3592,13,35,0,0,-1.86,4.87,12.086,2.175,0.263,-0.32,1.717,-2.739,9.203,-1.363,-0.718,-0.329,happy
2.15,478,0,0,0,733,0,2692,3331,2840,2071,3130,3639,35,0,0,0,5.933,5.092,7.166,0.467,1.023,-0.323,0.903,-3.127,11.135,-2.344,-0.041,-0.615,happy
2.16,997,92,39,0,976,0,2983,3421,2829,1677,3145,3630,0,0,0,0,0.622,3.936,10.824,0.501,0.277,-0.124,2.452,-3.237,10.898,-2.629,0.335,-0.653,happy
2.17,1207,494,1175,118,1279,0,3146,3483,2585,1145,3109,3367,0,0,0,0,-0.215,3.955,10.432,0.246,0.065,-0.064,0.898,-2.207,11.085,-3.779,0.922,-0.354,happy
2.18,1277,1105,2155,354,1561,0,3251,3541,1771,162,2106,2556,0,0,0,0,0.39,4.034,9.562,0.088,0.089,-0.086,1.051,-4.484,14.751,-5.849,0.701,0.806,happy
2.19,1338,1381,2589,806,1797,0,3331,3605,1327,83,1256,1669,0,0,0,0,0.101,3.757,9.749,0.035,0.035,-0.023,0.867,-8.686,14.387,-6.598,-0.123,1.755,happy
2.2,1345,1572,2739,1071,2001,0,3410,3654,207,0,0,0,0,0,0,0,0.29,3.259,9.56,0.039,-0.001,0.037,0.718,-11.751,13.573,-6.934,-1.174,2.594,happy
2.21,1348,1666,2871,1246,2067,16,3454,3674,0,0,0,25,23,0,0,0,0.376,3.476,9.481,0.092,-0.011,0.011,2.387,-5.054,12.074,-3.874,-0.979,3.128,happy
2.22,1398,1914,3010,1470,2166,213,3520,3681,0,0,0,28,0,41,0,0,0.273,3.625,9.4,0.06,0.021,-0.009,1.676,-1.295,16.927,-0.937,0.154,4.284,happy
2.23,1447,2027,3097,1600,2416,239,3547,3684,0,0,0,0,0,0,0,0,0.172,3.668,9.428,0.03,0.015,0.006,5.394,-0.46,13.264,0.946,-0.731,2.427,happy
2.24,1387,2134,3165,1693,2525,142,3568,3662,0,0,0,0,0,0,18,0,0.261,3.493,9.316,0.059,-0.006,0.012,7.293,-1.034,6.529,1.881,0.18,1.181,happy
2.25,1372,2204,3245,1739,2624,0,3571,3600,0,0,0,0,0,0,0,0,0.376,3.421,9.285,0.12,-0.016,0.001,6.29,-0.704,5.974,2.091,0.27,0.56,happy
2.26,1406,2263,3294,1853,2683,0,3568,3562,0,0,0,0,0,11,0,0,0.397,3.462,9.333,0.128,0.005,-0.023,5.669,-1.935,7.767,2.292,0.025,-0.098,happy
2.27,1455,2353,3350,2084,2779,0,3561,3477,0,0,0,0,0,0,0,0,0.311,3.515,9.347,0.123,0.033,-0.036,4.858,-3.764,8.03,3.053,-0.169,-1.151,happy
2.28,1617,2419,3411,2266,2873,0,3536,3417,0,0,0,7,0,0,0,0,0.326,3.606,9.38,0.15,0.021,-0.033,2.047,-3.996,6.225,3.147,-0.121,-1.391,happy
2.29,1728,2526,3463,2416,2927,0,3516,3347,0,0,0,0,0,0,0,0,0.369,3.757,9.357,0.156,0.042,-0.028,1.487,-5.136,8.001,3.162,-0.377,-1.377,happy
2.3,1837,2586,3509,2537,2966,0,3472,3269,0,0,12,0,0,0,0,0,0.376,3.632,9.335,0.121,0.068,-0.029,2.059,-6.337,9.112,3.362,-0.717,-1.518,happy
2.31,1954,2642,3555,2640,3003,0,3415,3177,0,0,7,0,0,0,0,0,0.259,3.615,9.282,0.133,0.059,-0.031,1.642,-6.436,9.371,3.392,-0.641,-1.723,happy
2.32,2082,2713,3600,2750,3043,0,3325,3043,0,0,0,0,0,0,0,0,0.304,3.699,9.268,0.133,0.048,-0.022,0.831,-6.256,10.307,3.443,-0.696,-1.786,happy
2.33,2207,2763,3635,2864,3088,0,3190,2864,0,0,0,0,0,0,0,0,0.225,3.742,9.304,0.123,0.053,-0.023,-1.18,-6.27,10.999,3.467,-0.854,-1.488,happy
2.34,2320,2806,3668,2953,3118,0,3017,2636,0,0,94,0,0,0,0,5,0.227,3.658,9.292,0.118,0.049,-0.016,-2.418,-6.472,12.847,3.501,-1.337,-0.665,happy
2.35,2426,2837,3709,3022,3120,0,2861,2224,0,0,0,0,0,0,0,0,0.199,3.675,9.249,0.13,0.037,-0.019,-2.073,-6.905,13.961,3.58,-1.549,-0.312,happy
2.36,2487,2884,3731,3101,3133,0,2747,1763,0,0,0,0,0,0,0,0,0.273,3.812,9.244,0.114,0.029,-0.012,-1.456,-7.525,13.345,3.546,-1.726,0.098,happy
2.37,2559,2957,3767,3171,3152,0,2670,995,0,0,0,0,0,0,0,0,0.235,3.816,9.242,0.088,0.048,-0.018,-1.556,-9.06,13.202,2.993,-2.154,0.142,happy
2.38,2640,3023,3803,3215,3179,0,2515,219,0,0,0,0,0,0,5,0,0.194,3.685,9.21,0.121,0.05,-0.019,-0.287,-11.65,14.358,2.793,-2.133,0.017,happy
2.39,2739,3100,3824,3286,3159,0,2191,0,16,0,0,0,0,0,0,0,0.381,3.855,9.491,0.115,0.101,-0.013,0.943,-14.736,10.472,2.39,-0.989,-0.563,happy
2.4,2822,3192,3853,3354,3035,0,1671,0,0,0,0,0,0,0,0,0,0.237,3.694,9.345,0.141,0.143,0.003,-0.63,-16.403,3.596,1.46,-0.836,-1.316,happy
2.41,2878,3260,3869,3387,2847,0,1349,0,0,0,0,0,0,0,0,0,0.242,3.78,9.261,0.182,0.165,0.011,-2.744,-15.519,0.632,0.851,-0.564,-1.474,happy
2.42,2961,3305,3888,3426,2624,0,964,0,0,0,10,0,0,0,0,25,0.122,3.926,9.479,0.201,0.177,0.008,-5.09,-16.664,-0.498,0.212,-0.306,-1.393,happy
2.43,3103,3370,3911,3478,2171,0,281,0,0,0,0,0,36,0,0,0,0.256,3.484,9.376,0.223,0.198,-0.003,-5.921,-15.558,-1.178,-0.447,0.169,-1.096,happy
2.44,3229,3433,3933,3504,1857,0,204,0,0,0,0,0,0,0,0,0,0.567,3.814,9.402,0.623,0.237,0.174,5.818,-4.662,15.416,-0.26,3.625,0.014,happy
2.45,3323,3440,3950,3541,1554,0,0,0,0,0,66,0,0,0,0,0,0.304,3.723,9.086,0.83,0.249,0.247,-1.075,5.667,17.36,-1.306,1.91,-0.41,happy
2.46,3408,3439,3950,3554,1280,0,0,0,0,0,0,0,0,0,0,0,0.151,3.661,9.292,0.96,0.267,0.306,-3.129,5.962,5.191,-2.86,0.166,-0.505,happy
2.47,3490,3378,3954,3560,1367,0,0,0,29,0,0,0,0,0,0,477,0.615,3.699,9.084,1.131,0.264,0.397,-7.453,0.51,8.696,-2.809,0.739,0.768,happy
2.48,3555,3262,3935,3556,883,0,0,0,0,0,0,0,0,0,0,1772,0.096,3.625,8.93,1.363,0.261,0.468,-5.035,-1.982,12.51,-3.288,-0.171,0.876,happy
2.49,3656,2849,3920,3493,0,0,0,0,0,0,0,1,0,0,367,2585,0.699,3.917,9.079,1.646,0.357,0.532,0.5,-3.543,11.428,-3.379,-0.637,0.693,happy
2.5,3664,2559,3922,3536,0,0,0,0,0,5,0,0,0,0,831,2917,0.081,3.689,8.543,1.973,0.419,0.614,2.174,-5.382,11.401,-2.861,-0.483,0.748,happy
2.51,3701,2437,3904,3508,0,0,0,0,0,0,0,0,0,0,1148,3115,0.304,3.977,9.266,2.183,0.548,0.63,19.613,-2.358,19.613,-2.673,-0.509,0.702,happy
2.52,3714,2352,3875,3471,0,0,0,0,0,0,0,0,0,0,1497,3239,0.656,5.033,8.928,2.39,0.763,0.669,0.271,-19.613,19.613,-0.322,1.079,-0.126,happy
2.53,3710,2230,3834,3395,0,0,0,0,9,0,2,0,4,0,1989,3316,0.148,4.911,8.626,2.648,0.84,0.735,-5.806,3.874,11.799,-0.21,1.896,0.764,happy
2.54,3669,2117,3791,3240,0,0,0,0,0,0,2,0,0,0,2223,3383,1.326,6.273,8.806,2.755,0.86,0.683,1.025,-3.725,11.621,-0.123,0.843,0.193,happy
2.55,3583,2059,3719,2626,0,0,0,0,0,0,2,0,0,0,2309,3445,0.505,5.358,9.268,2.918,0.782,0.671,1.104,-2.308,9.687,-0.08,0.71,0.251,happy
2.56,3447,1995,3581,2282,0,0,0,0,0,20,0,1,10,0,2445,3483,0.251,4.575,12.261,3.617,0.523,0.577,1.137,-2.485,9.22,0.01,0.487,0.156,happy
2.57,3193,1515,3248,1846,0,0,0,0,0,328,2,0,91,0,2509,3544,-0.687,6.517,14.286,4.392,0.178,0.271,1.204,-2.586,10.654,-0.014,0.354,0.17,happy
2.58,1716,473,2317,567,0,0,0,0,0,569,7,0,44,0,2798,3637,-0.565,8.813,15.416,6.019,-0.812,-1.018,1.214,-2.327,9.404,0.055,0.401,0.19,happy
2.59,1214,0,954,0,0,0,0,0,7,937,56,77,88,6,2889,3682,-2.667,9.481,13.86,7.09,-0.315,-1.79,0.922,-1.951,10.297,-0.038,0.353,0.176,happy
2.6,706,0,67,0,0,0,0,0,10,1071,94,491,84,11,2983,3747,-0.989,11.305,12.05,7.022,-0.121,-1.763,0.821,-2.789,10.24,0.017,0.163,0.115,happy
2.61,0,0,0,0,0,0,0,0,10,1309,107,1045,104,6,3046,3743,-1.523,5.152,19.613,2.755,0.435,-2.476,0.941,-2.605,9.778,0.018,0.094,0.064,happy
2.62,0,0,0,0,0,0,0,0,12,1439,842,1271,333,12,3182,3765,-4.638,12.663,17.267,1.324,-0.057,-2.15,0.709,-2.277,10.324,-0.006,0.081,0.025,happy
2.63,0,0,0,0,0,0,0,0,12,1497,1876,1671,567,36,3319,3802,2.105,1.587,12.096,-0.818,-0.613,-2.03,0.838,-2.559,10.163,-0.015,0.159,0.112,happy
2.64,0,0,0,0,0,0,0,0,16,1693,2393,2011,652,11,3413,3742,3.215,0.773,9.254,-1.601,-0.549,-1.765,0.996,-2.966,9.979,-0.086,0.103,0.031,happy
2.65,0,0,0,0,0,0,0,0,11,1717,2485,2093,829,11,3432,3693,3.764,1.733,9.11,-2.067,-0.481,-1.479,0.893,-2.77,9.972,-0.082,0.086,0.054,happy
2.66,0,0,0,0,0,0,0,0,10,1850,2526,2441,957,12,3427,3635,3.922,2.186,8.289,-2.512,-0.417,-1.163,0.749,-2.263,9.646,-0.079,0.084,0.036,happy
2.67,0,0,0,0,0,0,0,0,10,1915,2554,2538,1067,13,3415,3473,3.84,2.535,7.609,-2.888,-0.328,-0.871,0.73,-2.454,9.651,-0.075,0.072,0.074,happy
2.68,0,0,0,0,0,0,0,0,11,2005,2597,2637,1192,12,3389,3479,2.861,3.754,7.46,-3.244,-0.42,-0.515,0.79,-2.662,9.706,-0.086,0.077,0.064,happy
2.69,0,0,0,0,0,0,0,0,0,2205,2618,2761,1323,2,3302,3287,2.914,5.341,7.764,-3.526,-0.683,-0.161,0.831,-2.636,9.811,-0.12,0.065,0.074,happy
2.7,0,0,0,0,0,0,0,0,4,2313,2654,2875,1334,4,3240,3163,2.998,6.146,7.757,-3.611,-0.784,0.116,0.737,-2.605,9.855,-0.1,0.048,0.056,happy
2.71,0,0,0,0,0,0,0,0,19,2365,2679,2979,1386,6,3208,3014,2.851,6.91,8.329,-3.631,-0.858,0.462,0.733,-2.646,9.708,-0.099,0.046,0.049,happy
2.72,0,0,0,0,0,0,0,0,51,2389,2741,3101,1419,21,3131,2871,2.308,7.851,9.254,-3.652,-0.912,0.838,0.711,-2.576,9.534,-0.118,0.028,0.035,happy
2.73,0,0,0,0,0,0,0,0,99,2482,2802,3125,1461,27,3019,2744,1.417,8.665,10.204,-3.709,-0.934,1.158,0.723,-2.634,9.795,-0.129,0.039,0.028,happy
2.74,0,0,0,0,0,0,0,0,137,2616,2884,3271,1661,42,2725,2477,0.426,8.631,9.146,-3.653,-0.874,1.441,0.532,-2.641,9.833,-0.115,0,0.017,happy
2.75,0,0,0,0,0,0,0,0,249,2653,2897,3289,1661,55,2607,2399,0.163,8.305,9.452,-3.399,-0.763,1.431,0.716,-2.775,9.644,-0.083,-0.001,0.023,happy
2.76,0,0,0,0,0,0,0,0,532,2727,2981,3425,1741,58,2442,2156,0.306,8.473,10.853,-3.181,-0.786,1.296,0.773,-2.775,9.675,-0.081,0.015,0.023,happy
2.77,0,0,0,0,0,0,0,0,665,2779,3017,3494,1843,55,2311,1758,0.098,9.021,12.127,-3.058,-1.114,1.194,0.627,-2.602,9.943,-0.088,0.01,0.024,happy
2.78,0,0,0,0,0,0,0,0,931,2837,3022,3519,1835,58,2237,1471,0.381,8.914,11.602,-2.965,-1.319,1.163,0.781,-2.758,9.723,-0.091,0.028,0.017,happy
2.79,0,0,0,0,0,0,0,0,1076,2917,3045,3615,1821,57,2105,607,-1.03,8.238,11.389,-2.636,-1.133,0.99,0.723,-2.732,9.764,-0.108,0.029,0.014,happy
2.8,0,0,0,0,0,0,0,0,1363,2973,3061,3693,1688,43,1816,154,-5.825,9.565,12.898,-2.113,-1.683,0.727,0.704,-2.835,9.673,-0.083,0.015,0.021,happy
2.81,0,0,0,0,0,0,0,0,1519,3001,3068,3734,1619,17,1524,18,-4.896,11.128,10.609,-1.701,-2.523,0.399,0.733,-2.854,9.646,-0.08,0.049,0.013,happy
2.82,0,0,0,0,0,0,0,0,1775,3052,3089,3765,1591,11,1005,9,-1.051,15.198,8.246,-1.474,-1.839,0.033,0.675,-2.816,9.735,-0.073,0.015,0.019,happy
2.83,0,0,0,0,0,0,0,0,1957,3119,3104,3863,1437,23,383,26,-3.285,16.767,1.573,-1.503,-1.341,0.001,0.678,-2.598,9.713,-0.145,0.043,-0.006,happy
2.84,0,0,0,0,0,0,0,0,2184,3115,3160,3897,1175,12,248,12,-3.498,14.171,-6.251,-0.243,-1.479,0.242,0.716,-2.744,9.816,-0.231,0.048,-0.029,happy
2.85,0,0,0,0,0,0,0,0,2296,3179,3124,3949,616,10,163,4,-1.846,15.51,-2.14,1.116,-0.743,0.197,0.706,-3.086,9.732,-0.461,0.131,-0.14,happy
2.86,0,0,0,0,0,0,0,0,2428,3205,3124,3963,403,5,30,3,9.819,-2.15,-5.703,1.201,3.751,0.274,0.443,-2.49,9.5,-0.475,0.05,-0.105,happy
2.87,0,0,0,0,0,0,154,0,2495,3210,3130,3979,189,7,45,0,-0.553,-2.263,14.183,1.036,2.911,1.432,0.816,-3.012,9.459,-0.428,0.063,-0.081,happy
2.88,0,0,0,0,0,0,705,1179,2675,3219,3132,3991,202,6,39,2,-2.172,-10.034,6.974,2.418,1.608,1.68,0.706,-2.535,9.325,-0.469,0.002,-0.097,happy
2.89,0,0,0,0,0,0,763,2674,2799,3235,3104,3997,144,6,5,11,-19.613,1.353,13.333,3.685,0.596,-0.321,1.403,-3.077,9.476,-0.634,-0.183,-0.149,happy
2.9,0,0,0,0,0,0,1405,3193,2918,3247,3137,3990,46,2,2,0,2.947,4.867,9.017,2.665,0.34,-0.8,1.267,-3.266,9.491,-0.86,-0.392,-0.246,happy
2.91,0,0,0,0,0,0,1953,3280,2941,3108,3135,3988,55,0,2,0,5.428,5.21,8.332,2.707,0.208,-0.443,1.092,-3.1,9.577,-1.123,-0.552,-0.324,happy
2.92,0,0,0,0,225,0,2550,3311,2931,3021,3135,3958,30,0,1,0,-19.613,19.613,19.613,2.224,2.615,-2.199,1.204,-2.459,9.337,-1.248,-0.574,-0.363,happy
2.93,560,82,0,0,1146,0,2845,3351,2795,2675,3150,3895,0,0,2,0,-2.203,0.019,12.972,0.608,1.925,-0.729,1.362,-3.299,9.747,-1.799,-0.111,-0.446,happy
2.94,751,405,454,0,1186,0,2992,3408,2665,2159,3155,3799,0,0,0,0,0.919,4.97,13.508,0.189,0.666,-0.217,1.963,-3.124,9.574,-2.684,0.435,-0.496,happy
2.95,876,810,1633,32,1492,0,3120,3472,2531,1894,3107,3683,0,0,0,0,0.314,3.864,10.408,0.224,0.179,-0.061,1.939,-3.208,10.082,-3.141,0.699,-0.299,happy
2.96,999,1279,2390,368,1527,0,3216,3527,1871,617,2426,2976,0,0,0,0,0.742,3.369,9.474,0.15,0.231,-0.137,0.718,-2.442,12.553,-4.982,0.472,0.705,happy
2.97,1184,1670,2823,964,1779,0,3307,3555,1227,0,2,475,0,2,0,0,0.469,3.527,9.378,0.235,0.089,-0.117,1.369,-9.103,15.347,-6.36,-1.427,2.145,happy
2.98,1345,1972,3062,1604,2025,0,3378,3571,987,0,12,0,0,0,0,0,0.172,3.637,9.419,0.225,-0.017,-0.013,0.29,-9.359,15.665,-6.741,-2.254,2.633,happy
2.99,1353,2139,3223,2007,2248,0,3438,3566,0,37,0,0,0,0,0,0,0.17,4.077,8.868,0.094,0.001,-0.009,0.615,-8.559,10.264,-5.391,-2.466,2.342,happy
3,1566,2299,3327,2299,2441,0,3479,3568,9,0,2,0,0,0,0,0,0.342,3.488,9.043,0.108,0.037,-0.008,3.225,-2.612,19.613,0.063,0.031,3.938,happy
3.01,1679,2370,3379,2411,2555,0,3497,3551,0,0,0,0,0,0,0,0,0.225,3.433,8.973,0.098,0.033,-0.025,0.46,-4.623,19.613,0.148,-0.879,2.05,happy
3.02,1840,2480,3455,2559,2525,0,3514,3519,0,0,0,0,0,0,0,0,0.194,3.625,9.428,0.092,0.028,-0.014,3.8,-0.376,10.724,1.402,-0.608,2.249,happy
3.03,1947,2559,3504,2688,2665,0,3474,3447,0,0,0,0,0,0,0,0,0.309,3.627,9.354,0.094,0.025,-0.011,5.179,-0.955,6.833,2.185,-0.172,1.521,happy
3.04,1982,2645,3530,2752,2704,0,3472,3389,0,0,0,0,0,0,23,0,0.304,3.644,9.321,0.091,0.03,-0.014,4.973,-1.245,6.663,2.434,-0.15,0.985,happy
3.05,2039,2725,3559,2829,2787,0,3410,3312,0,0,0,0,0,0,0,0,0.283,3.666,9.369,0.103,0.019,-0.018,3.654,-2.662,6.658,2.968,-0.25,0.005,happy
3.06,2086,2768,3583,2867,2825,0,3367,3248,0,0,0,0,0,0,0,0,0.237,3.668,9.304,0.114,0.012,-0.023,2.401,-2.591,5.691,3.081,-0.359,-0.311,happy
3.07,2107,2810,3619,2921,2859,0,3300,3143,0,0,0,0,0,0,0,0,0.385,3.68,9.321,0.113,0.021,-0.023,1.319,-3.196,6.462,3.088,-0.489,-0.471,happy
3.08,2255,2864,3646,2973,2896,0,3223,3019,0,0,0,0,0,0,0,0,0.321,3.651,9.392,0.105,0.023,-0.026,0.584,-5.224,9.249,3.4,-0.694,-0.6,happy
3.09,2327,2905,3675,3003,2927,0,3123,2871,0,0,0,0,0,0,0,0,0.33,3.733,9.258,0.097,0.038,-0.025,-0.627,-5.677,9.199,3.537,-0.777,-0.741,happy
3.1,2407,2941,3702,3047,2928,0,3024,2747,0,19,0,0,0,0,0,0,0.357,3.783,9.294,0.084,0.039,-0.026,-0.927,-5.895,9.562,3.534,-0.905,-0.759,happy
3.11,2475,2983,3721,3089,2925,0,2877,2628,0,0,12,0,0,0,0,0,0.235,3.723,9.335,0.067,0.054,-0.025,-0.697,-6.079,10.235,3.511,-1.102,-0.788,happy
3.12,2532,2988,3739,3129,2926,0,2758,2497,0,0,0,0,0,0,0,6,0.292,3.735,9.285,0.062,0.056,-0.023,-1.58,-5.957,11.416,3.606,-0.948,-0.606,happy
3.13,2559,3008,3758,3165,2901,0,2631,2311,0,0,0,0,0,0,0,0,0.204,3.725,9.287,0.068,0.058,-0.021,-2.686,-5.758,12.107,3.571,-1.05,-0.389,happy
3.14,2624,3035,3749,3199,2875,0,2519,2043,0,0,0,0,11,0,0,0,0.184,3.802,9.261,0.062,0.06,-0.023,-3.57,-6.091,12.323,3.295,-1.628,0.091,happy
3.15,2702,3043,3777,3220,2831,0,2400,1775,0,0,0,0,0,0,0,0,0.283,3.742,9.189,0.064,0.072,-0.02,-3.433,-7.168,13.039,3.141,-1.422,0.471,happy
3.16,2783,3071,3801,3254,2811,0,2250,1434,0,0,0,0,0,0,0,0,0.283,3.704,9.261,0.053,0.082,-0.013,-4.829,-8.042,12.989,2.977,-1.336,0.691,happy
3.17,2867,3105,3824,3309,2714,0,2084,805,0,0,2,0,0,0,0,0,0.172,3.654,9.309,0.066,0.096,-0.013,-6.273,-9.072,8.928,2.197,-1.333,1.442,happy
3.18,2898,3119,3834,3331,2612,0,1907,194,0,0,0,0,0,0,0,7,0.201,3.742,9.323,0.072,0.108,-0.004,-7.041,-10.645,9.776,1.684,-1.522,1.936,happy
3.19,2958,3150,3849,3376,2419,0,1607,0,0,0,0,0,0,0,0,0,0.175,3.675,9.354,0.095,0.114,0.001,-6.053,-14.178,11.102,1.504,-2.292,2.419,happy
3.2,3010,3173,3851,3402,2331,0,1428,0,0,0,0,0,0,0,0,0,0.144,3.828,9.232,0.124,0.12,0.006,-4.24,-13.194,5.926,1.272,-2.07,2.142,happy
3.21,3051,3204,3863,3427,2228,0,1116,0,0,0,0,0,0,0,0,0,0.194,3.721,9.263,0.161,0.14,0.021,-0.862,-12.134,0.979,0.364,-0.855,1.484,happy
3.22,3083,3232,3880,3456,2117,0,858,0,0,1,0,0,0,0,0,0,0.124,3.795,9.242,0.177,0.155,0.014,-4.262,-15.447,0.939,0.034,0.855,1.08,happy
3.23,3117,3249,3888,3478,2043,0,488,0,0,0,0,0,0,0,4,0,0.168,3.699,9.313,0.195,0.181,0.006,-6.926,-17.988,-2.239,-0.737,1.359,0.791,happy
3.24,3173,3263,3905,3507,1846,0,247,0,0,0,0,0,0,0,0,0,0.232,3.675,9.318,0.264,0.198,0.025,6.503,-4.372,14.128,0.229,3.126,1.152,happy
3.25,3239,3273,3952,3531,1563,0,0,0,0,0,0,27,0,0,9,0,0.201,3.874,9.493,0.358,0.237,0.062,3.077,1.65,16.158,-0.174,1.618,0.257,happy
3.26,3280,3239,3915,3566,1323,0,0,0,0,0,0,0,0,0,0,42,0.029,3.642,8.808,0.499,0.227,0.112,6.699,6.17,2.361,-2.414,-0.461,-0.285,happy
3.27,3330,3184,3925,3573,1243,0,0,0,0,0,7,0,0,0,0,723,0.292,4.137,9.345,0.639,0.232,0.195,-4.906,-0.711,9.649,-1.592,0.463,0.819,happy
3.28,3374,3094,3924,3583,1255,0,0,0,10,0,0,0,0,0,218,1871,0.256,3.534,9.33,0.788,0.219,0.268,-1.243,-5.399,14.933,-1.782,0.368,0.839,happy
3.29,3475,2598,3924,3583,818,0,0,0,0,0,0,0,18,40,651,2604,0.18,3.737,9.268,1.004,0.223,0.406,5.562,-2.856,8.777,-1.937,-0.198,0.222,happy
3.3,3532,2547,3909,3571,373,0,0,0,0,0,0,0,0,0,1224,2949,0.577,3.773,8.875,1.171,0.194,0.475,2.749,-1.592,8.392,-1.861,-0.044,0.166,happy
3.31,3568,2411,3918,3568,0,0,0,0,0,1,0,0,25,0,1310,3063,0.108,4.001,8.832,1.245,0.314,0.504,19.613,0.73,19.613,-2.119,-0.766,0.122,happy
3.32,3616,2239,3899,3525,0,0,0,0,0,0,0,7,0,0,1421,3224,0.213,4.717,8.899,1.361,0.417,0.5,-1.968,-7.714,13.441,-0.258,0.158,-0.131,happy
3.33,3649,2160,3867,3453,0,0,0,0,0,0,0,0,0,1,1991,3246,0.273,4.594,9.232,1.519,0.521,0.547,-0.036,-1.216,11.15,-0.247,1.025,0.335,happy
3.34,3673,1954,3824,3300,0,0,0,0,0,0,0,3,0,0,1915,3317,-0.093,4.264,8.528,1.732,0.641,0.592,1.235,-3.038,9.692,-0.161,0.604,0.054,happy
3.35,3682,1823,3750,3120,0,0,0,0,0,0,2,0,0,2,2119,3310,1.204,5.914,9.79,1.908,0.769,0.511,0.591,-3.74,11.935,-0.239,0.445,0.12,happy
3.36,3655,1482,3635,2967,0,0,0,0,0,0,0,0,0,0,2229,3371,0.136,5.049,8.492,2.036,0.911,0.5,1.307,-2.179,9.883,-0.136,0.278,0.118,happy
3.37,3615,1232,3494,2881,0,0,0,0,0,421,0,0,0,0,2425,3415,0.352,5.337,8.294,2.151,0.953,0.377,1.056,-2.492,10.187,-0.105,0.322,0.173,happy
3.38,3531,989,3264,2691,0,0,0,0,0,563,2,75,1,0,2583,3446,0.079,4.365,8.708,2.426,0.992,0.208,1.367,-2.274,9.692,-0.061,0.391,0.228,happy
3.39,3396,901,2960,2311,0,0,0,0,0,780,2,347,19,0,2649,3477,-1.877,4.884,12.081,3.065,0.496,-0.051,2.902,-4.831,7.834,-0.22,0.559,0.311,happy
3.4,2603,326,2368,1462,0,0,0,0,0,1370,1773,1496,55,3,2809,3532,-2.885,6.357,16.482,3.697,-0.921,-0.757,1.293,-3.299,9.819,-0.138,0.267,0.179,happy
3.41,2160,0,592,197,0,0,0,0,0,1839,2454,2103,135,0,2981,3590,-0.733,9.57,11.772,4.326,-0.646,-1.574,1.171,-2.878,10.118,-0.025,0.155,0.075,happy
3.42,1002,0,0,0,0,0,0,0,0,1963,2556,2298,101,2,3078,3612,-0.256,8.373,11.183,3.904,-0.433,-1.854,0.833,-2.717,10.254,-0.046,0.152,0.056,happy
3.43,0,0,0,0,0,0,0,0,2,2175,2802,2633,331,2,3207,3639,-0.869,0.594,12,1.442,0.024,-2.544,0.833,-2.531,9.938,-0.048,0.069,0.042,happy
3.44,0,0,0,0,0,0,0,0,1,2251,2756,2697,557,4,3254,3656,0.247,2.765,16.041,-0.242,0.017,-2.002,0.867,-2.444,9.718,-0.02,0.068,0.036,happy
3.45,0,0,0,0,0,0,0,0,1,2291,2766,2789,663,3,3283,3657,1.587,2.09,11.669,-0.694,-0.088,-2.09,0.891,-2.662,9.819,0.001,0.069,0.042,happy
3.46,0,0,0,0,0,0,0,0,2,2379,2858,2843,779,3,3352,3656,1.899,1.245,9.347,-1.239,0.042,-2.075,0.924,-2.545,9.778,-0.004,0.078,0.048,happy
3.47,0,0,0,0,0,0,0,0,3,2367,2779,2853,847,3,3384,3641,2.796,1.796,8.32,-1.515,-0.006,-1.872,0.857,-2.528,9.771,-0.011,0.069,0.051,happy
3.48,0,0,0,0,0,0,0,0,3,2453,2802,2919,1011,1,3387,3626,3.498,2.119,8.514,-1.862,-0.026,-1.542,0.812,-2.533,9.845,-0.021,0.06,0.056,happy
3.49,0,0,0,0,0,0,0,0,0,2463,2807,2998,1123,3,3409,3601,4.343,2.495,7.46,-2.224,0.063,-1.123,0.857,-2.545,9.814,-0.026,0.05,0.05,happy
3.5,0,0,0,0,0,0,0,0,1,2490,2822,3048,1223,2,3412,3561,4.733,2.547,6.706,-2.411,0.155,-0.599,0.871,-2.523,9.807,-0.031,0.038,0.047,happy
3.51,0,0,0,0,0,0,0,0,0,2537,2838,3055,1315,3,3443,3517,4.934,3.424,6.972,-2.569,0.224,0.026,0.871,-2.545,9.867,-0.026,0.043,0.043,happy
3.52,0,0,0,0,0,0,0,0,0,2557,2930,3095,1275,3,3399,3487,5.064,4.544,7.247,-2.738,0.265,0.716,0.891,-2.519,9.799,-0.029,0.042,0.042,happy
3.53,0,0,0,0,0,0,0,0,0,2585,2838,3131,1395,3,3397,3485,5.136,5.186,6.632,-2.828,0.386,1.412,0.879,-2.528,9.787,-0.023,0.054,0.04,happy
3.54,0,0,0,0,0,0,0,0,8,2621,2838,3125,1292,2,3399,3507,4.752,5.653,6.378,-2.803,0.519,2.102,0.924,-2.691,9.819,-0.019,0.045,0.047,happy
3.55,0,0,0,0,0,0,0,0,1,2646,2671,3160,1319,3,3402,3447,3.783,6.546,7.427,-2.717,0.581,2.734,0.939,-2.564,9.673,-0.02,0.037,0.035,happy
3.56,0,0,0,0,0,0,0,0,4,2661,2858,3177,1389,2,3416,3419,2.806,7.87,8.495,-2.755,0.636,3.235,0.778,-2.55,9.74,-0.035,0.047,0.049,happy
3.57,0,0,0,0,0,0,0,0,0,2663,2863,3149,1395,3,3391,3435,2.466,8.669,8.77,-2.807,0.802,3.575,0.864,-2.641,9.735,-0.019,0.053,0.05,happy
3.58,0,0,0,0,0,0,0,0,26,2687,2874,3171,1382,3,3405,3389,2.516,9.357,8.394,-2.84,1.077,3.821,0.843,-2.614,9.718,-0.01,0.057,0.046,happy
3.59,0,0,0,0,0,0,0,0,1,2718,2874,3164,1498,2,3417,3439,2.579,10.104,8.15,-2.791,1.346,4.011,0.855,-2.629,9.701,-0.006,0.06,0.045,happy
3.6,0,0,0,0,0,0,0,0,1,2709,2904,3165,1591,12,3423,3431,3.141,10.76,7.369,-2.678,1.576,4.183,0.905,-2.579,9.737,-0.008,0.058,0.043,happy
3.61,0,0,0,0,0,0,0,0,1,2716,2853,3193,1627,2,3435,3446,3.591,11.2,6.838,-2.478,1.808,4.315,0.812,-2.569,9.802,-0.024,0.055,0.04,happy
3.62,0,0,0,0,0,0,0,0,2,2719,2840,3159,1640,1,3435,3455,3.941,11.866,7.132,-2.239,1.931,4.388,0.725,-2.638,9.682,0,0.057,0.031,happy
3.63,0,0,0,0,0,0,0,0,0,2761,2843,3189,1625,3,3453,3466,4.427,12.641,7.626,-2.036,1.939,4.521,0.721,-2.588,9.804,0.015,0.045,0.03,happy
3.64,0,0,0,0,0,0,0,0,3,2751,2843,3247,1694,38,3467,3463,5.164,13.211,7.649,-1.884,1.913,4.746,0.816,-2.586,9.725,0.023,0.052,0.033,happy
3.65,0,0,0,0,0,0,0,0,2,2747,2840,3245,1689,3,3535,3483,5.646,13.386,6.996,-1.747,1.951,5.025,0.766,-2.569,9.828,0.006,0.051,0.032,happy
3.66,0,0,0,0,0,0,0,0,1,2759,2838,3239,1763,1,3481,3485,5.605,13.544,6.318,-1.578,1.955,5.352,0.733,-2.543,9.84,-0.012,0.052,0.033,happy
3.67,0,0,0,0,0,0,0,0,4,2761,2812,3229,1812,3,3480,3483,5.179,13.4,5.631,-1.398,1.99,5.679,0.69,-2.631,9.831,-0.007,0.07,0.042,happy
3.68,0,0,0,0,0,0,0,0,1,2738,2779,3218,1851,3,3474,3483,1.92,12.749,5.341,-1.14,1.87,5.966,0.692,-2.557,9.809,0.006,0.085,0.049,happy
3.69,0,0,0,0,0,0,0,0,0,2730,2797,3132,1869,3,3467,3477,0.153,12.917,4.978,-0.925,1.739,6.037,0.692,-2.552,9.795,0.001,0.092,0.052,happy
3.7,0,0,0,0,0,0,0,0,55,2699,2805,3101,1892,2,3447,3439,-0.412,12.514,4.903,-0.706,1.682,5.917,0.73,-2.454,9.783,-0.017,0.101,0.059,happy
3.71,0,0,0,0,0,0,0,0,2,2664,2723,3042,1791,23,3401,3427,0.742,12.143,4.609,-0.403,1.571,5.795,0.773,-2.54,9.761,-0.045,0.095,0.065,happy
3.72,0,0,0,0,0,0,0,0,0,2725,2863,2991,1779,0,3335,3369,2.593,13.427,5.344,-0.134,1.624,5.691,0.8,-2.576,9.637,-0.062,0.11,0.059,happy
3.73,0,0,0,0,0,0,0,0,1,2747,2805,2997,1803,13,3243,3251,2.464,13.144,4.673,-0.019,1.685,5.686,0.697,-2.602,9.699,-0.057,0.098,0.05,happy
3.74,0,0,0,0,0,0,0,0,8,2808,2830,2919,1711,1,3161,3037,1.393,12.301,4.379,0.214,1.634,5.553,0.725,-2.576,9.754,-0.059,0.106,0.052,happy
3.75,0,0,0,0,0,0,0,0,63,2749,2843,2979,1724,57,3044,2858,0.927,11.159,5.344,0.282,1.686,5.285,0.728,-2.667,9.749,-0.054,0.103,0.042,happy
3.76,0,0,0,0,0,0,0,0,59,2813,2817,2973,1803,13,2934,2814,-0.591,9.215,6.189,0.253,1.702,4.891,0.68,-2.523,9.752,-0.059,0.105,0.047,happy
3.77,0,0,0,0,0,0,0,0,59,2852,2838,2951,1851,20,2899,2795,-0.567,7.309,6.572,0.15,1.652,4.357,0.716,-2.49,9.773,-0.09,0.087,0.045,happy
3.78,0,0,0,0,0,0,0,0,59,2875,2843,2927,1847,21,2799,2795,0.34,6.891,7.367,0.002,1.56,3.768,0.757,-2.665,9.692,-0.099,0.068,0.042,happy
3.79,0,0,0,0,0,0,0,0,122,2871,2830,2964,1861,23,2809,2765,1.516,6.213,6.574,-0.146,1.31,3.282,0.711,-2.684,9.572,-0.113,0.043,0.041,happy
3.8,0,0,0,0,0,0,0,0,160,2917,2838,2971,1915,37,2839,2733,2.512,4.681,4.587,0.015,0.974,2.856,0.62,-2.792,9.598,-0.088,0.05,0.039,happy
3.81,0,0,0,0,0,0,0,0,210,2924,2817,2943,1897,60,2791,2805,-18.275,2.792,6.663,-0.423,0.266,1.748,0.709,-2.825,9.618,-0.05,0.054,0.041,happy
3.82,560,177,644,0,475,0,0,0,319,2908,2764,2876,1899,45,2787,2853,8.679,2.705,3.926,-1.367,0.145,-0.427,0.692,-2.792,9.795,-0.032,0.039,0.04,happy
3.83,871,227,1799,86,1197,0,795,105,383,2885,2838,2905,1855,51,2779,2877,-2.191,3.079,11.485,0.266,-0.021,-0.49,0.634,-2.789,9.737,-0.017,0.041,0.04,happy
3.84,1063,115,1809,579,876,0,1613,2133,365,2751,2794,2730,1589,51,2619,2983,-0.302,3.493,8.775,-0.162,0.472,-0.187,0.675,-2.784,9.749,0.043,-0.014,0.024,happy
3.85,1171,191,1908,1152,752,0,1859,2592,126,2584,2779,2390,975,33,2301,2904,-0.903,3.869,9.373,0.038,0.032,-0.015,0.745,-2.691,9.706,-0.009,-0.046,0.003,happy
3.86,1359,682,2183,1318,1015,0,2171,2800,109,2445,2769,2065,475,29,1880,2731,-0.488,3.615,9.388,0.007,-0.297,0.107,0.711,-2.562,9.737,-0.046,-0.031,-0.003,happy
3.87,1467,1135,2375,1309,1303,0,2625,2987,69,2057,2610,1593,115,53,1159,2142,0.33,4.365,9.962,-0.097,-0.176,0.103,0.668,-2.895,9.934,-0.136,-0.054,-0.012,happy
3.88,1519,1382,2372,1229,1683,0,3007,3173,26,1309,2408,439,52,5,423,1933,0.601,3.591,9.397,-0.066,-0.082,0.025,-1.267,-1.925,9.922,0.004,-0.117,0.317,happy
3.89,1525,1464,2364,1264,1857,0,3219,3345,0,891,1781,0,51,0,200,1735,0.127,3.393,9.452,-0.034,-0.026,0.004,-9.888,-0.522,12.816,0.483,-0.791,2.119,happy
3.9,1471,1476,2325,1296,1926,0,3329,3469,0,0,2,0,0,0,0,541,0.311,3.601,9.313,-0.017,-0.007,0.007,-5.272,-5.004,8.914,0.849,-1.724,5.893,happy
3.91,1437,1447,2340,1346,2011,16,3400,3540,0,0,2,0,0,0,0,173,0.175,3.536,9.383,-0.02,0.039,0.01,-7.317,-11.095,8.825,1.126,-2.285,8.529,happy
3.92,1413,1492,2361,1309,2054,163,3442,3600,0,0,2,0,0,0,0,115,0.196,3.479,9.282,-0.013,0.036,0.032,-1.961,-14.377,9.194,1.361,-2.342,8.731,happy
3.93,1441,1535,2397,1287,2015,272,3468,3634,0,0,0,0,0,0,0,36,0.22,3.23,9.273,0.031,0.031,0.035,1.233,-16.202,8.265,1.324,-2.535,8.731,happy
3.94,1450,1573,2469,1296,2027,113,3499,3659,0,0,0,0,0,0,0,0,0.115,3.479,9.333,0.076,0.026,0.025,10.13,-8.878,5.334,0.829,-1.029,6.084,happy
3.95,1440,1393,2490,1361,2058,224,3490,3666,27,11,0,0,0,0,0,0,0.086,3.467,9.364,0.084,0.03,0.006,6.804,-6.318,7.065,0.453,-0.381,4.238,happy
3.96,1450,1353,2559,1490,2043,196,3498,3671,0,0,0,0,0,0,0,0,-0.005,3.479,9.38,0.09,0.03,-0.002,-1.528,-3.254,8.315,-0.173,-0.385,2.357,happy
3.97,1424,1279,2650,1651,2119,155,3499,3695,0,0,0,0,0,0,0,0,-0.031,3.472,9.337,0.057,0.053,-0.002,-7.151,-2.152,10.015,-0.515,-0.497,2.704,happy
3.98,1472,1213,2683,1839,2077,277,3483,3687,0,0,0,0,0,0,0,0,0.081,3.464,9.29,0.063,0.06,-0.004,-6.809,-1.946,10.843,-0.558,-0.666,3.151,happy
3.99,1487,1107,2709,1947,2110,80,3472,3685,0,0,7,7,0,0,0,0,-0.012,3.421,9.354,0.048,0.063,-0.011,-2.521,-2.14,12.567,-0.233,-0.392,3.749,happy
4,1554,1070,2790,2032,2028,256,3469,3683,0,0,0,0,0,0,0,0,-0.022,3.622,9.282,0.051,0.056,-0.005,1.041,-1.911,11.87,0.204,-0.244,3.623,happy
4.01,1562,863,2829,2103,2021,336,3447,3677,0,0,0,0,0,0,0,0,-0.017,3.51,9.371,0.038,0.052,-0.001,2.217,-1.628,11.04,0.325,-0.245,3.358,happy
4.02,1535,874,2867,2191,2047,272,3430,3675,0,0,0,0,0,2,0,0,0,3.457,9.28,0.042,0.061,-0.01,2.483,-0.742,10.501,0.475,-0.248,2.788,happy
4.03,1526,943,2931,2271,2061,245,3438,3652,0,0,0,0,0,0,0,0,0.069,3.524,9.328,0.053,0.068,-0.013,0.476,-0.752,10.716,0.605,-0.471,2.571,happy
4.04,1499,954,2992,2351,2037,349,3419,3632,0,0,0,0,0,0,0,0,-0.019,3.455,9.311,0.07,0.078,-0.019,-0.294,-1.147,11.293,0.717,-0.595,2.588,happy
4.05,1627,1134,3084,2436,1993,454,3405,3611,0,0,0,0,0,0,11,0,-0.22,3.448,9.4,0.067,0.072,-0.014,-1.041,-1.86,11.416,1.037,-0.761,2.81,happy
4.06,1703,1270,3135,2512,1996,503,3391,3567,0,0,0,0,0,0,0,0,-0.194,3.539,9.402,0.061,0.076,-0.022,-0.081,-2.263,10.211,1.196,-0.877,3.137,happy
4.07,1824,1439,3184,2617,2002,536,3392,3523,0,0,0,0,0,0,0,0,-0.074,3.484,9.361,0.065,0.076,-0.02,0.558,-2.818,10.175,1.269,-0.973,3.242,happy
4.08,1921,1562,3229,2683,1985,554,3375,3472,0,0,0,0,0,0,0,1,-0.017,3.543,9.462,0.076,0.093,-0.028,2.241,-3.654,9.402,1.34,-1.224,3.175,happy
4.09,2032,1682,3283,2771,1958,547,3344,3408,0,0,0,0,0,0,0,0,-0.156,3.505,9.28,0.078,0.075,-0.016,3.361,-4.48,8.882,1.411,-1.296,2.839,happy
4.1,2112,1771,3328,2867,1984,339,3293,3289,0,0,15,0,0,0,0,0,-0.146,3.512,9.388,0.097,0.096,-0.017,3.625,-4.468,8.406,1.387,-1.273,2.622,happy
4.11,2229,1861,3376,2963,1961,149,3218,2788,0,0,5,0,0,0,17,0,-0.148,3.529,9.361,0.105,0.106,-0.024,3.531,-5.507,7.956,1.233,-1.56,2.151,happy
4.12,2339,1910,3425,3035,1829,290,3136,2441,0,0,0,0,0,0,0,0,-0.122,3.63,9.318,0.104,0.122,-0.022,4.29,-6.165,6.019,0.934,-1.388,1.752,happy
4.13,2463,2005,3463,3122,1829,73,3006,2191,0,0,0,0,0,0,1,0,-0.163,3.792,9.689,0.106,0.139,-0.022,4.08,-7.037,6.328,0.766,-1.236,1.534,happy
4.14,2559,2095,3495,3178,1678,93,2815,2089,0,0,0,0,0,0,0,0,-0.122,3.685,9.321,0.13,0.079,-0.023,3.941,-6.266,4.647,0.509,-0.709,0.932,happy
4.15,2559,2149,3547,3213,1675,0,2625,1893,0,0,0,0,9,0,0,0,-0.192,3.658,9.359,0.134,0.107,-0.023,4.286,2.722,12.117,-0.189,0.826,0.041,happy
4.16,2598,2140,3542,3234,1275,0,2240,1520,0,24,7,0,0,0,0,0,-0.146,3.646,9.347,0.137,0.123,-0.014,6.431,2.598,6.117,-0.597,0.566,-0.343,happy
4.17,2665,2171,3568,3266,1150,0,1843,720,0,0,0,0,0,0,0,185,-0.256,3.735,9.273,0.155,0.12,-0.006,-3.898,-0.412,11.171,-1.104,0.046,-0.239,happy
4.18,2723,2188,3562,3259,789,0,1236,0,0,0,0,0,0,0,0,2159,-0.266,3.625,9.392,0.196,0.168,0,-2.385,0.73,8.768,-1.536,-0.294,0.382,happy
4.19,2769,2231,3601,3252,419,0,734,0,0,0,74,0,0,0,84,2693,-0.517,3.598,9.388,0.278,0.246,0.058,2.887,-0.833,8.782,-1.729,-0.357,0.376,happy
4.2,2894,2151,3615,3266,293,0,82,0,0,0,0,0,0,0,589,3012,-0.158,3.347,9.708,0.663,0.351,0.305,3.893,-3.4,9.531,-1.68,-0.315,0.329,happy
4.21,2931,2064,3583,3248,144,0,0,0,0,0,0,0,0,0,957,3209,0.35,3.103,10.02,0.951,0.4,0.474,4.492,-2.607,9.184,-1.592,-0.409,0.123,happy
4.22,2982,1713,3526,3241,0,0,0,0,0,0,0,0,0,0,1500,3312,-0.381,5.375,7.989,0.99,0.339,0.373,0.634,-2.16,10.408,-1.635,-0.572,0.112,happy
4.23,3067,1815,3467,3221,0,0,0,0,0,0,0,6,0,0,1724,3400,0.316,3.615,9.553,1.113,0.311,0.49,0.737,-2.387,10.467,-1.673,-0.697,0.168,happy
4.24,3146,1651,3423,3216,0,0,0,0,0,0,0,0,0,0,2013,3469,0.467,3.646,9.857,1.346,0.35,0.556,-5.353,-4.939,19.34,0.076,1.8,1.64,happy
4.25,3235,1510,3361,3239,0,0,0,0,0,0,0,0,0,0,2392,3516,0.943,5.528,10.144,1.413,0.601,0.542,6.244,0.426,10.793,0.155,1.098,-0.075,happy
4.26,3301,987,3297,3245,0,0,0,0,0,0,7,0,0,0,2381,3558,1.025,5.006,9.831,1.34,0.958,0.478,0.017,-3.421,11.466,-0.161,1.253,0.512,happy
4.27,3334,631,3175,3199,0,0,0,0,0,0,0,0,0,0,2503,3597,1.475,4.779,10.305,1.537,1.268,0.452,0.857,-3.273,9.989,-0.079,0.945,0.301,happy
4.28,3341,271,2795,3127,0,0,0,0,0,0,0,0,1,0,2599,3635,1.776,4.755,11.004,1.601,1.746,0.338,-0.821,-1.13,11.557,-0.104,0.747,0.352,happy
4.29,3312,0,2040,3036,0,0,0,0,0,0,10,0,0,0,2675,3667,4.125,2.27,9.44,2.349,2.443,0.144,0.824,-2.109,9.68,-0.073,0.543,0.291,happy
4.3,3235,0,1128,2665,0,0,0,0,0,0,2,0,2,0,2761,3705,3.326,3.57,9.56,2.24,3.349,-0.723,1.688,-3.136,10.072,-0.011,0.398,0.192,happy
4.31,3051,0,113,1872,0,0,0,0,0,0,7,0,51,0,2893,3743,1.073,3,10.769,2.642,4.001,-1.842,1.178,-2.83,9.996,0.012,0.336,0.14,happy
4.32,2612,0,0,765,0,0,0,0,0,0,0,0,51,3,2951,3769,3.529,9.567,9.187,3.016,3.795,-3.13,1.08,-2.466,9.799,0.025,0.265,0.113,happy
4.33,1477,0,0,73,0,0,0,0,0,0,0,0,27,0,3005,3798,2.133,6.088,10.36,1.457,4.062,-3.432,0.967,-2.574,9.886,0.022,0.207,0.086,happy
4.34,153,0,0,0,0,0,0,0,0,0,2,0,40,0,3021,3817,-0.345,9.44,9.505,0.831,3.83,-3.316,1.056,-2.586,9.819,0.038,0.173,0.057,happy
4.35,0,0,0,0,0,0,0,0,0,0,0,17,68,0,3122,3862,6.84,15.11,18.318,0.73,2.672,0.739,0.864,-2.449,10.036,0.047,0.191,0.06,happy
4.36,0,0,0,0,0,0,0,0,0,61,23,107,59,0,3194,3862,11.808,9.548,14.408,-1.254,3.18,1.249,0.819,-2.322,9.955,0.054,0.225,0.076,happy
4.37,0,0,0,0,0,0,0,0,0,103,104,399,63,37,3219,3869,6.993,6.567,7.999,-1.524,3.684,2.039,0.891,-2.337,9.89,0.048,0.232,0.105,happy
4.38,0,0,0,0,0,0,0,0,0,159,227,571,99,1,3292,3876,0.876,5.653,8.32,-1.719,3.447,2.255,0.804,-2.361,9.764,0.031,0.213,0.109,happy
4.39,0,0,0,0,0,0,0,0,0,185,355,699,60,1,3343,3881,-0.529,4.104,7.281,-1.776,2.568,2.265,0.759,-2.32,9.687,0.035,0.212,0.111,happy
4.4,0,0,0,0,0,0,0,0,0,189,212,1049,88,2,3369,3883,0.302,3.634,6.768,-1.644,1.863,2.23,0.733,-2.306,9.787,-0.003,0.194,0.128,happy
4.41,0,0,0,0,0,0,0,0,25,217,1136,1301,70,1,3387,3865,0.467,3.51,6.462,-1.554,1.538,2.125,0.709,-2.344,9.799,-0.026,0.191,0.132,happy
4.42,0,0,0,0,0,0,0,0,3,315,1440,1477,43,1,3388,3864,0.225,3.508,7.628,-1.523,1.163,2.059,0.725,-2.5,9.756,-0.045,0.176,0.131,happy
4.43,0,0,0,0,0,0,0,0,1,403,1456,1509,111,1,3388,3853,0.816,3.263,7.975,-1.585,0.845,2.008,0.795,-2.492,9.562,-0.033,0.151,0.119,happy
4.44,0,0,0,0,0,0,0,0,1,405,1543,1624,119,1,3398,3830,0.898,3.824,9.136,-1.722,0.567,1.946,0.735,-2.401,9.692,-0.051,0.141,0.118,happy
4.45,0,0,0,0,0,0,0,0,0,443,1904,1848,147,0,3389,3801,0.855,3.843,9.033,-1.941,0.314,1.808,0.742,-2.492,9.797,-0.076,0.12,0.118,happy
4.46,0,0,0,0,0,0,0,0,0,505,1945,1901,189,2,3371,3784,0.436,3.869,8.449,-2.101,0.025,1.643,0.675,-2.476,9.874,-0.086,0.105,0.108,happy
4.47,0,0,0,0,0,0,0,0,19,656,1957,1967,179,2,3364,3735,0.412,3.68,8.006,-2.155,-0.302,1.475,0.661,-2.607,9.857,-0.084,0.091,0.089,happy
4.48,0,0,0,0,0,0,0,0,2,851,2247,2185,179,5,3341,3691,1.111,4.101,8.246,-2.182,-0.6,1.396,0.632,-2.521,9.828,-0.074,0.081,0.078,happy
4.49,0,0,0,0,0,0,0,0,2,958,2272,2292,178,11,3319,3689,2.042,4.695,8.669,-2.227,-0.857,1.482,0.723,-2.514,9.778,-0.076,0.078,0.075,happy
4.5,0,0,0,0,0,0,0,0,0,975,2290,2350,213,3,3307,3640,2.222,5.205,9.038,-2.285,-1.017,1.705,0.697,-2.55,9.673,-0.078,0.058,0.069,happy
4.51,0,0,0,0,0,0,0,0,0,1223,2341,2489,287,0,3289,3598,1.848,5.296,9.17,-2.353,-1.09,1.947,0.553,-2.569,9.864,-0.077,0.04,0.061,happy
4.52,0,0,0,0,0,0,0,0,4,1403,2551,2613,420,2,3283,3534,1.109,5.502,9.175,-2.356,-1.223,2.164,0.57,-2.533,9.864,-0.074,0.033,0.052,happy
4.53,0,0,0,0,0,0,0,0,5,1418,2638,2727,510,1,3291,3474,0.888,5.358,9.22,-2.345,-1.269,2.327,0.541,-2.588,9.847,-0.074,0.03,0.043,happy
4.54,0,0,0,0,0,0,0,0,1,1487,2659,2749,579,3,3227,3391,0.134,5.696,10.278,-2.332,-1.3,2.444,0.594,-2.588,9.878,-0.057,0.038,0.038,happy
4.55,0,0,0,0,0,0,0,0,12,1549,2700,2861,681,5,3173,3305,-0.986,6.191,11.102,-2.388,-1.332,2.466,0.69,-2.672,9.728,-0.052,0.038,0.035,happy
4.56,0,0,0,0,0,0,0,0,0,1581,2692,2903,649,11,3087,3199,-2.097,6.876,11.619,-2.443,-1.403,2.361,0.697,-2.665,9.835,-0.053,0.045,0.034,happy
4.57,0,0,0,0,0,0,0,0,37,1594,2695,2987,763,9,2991,3052,-2.181,7.132,11.59,-2.491,-1.51,2.227,0.606,-2.533,9.713,-0.035,0.018,0.028,happy
4.58,0,0,0,0,0,0,0,0,57,1627,2695,3042,821,12,2907,2933,-1.341,7.202,11.274,-2.474,-1.489,2.097,0.481,-2.468,9.876,-0.071,0.026,0.024,happy
4.59,0,0,0,0,0,0,0,0,231,1710,2720,3131,1069,85,2678,2837,-0.895,7.278,11.181,-2.303,-1.359,1.962,0.572,-2.535,9.941,-0.084,0.018,0.024,happy
4.6,0,0,0,0,0,0,0,0,365,1929,2751,3279,1255,47,2603,2660,-1.281,7.807,11.619,-2.201,-1.391,1.852,0.481,-2.555,9.821,-0.091,0,0.015,happy
4.61,0,0,0,0,0,0,0,0,627,2063,2802,3324,1294,47,2588,2510,-1.616,6.673,9.692,-1.89,-1.31,1.694,0.56,-2.521,9.881,-0.1,0.008,0.016,happy
4.62,0,0,0,0,0,0,0,0,813,2290,2843,3399,1547,49,2510,2235,-2.866,8.612,13.415,-1.369,-2.014,1.603,0.749,-2.686,9.761,-0.076,0.002,0.012,happy
4.63,0,0,0,0,0,0,0,0,1290,2427,2930,3497,1772,47,2313,1907,-0.342,10.29,13.161,-1.709,-1.848,1.625,0.795,-2.753,9.62,-0.125,-0.018,0.011,happy
4.64,0,0,0,0,0,0,0,0,1452,2522,3002,3546,1831,49,2197,1613,-1.887,9.704,7.113,-1.439,-1.341,1.675,0.558,-2.77,9.883,-0.123,-0.044,0.003,happy
4.65,0,0,0,0,0,0,0,0,1661,2543,3022,3692,1896,47,1939,491,-2.679,10.937,4.204,-0.812,-1.682,1.426,0.615,-2.753,9.704,-0.144,-0.018,-0.001,happy
4.66,0,0,0,0,0,0,0,0,1967,2642,3058,3753,1804,12,1459,23,-3.706,12.591,1.41,-0.258,-1.579,1.036,0.599,-2.914,9.732,-0.125,-0.019,0.008,happy
4.67,0,0,0,0,0,0,0,0,2183,2676,3068,3767,1782,13,1271,26,-2.128,13.633,-0.247,0.571,-0.974,0.798,0.788,-2.564,9.491,-0.131,-0.004,0.008,happy
4.68,0,0,0,0,0,0,0,0,2367,2776,3084,3837,1455,11,535,23,-1.688,13.733,1.29,1.077,0.244,0.793,0.871,-3.029,9.732,-0.156,0.007,-0.003,happy
4.69,0,0,0,0,0,0,0,0,2463,2775,3091,3855,1221,16,574,44,11.277,-0.182,3.407,0.951,4.765,0.927,0.668,-3.436,9.407,-0.211,0.001,0.006,happy
4.7,0,0,0,0,0,0,249,139,2584,2745,3104,3883,763,17,421,39,-5.789,-1.106,14.291,0.981,2.621,2.283,0.357,-1.745,9.986,-0.657,0.087,-0.115,happy
4.71,0,0,0,0,0,0,780,1973,2735,2758,3124,3914,109,3,172,0,-19.613,-4.247,13.317,1.911,2.557,-0.258,0.965,-2.423,9.649,-0.597,-0.097,-0.015,happy
4.72,0,0,0,0,0,0,768,2979,2888,2701,3127,3921,55,1,100,4,-12.445,0.685,11.511,2.236,1.324,-1.119,1.006,-3.299,9.392,-0.903,-0.322,-0.181,happy
4.73,0,0,0,0,0,0,1109,3350,3087,2537,3124,3961,40,1,0,0,4.436,5.322,11.674,2.402,0.07,-0.405,1.607,-2.461,9.874,-1.088,-0.625,-0.371,happy
4.74,0,0,0,0,0,0,1978,3487,3179,2360,3127,3839,0,0,0,0,-0.182,7.14,14.284,1.609,-0.177,-0.228,1.101,-2.471,9.419,-1.717,-0.216,-0.491,happy
4.75,0,0,0,0,0,0,2511,3525,3158,2204,3130,3722,0,0,0,0,4.812,5.607,10.341,1.05,0.023,-0.075,2.057,-3,9.876,-1.999,0.013,-0.53,happy
4.76,0,0,0,0,0,0,2736,3549,3096,1996,3081,3790,0,0,0,0,2.009,2.693,10.518,0.876,0.091,-0.014,1.499,-3.519,8.878,-2.316,0.352,-0.613,happy
4.77,0,0,0,0,240,0,2888,3580,3020,1807,3101,3741,0,0,0,0,2.605,8.083,12.342,0.305,0.529,-0.147,2.394,-4.01,10.594,-2.657,0.578,-0.549,happy
4.78,18,0,0,0,880,0,3066,3643,2743,1391,3037,3305,21,0,0,0,0.591,4.027,9.981,0.327,0.92,-0.408,0.077,-1.697,12.802,-3.942,0.747,0.065,happy
4.79,155,0,0,0,1085,0,3216,3718,1752,267,1870,1726,0,0,8,0,-1.903,4.144,12.598,0.277,0.597,-0.286,0.316,-5.16,18.902,-5.787,-0.476,1.242,happy
4.8,363,173,80,0,1211,0,3296,3753,943,63,2,712,0,0,0,0,-0.141,3.831,10.463,0.294,0.119,-0.124,0.419,-9.62,17.095,-6.617,-1.11,1.852,happy
4.81,580,395,1213,0,1501,0,3408,3797,89,0,0,0,0,0,0,0,0.177,3.685,10.077,0.31,-0.056,-0.005,0.448,-10.628,10.901,-7.313,-1.755,2.166,happy
4.82,690,1048,2130,178,1968,0,3467,3798,0,0,0,0,0,0,24,7,0.527,3.812,9.584,0.278,-0.108,0.051,6.388,-7.93,10.29,-3.651,-1.253,2.817,happy
4.83,661,1415,2559,317,2134,0,3542,3782,0,0,0,0,0,23,0,0,0.347,3.347,9.562,0.196,-0.044,0.004,1.499,-2.495,16.482,-1.118,-0.203,3.217,happy
4.84,656,1655,2763,533,2303,0,3581,3755,0,0,0,27,0,0,0,0,0.11,3.579,9.577,0.11,-0.052,0.029,4.283,-0.508,11.322,0.981,-0.695,1.768,happy
4.85,576,1739,2849,581,2417,0,3600,3743,0,0,0,0,0,0,0,0,0.134,3.314,9.486,0.106,-0.056,0.029,4.049,-0.113,8.27,1.658,-0.403,1.537,happy
4.86,551,1859,2932,668,2497,0,3614,3707,0,0,0,4,0,0,0,0,0.225,3.22,9.239,0.13,-0.044,0.014,4.044,-0.654,6.744,1.913,-0.251,1.192,happy
4.87,688,2036,3039,818,2526,0,3619,3659,0,0,0,0,0,0,0,0,0.254,3.323,9.335,0.181,-0.019,-0.015,4.008,-1.226,6.795,2.284,-0.196,0.853,happy
4.88,688,2149,3147,1089,2601,3,3619,3630,0,0,0,0,0,11,45,0,0.292,3.474,9.44,0.195,-0.006,-0.028,3.797,-2.325,8.114,2.676,-0.256,0.51,happy
4.89,695,2288,3275,1463,2753,0,3622,3540,11,0,10,0,0,0,0,0,0.316,3.419,9.347,0.175,-0.01,-0.027,4.003,-4.537,7.831,3.605,-0.182,-0.218,happy
4.9,854,2398,3378,1821,2863,51,3603,3453,0,0,0,0,0,0,3,0,0.381,3.531,9.313,0.166,0.01,-0.014,3.474,-4.729,6.254,3.766,-0.035,-0.487,happy
4.91,1058,2517,3455,2139,2978,49,3578,3334,0,0,0,0,0,0,0,0,0.448,3.488,9.369,0.165,0.007,-0.011,2.468,-5.861,6.124,3.594,-0.149,-0.783,happy
4.92,1168,2619,3521,2335,3088,0,3536,3182,0,0,0,0,0,0,0,0,0.448,3.551,9.328,0.177,0.009,-0.025,2.892,-8.04,8.732,3.579,-0.469,-0.993,happy
4.93,1322,2742,3579,2448,3164,0,3455,2938,0,0,0,0,0,0,0,0,0.311,3.577,9.433,0.174,0.029,-0.027,2.801,-8.78,9.12,3.583,-0.544,-1.143,happy
4.94,1505,2821,3637,2607,3221,0,3330,2545,0,0,0,0,0,0,0,0,0.306,3.687,9.385,0.151,0.035,-0.014,3.481,-8.756,8.394,3.342,-0.549,-1.505,happy
4.95,1695,2906,3680,2714,3279,0,3155,1793,21,0,0,0,0,0,0,0,0.395,3.742,9.397,0.135,0.047,-0.015,3.45,-8.248,9.275,3.06,-0.51,-1.886,happy
4.96,1854,2976,3727,2841,3323,0,2945,1409,0,0,79,0,0,0,0,2,0.345,3.701,9.239,0.127,0.059,-0.022,2.95,-8.104,9.345,2.95,-0.551,-1.929,happy
4.97,1940,3034,3760,2941,3351,0,2813,436,0,0,0,0,2,0,0,0,0.347,3.613,9.373,0.137,0.078,-0.027,2.354,-7.736,10.089,2.592,-0.87,-1.789,happy
4.98,2067,3117,3790,2987,3351,0,2717,0,0,0,33,0,0,0,0,0,0.441,3.725,9.39,0.144,0.079,-0.03,2.38,-8.215,11.729,2.537,-1.137,-1.599,happy
4.99,2147,3155,3815,3041,3355,0,2609,0,0,0,0,0,0,0,0,0,0.251,3.807,9.299,0.135,0.077,-0.031,1.657,-7.614,10.724,2.444,-1.246,-1.508,happy
5,2212,3195,3827,3067,3344,0,2530,0,0,0,0,0,0,0,0,0,0.364,3.838,9.258,0.135,0.069,-0.029,0.886,-7.017,9.68,2.212,-1.365,-1.342,happy
5.01,2266,3232,3834,3131,3326,0,2447,0,0,0,0,0,0,0,0,0,0.294,3.768,9.306,0.137,0.069,-0.032,-0.01,-7.195,10.719,1.971,-1.643,-1.155,happy
5.02,2310,3277,3850,3134,3322,0,2281,0,0,0,0,0,0,0,0,19,0.28,3.814,9.251,0.135,0.072,-0.024,-0.62,-7.827,12.823,1.898,-2,-0.943,happy
5.03,2351,3342,3863,3179,3270,0,1891,0,3,0,0,0,0,0,0,0,0.33,3.821,9.342,0.15,0.067,-0.018,-0.51,-8.835,13.637,1.982,-2.348,-0.796,happy
5.04,2406,3376,3872,3201,3174,0,1751,0,0,0,0,0,0,0,0,20,0.247,3.752,9.251,0.17,0.063,-0.016,-0.141,-9.278,12.189,2.047,-2.377,-0.604,happy
5.05,2485,3454,3890,3248,2989,0,1474,0,0,0,0,0,0,11,0,0,0.316,3.819,9.28,0.177,0.066,-0.012,0.077,-10.767,10.343,2.066,-2.075,-0.172,happy
5.06,2556,3517,3908,3280,2863,0,1115,0,0,0,0,0,0,0,0,0,0.469,3.721,9.388,0.188,0.09,-0.022,0.608,-10.934,5.861,1.683,-1.31,-0.447,happy
5.07,2623,3555,3923,3329,2776,0,832,0,0,0,0,0,0,0,0,0,0.227,3.974,9.287,0.177,0.069,-0.063,-0.347,-10.594,3.225,1.108,-0.925,-0.658,happy
5.08,2680,3583,3934,3311,2704,0,816,0,0,0,0,0,0,0,0,0,0.46,3.833,9.21,0.21,0.069,-0.058,-2.389,-12.414,1.97,0.555,-0.769,-0.642,happy
5.09,2751,3629,3935,3321,2665,0,642,0,0,0,0,0,3,0,0,0,0.342,3.749,9.39,0.239,0.066,-0.048,-3.199,-12.572,0.816,-0.044,-0.729,-0.508,happy
5.1,2827,3664,3945,3333,2555,0,696,0,0,0,0,0,0,0,0,0,0.46,3.771,9.258,0.421,0.09,0.045,-1.453,-7.999,2.638,-0.492,-0.665,-0.536,happy
5.11,2887,3686,3951,3350,2448,0,617,0,0,0,7,0,0,0,0,0,0.441,3.709,9.282,0.517,0.075,0.077,4.401,-4.245,-4.005,-1.13,3.682,-0.482,happy
5.12,2939,3708,3958,3360,2295,0,650,0,13,9,0,0,0,0,73,0,0.345,3.898,9.203,0.607,0.116,0.125,-1.199,-2.648,18.364,-0.016,3.759,-0.531,happy
5.13,2992,3722,3969,3372,2172,0,495,0,0,0,12,0,0,0,173,0,0.373,3.924,9.088,0.669,0.14,0.169,0.139,3.242,13.391,-1.383,2.424,-0.943,happy
5.14,3055,3728,3977,3383,2000,0,272,0,0,0,0,0,0,30,409,143,0.309,4.077,9.34,0.764,0.174,0.22,-11.219,8.042,9.653,-2.665,1.231,-0.03,happy
5.15,3159,3683,3966,3382,1706,0,70,0,0,0,7,0,0,0,455,775,0.776,3.926,9.146,1.091,0.242,0.312,-14.392,-0.828,12.594,-2.692,1.419,1.332,happy
5.16,3244,3550,3942,3361,1170,0,0,0,0,0,0,0,9,0,794,2785,0.194,4.173,9.206,1.58,0.323,0.443,5.942,-0.426,5.346,-2.401,0.429,0.95,happy
5.17,3290,3440,3938,3327,917,0,0,0,0,0,0,0,0,0,1225,3189,0.11,4.005,9.34,1.849,0.498,0.496,2.1,-4.434,11.305,-2.575,0.112,0.764,happy
5.18,3316,3311,3920,3237,373,0,0,0,0,0,5,0,0,0,1727,3348,-0.287,4.949,8.495,2.085,0.426,0.479,19.613,-1.968,19.613,-2.8,-0.034,0.622,happy
5.19,3337,3045,3864,2804,0,0,0,0,3,0,5,0,0,0,2351,3511,0.421,4.721,8.823,2.387,0.527,0.567,-3.536,3.587,12.273,-0.153,1.707,0.636,happy
5.2,3301,2848,3811,2469,0,0,0,0,0,0,10,0,0,0,2445,3497,0.01,4.7,9.503,2.688,0.378,0.642,0.22,-3.428,13.618,-0.122,1.054,0.249,happy
5.21,3225,2491,3712,2123,0,0,0,0,0,0,2,0,4,0,2543,3593,0.704,5.665,9.603,3.141,-0.015,0.573,0.958,-4.08,12.254,-0.059,0.598,0.143,happy
5.22,3053,2153,3467,1680,0,0,0,0,0,0,2,0,43,0,2635,3611,-0.543,5.32,13.278,3.607,-0.582,0.325,1.049,-2.059,10.432,-0.018,0.45,0.142,happy
5.23,1929,1649,2773,300,0,0,0,0,0,141,2,1,10,0,2795,3653,-1.125,5.799,15.208,6.171,-3.035,-0.42,1.104,-2.749,10.197,-0.012,0.447,0.193,happy
5.24,1330,357,656,0,0,0,0,0,0,548,12,0,75,0,3038,3718,-0.778,11.133,14.494,7.402,-3.04,-1.113,1.142,-2.174,9.778,0.03,0.343,0.116,happy
5.25,1014,0,65,0,0,0,0,0,0,751,12,0,77,1,3097,3738,0.522,12.38,11.82,7.12,-3.472,-0.98,1.056,-2.308,9.878,0.01,0.249,0.075,happy
5.26,245,0,0,0,0,0,0,0,3,1031,197,35,137,1,3151,3759,0.366,12.194,11.102,6.161,-4.02,-1.136,1.025,-2.394,9.603,0.009,0.114,0.044,happy
5.27,0,0,0,0,0,0,0,0,5,1183,227,232,303,5,3275,3771,4.398,6.859,12.328,3.757,-2.069,-2.359,1.044,-1.992,9.965,-0.01,0.124,0.074,happy
5.28,0,0,0,0,0,0,0,0,6,1229,1732,463,475,6,3345,3783,1.094,19.613,19.613,0.421,-0.519,-2.204,1.381,-2.298,9.426,-0.035,0.133,0.079,happy
5.29,0,0,0,0,0,0,0,0,5,1560,2285,621,859,5,3420,3784,2.258,-1.312,16.479,-0.497,-0.686,-1.63,0.996,-2.342,9.787,-0.011,0.132,0.093,happy
5.3,0,0,0,0,0,0,0,0,7,1708,2372,1107,1065,6,3487,3771,2.236,1.997,10.13,-1.27,0.049,-2.168,0.977,-2.447,9.948,-0.013,0.115,0.095,happy
5.31,0,0,0,0,0,0,0,0,20,1742,2349,1275,1287,7,3549,3753,1.504,2.186,12.649,-1.963,-0.02,-2.154,1.123,-2.456,9.754,-0.05,0.111,0.109,happy
5.32,0,0,0,0,0,0,0,0,25,1886,2531,1540,1565,5,3609,3672,2.392,0.373,6.974,-2.692,0.112,-2.084,1.001,-2.363,9.57,-0.048,0.123,0.11,happy
5.33,0,0,0,0,0,0,0,0,0,1932,2541,1741,1656,7,3625,3619,3.122,1.243,5.751,-2.767,0.251,-2.006,0.996,-2.665,9.855,-0.078,0.111,0.086,happy
5.34,0,0,0,0,0,0,0,0,4,2087,2605,1845,1755,6,3621,3535,3.905,2.576,7.489,-2.988,0.318,-1.783,1.341,-3.017,9.886,-0.069,0.111,0.103,happy
5.35,0,0,0,0,0,0,0,0,9,2181,2684,2132,1896,10,3605,3436,4.374,3.448,7.8,-3.327,0.307,-1.461,1.094,-2.483,9.874,-0.106,0.102,0.132,happy
5.36,0,0,0,0,0,0,0,0,6,2248,2728,2349,2027,7,3579,3324,4.298,3.847,7.017,-3.584,0.189,-1.066,1.025,-2.921,9.838,-0.119,0.072,0.093,happy
5.37,0,0,0,0,0,0,0,0,5,2361,2659,2459,2095,0,3588,3207,4.477,4.7,6.421,-3.647,0.014,-0.63,1.046,-2.634,9.826,-0.097,0.059,0.108,happy
5.38,0,0,0,0,0,0,0,0,5,2483,2807,2654,2180,6,3609,3091,5.239,6.359,7.08,-3.676,-0.104,-0.159,1.027,-2.543,9.831,-0.072,0.026,0.068,happy
5.39,0,0,0,0,0,0,0,0,3,2582,2776,2715,2277,3,3445,3003,6.167,7.379,7.669,-3.744,-0.064,0.458,0.946,-2.337,9.867,-0.096,0.031,0.087,happy
5.4,0,0,0,0,0,0,0,0,0,2623,2820,2729,2335,22,3436,2956,5.66,8.107,7.884,-3.8,0,1.107,0.9,-2.397,9.85,-0.096,0.032,0.088,happy
5.41,0,0,0,0,0,0,0,0,0,2667,2853,2857,2463,3,3385,2847,4.077,8.428,7.702,-3.788,-0.03,1.64,0.891,-2.449,9.867,-0.109,0.034,0.1,happy
5.42,0,0,0,0,0,0,0,0,0,2694,2879,2895,2558,3,3323,2775,3.007,8.904,7.549,-3.704,-0.112,1.959,0.958,-2.6,9.809,-0.091,0.037,0.094,happy
5.43,0,0,0,0,0,0,0,0,2,2769,2869,3018,2613,2,3190,2697,2.638,9.165,8.188,-3.572,-0.128,2.117,1.089,-2.703,10.06,-0.089,0.019,0.079,happy
5.44,0,0,0,0,0,0,0,0,2,2782,2894,3055,2681,43,3031,2613,2.763,9.594,8.88,-3.537,-0.011,2.198,0.682,-2.452,9.811,-0.071,0.012,0.063,happy
5.45,0,0,0,0,0,0,0,0,1,2804,2930,3145,2733,0,2927,2517,2.653,9.424,8.921,-3.487,0.062,2.219,0.785,-2.485,10.166,-0.053,0.009,0.059,happy
5.46,0,0,0,0,0,0,0,0,3,2911,2966,3087,2777,2,2847,2379,2.667,9.239,9.148,-3.401,0.048,2.223,0.946,-2.605,9.651,-0.089,0.037,0.062,happy
5.47,0,0,0,0,0,0,0,0,2,2899,2986,3160,2827,3,2827,2239,3.043,9.498,9.529,-3.282,-0.069,2.211,0.97,-2.545,9.519,-0.086,0.04,0.052,happy
5.48,0,0,0,0,0,0,0,0,2,2905,2927,3217,2845,5,2835,2014,3.496,10.07,10.755,-3.18,-0.234,2.235,1.082,-2.816,9.51,-0.077,0.036,0.042,happy
5.49,0,0,0,0,0,0,0,0,1,2952,2999,3246,2867,3,2741,1821,3.891,10.575,10.963,-3.154,-0.327,2.298,0.917,-2.631,9.78,-0.111,0.046,0.026,happy
5.5,0,0,0,0,0,0,0,0,7,3022,2991,3311,2891,6,2735,1597,3.716,10.048,10.065,-3.059,-0.334,2.329,0.826,-2.66,9.658,-0.112,0.029,0.027,happy
5.51,0,0,0,0,0,0,0,0,46,3076,3012,3309,2941,12,2597,1213,2.887,9.586,9.538,-2.853,-0.286,2.24,0.881,-2.725,9.704,-0.119,0.07,0.016,happy
5.52,0,0,0,0,0,0,0,0,53,3089,3094,3353,2897,17,2445,879,1.784,8.756,8.93,-2.577,-0.244,2.033,0.9,-2.708,9.732,-0.135,0.024,0.022,happy
5.53,0,0,0,0,0,0,0,0,99,3093,3027,3369,2895,27,2397,637,0.627,7.793,8.588,-2.166,-0.275,1.697,0.771,-2.703,9.855,-0.169,0.072,0.013,happy
5.54,0,0,0,0,0,0,0,0,221,3109,3043,3451,2907,39,2312,368,-0.242,7.597,9.608,-1.654,-0.628,1.337,0.991,-2.784,9.455,-0.152,0.043,0.013,happy
5.55,0,0,0,0,0,0,0,0,377,3219,3061,3487,2855,31,2163,149,0.912,13.834,18.043,-1.475,-1.752,0.837,1.003,-2.67,9.589,-0.175,0.078,0.007,happy
5.56,0,0,0,0,0,0,0,0,552,3173,3084,3517,2649,25,1862,151,-2.715,10.065,8.533,-2.492,-1.54,1.017,0.735,-3.074,9.534,-0.125,0.063,0.029,happy
5.57,0,0,0,0,0,0,0,0,815,3348,3101,3623,2469,41,1351,153,-6.486,13.865,-0.259,-1.395,-1.193,0.489,0.939,-2.483,9.345,-0.003,-0.025,0.069,happy
5.58,0,0,0,0,0,0,0,0,1059,3415,3127,3609,2469,27,812,73,-9.074,18.019,-1.032,-0.539,-0.411,-0.638,0.862,-2.502,9.538,-0.038,-0.035,0.08,happy
5.59,0,0,0,0,0,0,0,0,1287,3527,3140,3627,2096,6,325,23,3.761,14.902,-9.989,2.138,0.997,-0.285,0.649,-2.09,9.907,-0.573,0.079,-0.124,happy
5.6,0,0,0,0,0,0,0,64,1513,3558,3224,3658,1867,0,551,0,-0.503,-1.058,2.215,1.316,4.63,-1.141,1.089,-2.758,9.301,-0.547,0.062,-0.084,happy
5.61,0,0,0,0,0,0,379,1653,1717,3641,3160,3667,1553,3,361,0,-6.831,-6.761,19.613,1.735,2.366,0.217,1.061,-3.44,9.625,-0.396,0.042,-0.115,happy
5.62,0,0,0,0,0,0,304,2992,1877,3674,3176,3671,683,4,115,0,-15.713,-1.652,-0.048,4.123,0.386,-0.537,1.027,-2.586,9.586,-0.518,-0.035,-0.155,happy
5.63,0,0,0,0,0,0,1092,3329,2067,3682,3176,3663,271,1,136,0,3.922,11.593,16.218,3.014,0.29,-0.343,1.389,-2.543,9.601,-0.726,-0.127,-0.149,happy
5.64,0,0,0,0,0,0,2152,3409,2012,3623,3171,3631,268,3,110,0,-2.82,5.162,11.159,2.665,-0.035,0.043,1.616,-3.091,9.361,-1.045,-0.523,-0.269,happy
5.65,510,79,0,0,1051,0,2629,3351,2005,3385,3183,3548,675,3,93,0,3.474,0.177,4.81,0.241,0.97,-0.422,2.241,-1.724,9.488,-2.666,0.232,-0.396,happy
5.66,999,528,1191,7,1075,0,2804,3393,1800,3198,3191,3479,731,0,13,0,2.497,5.835,10.851,0.605,0.39,-0.256,1.097,-3.184,9.972,-3.311,0.317,-0.395,happy
5.67,1183,861,2333,803,1255,0,2926,3495,1085,2427,3173,3095,637,0,0,0,0.249,3.996,9.615,0.317,0.106,-0.166,1.053,-3.426,11.176,-4.575,0.294,-0.404,happy
5.68,1363,1377,2741,1535,1535,0,3067,3552,653,1115,1947,1469,275,0,0,0,-0.316,3.673,9.199,0.113,0.022,-0.032,0.184,-1.408,13.985,-6.042,-0.387,0.242,happy
5.69,1499,1642,2933,1949,1601,0,3154,3578,461,742,0,383,0,0,0,0,0.352,3.699,9.761,0.03,0.089,0.037,-0.053,-8.373,17.614,-7.16,-1.48,0.799,happy
5.7,1593,1881,3094,2138,1911,0,3214,3583,0,105,2,0,0,0,0,0,0.151,3.745,9.299,0.044,-0.017,0.04,1.817,-15.953,10.06,-8.073,-3.152,1.495,happy
5.71,1717,2076,3237,2330,2160,0,3290,3577,0,0,0,0,0,0,53,0,0.101,4.123,9.941,0.118,-0.004,0.021,6.457,-11.25,11.787,-3.697,-1.654,3.143,happy
5.72,1833,2185,3331,2471,2227,0,3351,3568,0,0,12,0,0,0,0,0,0.103,3.448,9.347,0.1,-0.001,0.001,7.678,-2.775,16.084,-0.525,-0.011,3.935,happy
5.73,1904,2277,3389,2559,2318,0,3376,3534,0,23,0,0,0,0,0,0,0.29,3.685,9.519,0.044,0.065,0.003,1.609,-0.431,12.881,1.026,-1.342,1.887,happy
5.74,1961,2361,3455,2659,2416,0,3373,3467,0,0,0,0,0,0,0,0,0.06,3.627,9.392,0.096,-0.01,0.02,3.421,-0.441,7.453,2.149,-0.612,1.953,happy
5.75,1995,2418,3485,2734,2451,0,3357,3426,0,0,0,0,3,0,0,0,0.189,3.915,9.471,0.079,0.009,0.013,4.53,-0.141,7.46,2.413,-0.361,1.64,happy
5.76,2006,2471,3521,2775,2545,0,3328,3370,0,0,0,0,0,0,0,0,0.261,3.74,9.419,0.076,0.024,-0.002,5.631,-1.322,8.138,2.847,-0.093,1.186,happy
5.77,2097,2519,3539,2800,2605,0,3309,3312,0,0,0,0,0,0,0,0,0.189,3.656,9.333,0.082,0.022,-0.009,6.12,-2.507,7.843,3.32,0.279,0.658,happy
5.78,2126,2559,3568,2863,2668,0,3258,3228,0,0,0,0,0,0,0,0,0.215,3.651,9.306,0.08,0.015,-0.008,5.1,-3.139,7.645,3.75,0.441,0.21,happy
5.79,2160,2634,3583,2896,2715,0,3222,3163,0,0,0,0,0,0,0,0,0.192,3.63,9.292,0.083,0.009,-0.006,4.044,-3.946,7.745,3.969,0.208,-0.176,happy
5.8,2173,2678,3607,2919,2765,0,3207,3093,0,0,0,0,0,5,0,0,0.227,3.644,9.316,0.104,0.007,-0.016,3.213,-4.752,7.046,4.121,-0.144,-0.452,happy
5.81,2203,2732,3642,2993,2816,0,3101,2950,0,2,15,0,17,0,0,0,0.297,3.761,9.266,0.108,0.013,-0.017,3.196,-5.15,6.393,4.109,-0.427,-0.611,happy
5.82,2258,2791,3669,3044,2845,0,2987,2789,0,0,0,0,0,0,0,0,0.22,3.67,9.282,0.113,0.03,-0.018,3.658,-7.278,9.38,4.061,-0.601,-0.85,happy
5.83,2294,2854,3711,3071,2882,0,2826,2581,0,0,0,0,0,0,0,0,0.208,3.694,9.352,0.112,0.03,-0.014,3.955,-8.499,9.639,4.061,-0.884,-1.361,happy
5.84,2367,2911,3735,3155,2947,0,2641,2240,0,0,0,0,0,0,0,0,0.206,3.694,9.349,0.105,0.051,-0.019,4.561,-8.289,9.337,3.932,-0.84,-1.689,happy
5.85,2469,2962,3760,3207,2903,0,2419,1757,0,0,0,0,0,0,0,0,0.199,3.74,9.342,0.116,0.041,-0.012,3.189,-8.416,11.04,3.749,-0.794,-2.206,happy
5.86,2544,3017,3791,3255,2921,0,2176,1061,0,0,0,0,0,0,0,0,0.098,3.761,9.27,0.114,0.037,-0.002,0.924,-7.896,11.198,3.461,-1.058,-1.992,happy
5.87,2608,3093,3811,3299,2896,0,1999,95,0,0,0,0,0,0,0,0,0.232,3.821,9.292,0.115,0.039,-0.006,0.177,-8.116,13.159,3.323,-1.321,-1.68,happy
5.88,2674,3118,3826,3323,2874,0,1853,0,0,0,0,0,12,0,0,0,0.165,3.778,9.218,0.126,0.039,0.005,-0.651,-8.993,15.177,3.352,-1.66,-1.324,happy
5.89,2734,3147,3831,3347,2803,0,1803,0,0,0,0,0,0,0,0,0,0.201,3.776,9.215,0.128,0.053,-0.001,-1.264,-9.213,15.052,3.345,-2.049,-0.988,happy
5.9,2767,3183,3839,3364,2757,0,1648,0,0,43,0,0,0,0,0,0,0.194,3.749,9.206,0.143,0.063,-0.001,-2.047,-10.036,14.973,3.282,-2.502,-0.633,happy
5.91,2806,3227,3865,3405,2529,0,1317,0,0,0,0,0,0,0,0,0,0.093,3.888,9.21,0.157,0.076,-0.001,-0.828,-13.228,14.171,3.128,-2.786,-0.204,happy
5.92,2883,3293,3889,3475,2534,0,914,0,0,0,0,0,0,0,0,0,0.136,3.926,9.225,0.161,0.09,-0.005,-0.903,-13.973,9.029,2.729,-1.846,-0.172,happy
5.93,2934,3344,3895,3441,2491,0,656,0,0,0,0,0,0,0,0,0,0.189,3.764,9.189,0.171,0.098,-0.003,-0.187,-15.024,6.189,2.212,-1.457,-0.429,happy
5.94,2999,3379,3913,3456,2417,0,331,0,0,0,7,0,0,0,0,0,0.23,3.802,9.301,0.207,0.09,0.001,0.208,-14.928,1.973,1.599,-0.824,-0.735,happy
5.95,3043,3421,3911,3493,2222,0,217,0,0,0,0,0,0,0,0,0,0.464,4.029,9.515,0.181,0.081,-0.041,-4.022,-15.502,-0.244,0.842,-0.714,-0.79,happy
5.96,3070,3459,3933,3486,1969,0,106,0,0,0,0,0,0,0,0,0,0.204,3.129,9.333,0.415,0.164,0.064,-4.104,-16.223,-1.686,-0.077,-0.752,-0.765,happy
5.97,3134,3491,3951,3511,1909,0,0,0,0,0,0,0,0,0,0,1,0.496,3.79,9.34,0.501,0.184,0.093,-3.227,-16.451,0.146,-0.78,-0.282,-0.647,happy
5.98,3204,3514,3951,3533,1833,0,0,0,0,0,10,0,0,0,0,0,0.134,4.003,9.17,0.587,0.167,0.138,2.363,5.959,4.53,-3.279,0.317,-1.613,happy
5.99,3254,3524,3955,3536,1695,0,0,0,0,0,0,0,0,23,0,0,0.165,3.946,9.263,0.657,0.188,0.168,6.39,-0.462,17.317,-0.6,3.356,-0.422,happy
6,3341,3536,3958,3543,1509,0,0,0,0,0,0,0,0,0,248,0,0.326,4.245,9.17,0.728,0.183,0.203,1.154,9.029,13.513,-1.682,1.21,-1.157,happy
6.01,3434,3540,3965,3543,1395,0,0,0,0,0,0,0,0,0,197,0,0.168,4.307,9.12,0.808,0.181,0.242,-3.256,3.663,7.25,-2.368,1.033,-0.331,happy
6.02,3483,3484,3972,3569,1328,0,0,0,0,0,0,0,7,0,415,296,2.222,4.463,11.109,-0.005,0.123,0.203,-6.565,-0.158,14.602,-2.806,1.027,0.569,happy
6.03,3583,3277,3959,3543,528,0,0,0,0,0,0,10,0,0,445,1397,0.73,3.766,9.311,1.396,0.214,0.428,-3.318,-2.27,11.861,-2.574,1.069,0.858,happy
6.04,3629,2929,3952,3543,65,0,0,0,0,5,0,0,0,0,344,2450,0.189,4.168,8.54,1.709,0.299,0.536,-1.082,0.043,8.952,-2.548,1.074,1.118,happy
6.05,3659,2633,3934,3515,0,0,0,0,0,0,0,0,0,0,373,2995,0.165,4.243,8.401,1.883,0.336,0.537,1.724,-1.551,8.83,-2.661,0.266,1.174,happy
6.06,3667,2443,3909,3459,0,0,0,0,0,0,0,0,8,0,853,3219,0.074,4.453,8.916,2.127,0.562,0.572,2.181,-5.052,10.489,-2.74,-0.38,0.707,happy
6.07,3664,2408,3872,3426,0,0,0,0,0,0,0,0,0,0,1397,3347,-0.086,4.336,7.946,2.285,0.654,0.611,2.605,-4.997,13.47,-2.591,-0.952,0.6,happy
6.08,3630,2351,3840,3281,0,0,0,0,0,0,0,0,0,0,2072,3438,0.005,5.258,8.464,2.458,0.645,0.628,-3.261,-4.875,14.722,-1.896,1.768,0.745,happy
6.09,3525,2321,3799,2773,0,0,0,0,0,0,0,0,0,5,2335,3507,0.366,5.806,9.522,2.589,0.54,0.649,4.372,-2.5,9.39,-0.029,1.444,0.03,happy
6.1,3390,2213,3717,2448,0,0,0,0,0,184,2,0,0,0,2423,3542,-0.56,5.071,11.712,2.931,0.211,0.64,1.331,-3.481,12.117,-0.15,1.363,0.445,happy
6.11,2845,1887,3262,1745,0,0,0,0,0,551,7,0,20,0,2724,3613,-3.251,5.272,15.526,4.252,-0.912,0.412,1.197,-2.497,10.786,-0.025,0.639,0.143,happy
6.12,1829,779,2303,331,0,0,0,0,0,1045,7,10,202,0,2999,3675,-2.828,10.635,15.208,6.138,-2.281,-0.665,1.776,-2.995,10.613,-0.002,0.552,0.139,happy
6.13,962,0,205,0,0,0,0,0,0,1148,2,0,163,0,3109,3702,-3.29,9.017,13.194,7.496,-2.747,-1.361,1.604,-2.459,10.12,0.031,0.414,0.08,happy
6.14,575,0,0,0,0,0,0,0,0,1319,12,0,303,2,3209,3723,1.887,11.562,5.325,6.78,-3.131,-1.163,1.365,-2.423,10.585,0.039,0.31,0.059,happy
6.15,0,0,0,0,0,0,0,0,0,1421,458,0,557,1,3289,3719,3.01,8.607,10.805,4.764,-1.887,-1.644,1.609,-2.579,9.637,0.034,0.141,0.025,happy
6.16,0,0,0,0,0,0,0,0,1,1630,790,0,911,1,3381,3771,4.175,8.495,19.613,1.865,-0.209,-2.508,1.58,-2.255,9.859,-0.003,0.059,0.004,happy
6.17,0,0,0,0,0,0,0,0,0,1805,1251,0,1233,0,3488,3763,-2.035,3.144,19.613,-0.731,-0.35,-1.795,1.544,-2.454,9.996,0.006,0.109,-0.002,happy
6.18,0,0,0,0,0,0,0,0,0,1935,1607,0,1541,0,3563,3749,2.346,1.776,10.379,-1.402,-0.505,-2.117,1.487,-2.315,10.116,0.028,0.031,0.002,happy
6.19,0,0,0,0,0,0,0,0,0,1973,1776,1,1693,3,3631,3731,1.336,0.105,9.874,-1.727,-0.479,-2.234,1.654,-2.447,9.962,0.023,-0.003,0.006,happy
6.2,0,0,0,0,0,0,0,0,0,2005,2019,5,1912,0,3681,3693,3.179,1.41,8.971,-2.016,-0.426,-2.145,1.451,-2.167,9.749,-0.024,0.006,0.023,happy
6.21,0,0,0,0,0,0,0,0,0,2111,2116,27,2107,0,3592,3625,4.029,2.004,9.036,-2.449,-0.264,-1.939,1.408,-2.006,9.658,-0.065,0.033,0.061,happy
6.22,0,0,0,0,0,0,0,0,2,2188,2444,198,2259,2,3733,3515,4.781,2.514,7.942,-2.878,-0.092,-1.611,1.506,-2.346,9.929,-0.113,0.015,0.084,happy
6.23,0,0,0,0,0,0,0,0,1,2339,2572,293,2333,3,3740,3351,4.942,2.607,6.819,-3.161,0.087,-1.298,1.453,-2.282,9.711,-0.107,0.001,0.067,happy
6.24,0,0,0,0,0,0,0,0,0,2447,2551,381,2517,3,3737,3252,4.626,3.156,6.488,-3.343,0.122,-0.917,1.489,-2.476,9.828,-0.111,-0.013,0.07,happy
6.25,0,0,0,0,0,0,0,0,1,2515,2648,416,2634,3,3743,3199,4.822,3.915,6.51,-3.426,0.067,-0.549,1.551,-2.195,9.596,-0.111,0.012,0.088,happy
6.26,0,0,0,0,0,0,0,0,1,2643,2723,685,2726,2,3740,3191,5.26,5.31,7.233,-3.526,0.008,-0.176,1.489,-2.267,9.61,-0.145,0.039,0.116,happy
6.27,0,0,0,0,0,0,0,0,2,2746,2766,853,2845,25,3733,3171,5.696,6.515,7.757,-3.643,-0.015,0.285,1.549,-2.435,9.785,-0.162,0.035,0.119,happy
6.28,0,0,0,0,0,0,0,0,3,2841,2802,845,2957,22,3709,3155,5.727,7.377,7.908,-3.732,0.001,0.8,1.616,-2.605,9.766,-0.151,0.022,0.096,happy
6.29,0,0,0,0,0,0,0,0,1,2885,2807,1011,3019,3,3691,3079,5.298,8.03,7.733,-3.753,-0.013,1.353,1.264,-2.588,9.342,-0.11,0.058,0.091,happy
6.3,0,0,0,0,0,0,0,0,1,2895,2659,1022,3089,3,3673,2989,4.556,8.806,8.107,-3.688,-0.076,1.824,1.566,-2.557,9.665,-0.124,0.065,0.09,happy
6.31,0,0,0,0,0,0,0,0,1,2957,2828,1197,3178,4,3644,2889,4.266,9.713,8.813,-3.637,-0.097,2.203,1.554,-2.583,9.776,-0.119,0.083,0.095,happy
6.32,0,0,0,0,0,0,0,0,2,2998,2920,1363,3231,2,3608,2815,4.056,9.881,8.78,-3.62,-0.01,2.504,1.472,-2.674,9.785,-0.122,0.068,0.093,happy
6.33,0,0,0,0,0,0,0,0,0,3045,2848,1513,3295,7,3545,2719,3.663,9.531,8.562,-3.558,0.152,2.684,1.417,-2.612,9.773,-0.114,0.068,0.083,happy
6.34,0,0,0,0,0,0,0,0,21,3115,2879,1495,3370,2,3410,2649,3.29,9.129,8.598,-3.442,0.367,2.693,1.307,-2.528,9.603,-0.09,0.083,0.091,happy
6.35,0,0,0,0,0,0,0,0,16,3165,2856,1674,3379,3,3197,2577,2.552,9.127,9.4,-3.301,0.424,2.58,1.329,-2.617,9.582,-0.079,0.125,0.097,happy
6.36,0,0,0,0,0,0,0,0,1,3189,2858,1687,3406,3,3177,2453,2.112,9.603,10.702,-3.184,0.198,2.434,1.518,-2.547,9.388,-0.07,0.147,0.129,happy
6.37,0,0,0,0,0,0,0,0,0,3225,2879,1916,3439,6,3173,2383,2.385,10.142,11.954,-3.2,-0.112,2.309,1.314,-2.497,9.682,-0.068,0.17,0.142,happy
6.38,0,0,0,0,0,0,0,0,0,3247,2904,1991,3461,3,3147,2220,2.756,9.969,11.686,-3.21,-0.277,2.183,1.46,-2.581,9.656,-0.098,0.156,0.157,happy
6.39,0,0,0,0,0,0,0,0,4,3307,2925,2130,3477,3,3125,2123,2.72,9.728,11.147,-3.109,-0.31,1.986,1.264,-2.6,9.601,-0.086,0.159,0.161,happy
6.4,0,0,0,0,0,0,0,0,1,3321,2935,2343,3495,3,3043,1964,1.633,9.713,10.783,-2.956,-0.412,1.722,1.31,-2.895,9.591,-0.035,0.163,0.151,happy
6.41,0,0,0,0,0,0,0,0,1,3349,2940,2411,3509,3,3015,1799,0.728,9.12,10.369,-2.711,-0.62,1.38,1.226,-2.722,9.457,-0.029,0.128,0.122,happy
6.42,0,0,0,0,0,0,0,0,2,3336,2976,2577,3527,1,3003,1605,0.192,9.445,11.779,-2.408,-0.943,0.942,1.319,-2.744,9.735,-0.063,0.13,0.106,happy
6.43,0,0,0,0,0,0,0,0,3,3343,2997,2607,3546,5,2925,1167,0.156,10.707,13.898,-2.338,-1.266,0.584,1.63,-2.88,9.345,-0.05,0.127,0.102,happy
6.44,0,0,0,0,0,0,0,0,2,3367,2997,2731,3555,3,2834,741,0.4,10.695,12.919,-2.403,-1.539,0.357,1.173,-2.61,9.601,-0.119,0.13,0.071,happy
6.45,0,0,0,0,0,0,0,0,0,3397,2976,2747,3567,2,2779,341,0.541,9.72,9.357,-2.154,-1.779,0.13,1.176,-2.928,10.06,-0.121,0.122,0.071,happy
6.46,0,0,0,0,0,0,0,0,3,3415,2973,2771,3572,1,2701,142,-10.118,8.54,8.825,-1.586,-3.037,0.137,1.018,-2.808,9.543,-0.093,0.075,0.067,happy
6.47,0,0,0,0,0,0,0,0,1,3435,3053,2781,3580,0,2611,121,-6.347,13.668,8.916,-1.432,-3.534,-0.227,1.12,-2.926,9.534,-0.076,0.081,0.059,happy
6.48,0,0,0,0,0,0,0,0,5,3531,3058,2815,3571,0,2578,105,-3.733,14.325,6.981,-1.774,-2.097,-0.807,1.314,-2.741,9.522,-0.09,0.109,0.048,happy
6.49,0,0,0,0,0,0,0,0,47,3557,3063,2805,3557,9,2453,74,-6.816,13.738,1.748,-1.755,-0.744,-1.335,1.19,-2.725,9.586,-0.118,0.108,0.072,happy
6.5,0,0,0,0,0,0,0,0,75,3559,3068,2844,3454,3,2151,1,-8.418,13.695,-3.239,-1.02,-0.625,-1.671,1.267,-2.789,9.579,-0.136,0.102,0.076,happy
6.51,0,0,0,0,0,0,0,0,117,3595,3081,2889,3284,3,2067,0,-6.632,15.517,-3.78,-0.204,-0.705,-1.773,1.676,-3.946,9.596,0.075,0.003,0.175,happy
6.52,0,0,0,0,0,0,0,0,205,3611,3094,2939,2975,3,1631,0,5.952,12.639,-7.362,1.929,0.325,-0.541,1.13,-2.588,9.797,-0.04,0.011,0.166,happy
6.53,0,0,0,0,0,0,0,0,411,3616,3104,2955,2910,2,943,0,-2.612,2.753,7.022,0.829,4.854,-1.195,1.006,-2.394,10.075,-0.11,0.027,0.171,happy
6.54,0,0,0,0,0,0,403,998,437,3651,3130,2958,2707,7,583,0,-0.232,-2.195,18.399,1.286,2.462,0.758,1.156,-3.177,9.606,-0.458,0.018,0.063,happy
6.55,0,0,0,0,0,0,538,2807,805,3703,3145,2934,2356,3,582,0,-16.175,-1.403,6.773,3.484,0.611,-0.351,1.041,-2.756,9.357,-0.775,-0.027,-0.099,happy
6.56,0,0,0,0,0,0,987,3408,950,3725,3150,2807,1799,2,543,0,0.601,6.416,13.46,2.935,0.167,-0.757,1.343,-3.467,9.543,-0.681,-0.065,-0.062,happy
6.57,0,0,0,0,0,0,1983,3568,1021,3710,3145,2759,1437,5,499,3,2.729,8.147,14.052,2.36,0.258,-0.252,1.111,-3.112,9.61,-0.666,-0.046,-0.077,happy
6.58,0,0,0,0,0,0,2640,3610,886,3531,3160,2453,895,3,343,0,0.855,6.333,13.324,1.621,-0.011,-0.276,1.02,-2.15,9.725,-1.705,0.082,-0.154,happy
6.59,0,0,0,0,881,0,2931,3618,739,3323,3171,1609,1499,3,349,0,3.596,1.968,4.985,0.254,1.574,-0.421,1.314,-2.768,10.379,-3.134,-0.211,-0.363,happy
6.6,61,0,0,0,1244,0,3040,3666,488,3151,3109,941,1575,0,271,0,0.172,2.737,9.347,0.378,1.179,-0.441,1.073,-2.167,10.113,-3.914,-0.327,-0.539,happy
6.61,399,80,51,0,1360,0,3139,3730,537,2063,2528,75,1492,0,0,0,-0.5,2.78,8.588,0.256,0.647,-0.269,-0.608,-1.748,13.321,-6.104,-1.113,-0.29,happy
6.62,815,563,1296,0,1475,0,3232,3764,509,659,2,0,297,0,0,0,-0.069,3.929,10.523,0.495,0.26,-0.195,0.5,-8.753,15.186,-7.238,-2.552,0.397,happy
6.63,945,1113,2293,409,1907,0,3310,3782,227,501,5,0,0,0,0,11,0.46,3.625,9.68,0.385,0.087,-0.075,1.918,-13.123,13.051,-7.941,-3.738,0.193,happy
6.64,944,1553,2741,931,2099,0,3365,3765,0,0,0,0,0,0,0,0,0.567,3.905,9.646,0.228,0.08,-0.015,3.414,-10.048,11.471,-6.619,-3.848,1.297,happy
6.65,961,1805,2947,1476,2165,0,3396,3749,0,0,0,0,0,0,0,0,0.309,3.958,9.749,0.16,0.074,-0.032,7.949,-3.266,17.363,-0.437,1.399,3.215,happy
6.66,1046,1856,3056,1727,2337,0,3419,3733,0,0,0,0,0,0,0,0,0.354,3.603,9.462,0.128,0.09,-0.034,-2.315,-4.468,19.613,0.253,1.735,1.521,happy
6.67,1186,2025,3215,2130,2352,0,3443,3689,0,0,0,0,0,0,0,0,0.156,3.723,9.488,0.139,0.067,-0.002,1.867,-0.335,15.526,1.374,0.458,1.32,happy
6.68,1264,2112,3284,2286,2379,6,3447,3639,0,0,0,0,0,0,0,0,0.213,3.522,9.304,0.132,0.055,-0.009,0.548,-0.189,10.29,2.009,0.636,1.72,happy
6.69,1303,2192,3344,2420,2414,0,3439,3579,0,0,5,0,0,0,0,0,0.201,3.539,9.44,0.126,0.055,-0.014,0.862,-0.129,9.33,2.543,0.244,1.814,happy
6.7,1431,2297,3402,2512,2421,0,3412,3520,0,0,0,0,0,0,0,0,0.273,3.606,9.337,0.125,0.045,-0.023,3.23,-1.386,8.262,2.946,0.41,1.839,happy
6.71,1555,2357,3447,2598,2545,0,3389,3461,0,0,0,0,0,0,0,0,0.304,3.572,9.311,0.138,0.034,-0.031,4.25,-2.614,8.255,3.516,0.757,1.773,happy
6.72,1695,2426,3489,2673,2593,0,3357,3408,0,0,0,0,0,0,0,0,0.369,3.634,9.299,0.141,0.029,-0.03,4.432,-3.376,7.93,3.921,1.049,1.617,happy
6.73,1814,2511,3523,2743,2657,0,3315,3329,0,0,0,0,0,0,0,0,0.378,3.63,9.273,0.151,0.03,-0.022,5.004,-4.451,7.616,4.244,1.154,1.408,happy
6.74,1893,2590,3561,2830,2713,0,3257,3263,0,0,0,0,0,0,0,0,0.302,3.721,9.347,0.147,0.027,-0.018,4.729,-5.071,6.663,4.381,1.037,1.159,happy
6.75,2000,2643,3577,2878,2761,0,3184,3166,0,0,7,0,0,19,0,0,0.366,3.721,9.112,0.14,0.027,-0.022,4.611,-5.732,6.361,4.367,0.661,0.963,happy
6.76,2112,2699,3625,2945,2800,0,3147,3087,0,0,0,0,0,0,0,0,0.266,3.867,9.38,0.128,0.031,-0.025,5.483,-6.57,6.136,4.206,0.296,0.693,happy
6.77,2171,2742,3652,2999,2853,0,3071,2992,0,0,0,2,0,0,0,0,0.342,3.709,9.309,0.123,0.031,-0.025,6.778,-7.259,6.376,4.053,0.04,0.277,happy
6.78,2235,2790,3669,3045,2880,0,3003,2871,0,0,0,0,0,0,0,0,0.443,3.785,9.285,0.116,0.04,-0.029,7.602,-8.068,7.434,3.941,-0.066,-0.311,happy
6.79,2353,2832,3712,3117,2907,0,2875,2675,0,0,25,0,0,0,0,0,0.237,3.656,9.182,0.124,0.051,-0.018,7.317,-9.373,9.558,3.746,-0.281,-1.71,happy
6.8,2449,2896,3729,3167,2939,0,2709,2393,0,0,0,0,0,0,0,0,0.208,3.768,9.268,0.112,0.05,-0.006,5.009,-8.294,8.485,3.414,-0.396,-2.631,happy
6.81,2517,2963,3760,3208,2928,0,2480,1919,0,0,12,0,0,0,0,0,0.268,3.709,9.21,0.116,0.046,-0.006,3.479,-8.219,9.543,3.288,-0.423,-2.711,happy
6.82,2603,3011,3779,3248,2927,0,2251,1475,0,0,0,0,0,0,0,0,0.381,3.807,9.251,0.119,0.051,-0.009,1.13,-7.003,10.788,3.223,-0.592,-2.237,happy
6.83,2640,3056,3803,3258,2896,0,2064,990,0,0,63,0,0,0,5,0,0.266,3.749,9.309,0.116,0.062,-0.006,-0.488,-7.187,13.343,3.064,-1.397,-1.465,happy
6.84,2674,3105,3821,3318,2864,0,1855,236,0,0,0,0,0,0,0,0,0.268,3.73,9.266,0.132,0.075,-0.006,-0.855,-8.286,14.861,3.199,-1.726,-1.093,happy
6.85,2734,3135,3823,3355,2738,0,1615,0,0,0,0,0,0,0,0,0,0.218,3.814,9.225,0.157,0.089,0.003,-1.391,-8.538,13.855,3.332,-1.759,-0.433,happy
6.86,2781,3161,3851,3382,2658,0,1472,0,1,0,0,0,1,21,0,0,0.16,3.807,9.143,0.169,0.099,0.017,-2.693,-9.337,13.211,3.184,-1.916,-0.09,happy
6.87,2822,3203,3861,3404,2481,0,1298,0,0,0,0,0,0,0,0,0,0.211,3.886,9.16,0.165,0.111,0.016,-2.634,-10.599,11.957,2.957,-2.247,0.189,happy
6.88,2890,3247,3871,3435,2437,0,1015,0,0,0,0,0,0,0,0,0,0.208,3.802,9.225,0.176,0.113,0.02,-1.247,-11.447,9.732,2.559,-2.495,0.343,happy
6.89,2960,3277,3886,3456,2405,0,752,0,0,0,0,0,0,0,0,0,0.223,3.953,9.225,0.202,0.128,0.027,2.069,-12.72,8.662,2.216,-2.289,0.324,happy
6.9,2974,3297,3898,3475,2359,0,446,0,0,0,0,0,0,25,0,0,0.168,3.891,9.153,0.237,0.142,0.041,3.802,-14.257,6.857,1.849,-1.782,-0.025,happy
6.91,3002,3332,3917,3500,2258,0,165,0,0,0,0,0,0,0,0,0,0.215,3.967,9.184,0.248,0.154,0.043,3.232,-14.392,3.407,1.315,-1.369,-0.678,happy
6.92,3039,3363,3922,3527,2208,0,54,0,0,0,0,0,0,0,0,0,0.05,3.926,9.187,0.261,0.146,0.026,0.409,-14.131,0.498,0.602,-1.314,-1.193,happy
6.93,3101,3394,3930,3546,1968,0,0,0,0,0,0,0,0,0,0,0,0.29,3.778,9.28,0.318,0.151,0.027,-2.193,-14.253,-0.915,-0.377,-1.431,-1.287,happy
6.94,3137,3425,3941,3568,1915,0,0,0,17,0,0,0,12,0,0,0,0.093,3.673,9.076,0.49,0.189,0.118,-0.522,-8.138,1.611,-2.808,-1.144,-1.661,happy
6.95,3186,3462,3952,3583,1744,0,0,0,0,0,0,0,0,0,0,0,0.172,3.78,9.05,0.576,0.174,0.162,1.405,-18.845,-5.088,-2.483,1.36,-1.293,happy
6.96,3239,3473,3957,3607,1747,0,0,0,0,0,0,0,0,0,75,0,0.115,3.926,9.074,0.653,0.177,0.201,6.668,-6.728,16.532,-1.061,3.348,-0.346,happy
6.97,3308,3478,3965,3615,1647,0,0,0,0,0,0,0,0,0,183,0,0.237,4.075,9.313,0.771,0.187,0.242,0.589,2.945,17.107,-1.475,2.431,-0.948,happy
6.98,3386,3457,3978,3606,1517,0,0,0,0,10,0,0,0,0,239,39,0.362,4.228,9.043,0.846,0.176,0.279,-7.817,9.553,6.553,-2.715,0.777,-0.685,happy
6.99,3461,3406,3974,3633,1398,0,0,0,0,0,0,0,28,0,140,859,0.405,3.733,8.983,1.005,0.221,0.351,-11.708,1.834,9.586,-2.977,1.567,1.006,happy
7,3521,3312,3973,3625,1242,0,0,0,0,0,0,0,0,24,230,2043,0.196,3.869,9.297,1.246,0.214,0.392,-7.685,-2.607,15.61,-2.859,1.164,1.681,happy
7.01,3602,2713,3958,3575,154,0,0,0,0,0,10,0,0,0,718,3100,0.263,4.317,8.787,1.697,0.28,0.489,5.926,-3.764,5.923,-2.433,0.075,0.743,happy
7.02,3631,2676,3941,3487,0,0,0,0,0,0,33,0,0,0,1127,3187,0.364,5.013,8.961,1.783,0.35,0.483,1.319,-3.788,10.511,-2.487,0.017,0.75,happy
7.03,3648,2469,3920,3536,0,0,0,0,0,0,0,0,0,0,1627,3293,0.283,4.944,8.674,1.919,0.471,0.503,1.659,-16.319,19.613,-1.232,2.453,1.1,happy
7.04,3637,2345,3883,3446,0,0,0,0,0,0,0,0,0,0,1963,3355,0.022,4.678,8.308,2.096,0.58,0.553,8.054,-0.476,1.199,0.021,2.183,-0.029,happy
7.05,3597,2291,3835,3339,0,0,0,0,9,0,0,0,0,0,2107,3436,0.682,5.092,8.464,2.336,0.692,0.612,-0.91,-3.785,15.455,-0.325,1.489,0.631,happy
7.06,3539,2148,3787,3137,0,0,0,0,3,175,40,0,3,0,2327,3484,1.18,5.349,8.763,2.461,0.921,0.597,0.508,-3.464,10.551,-0.065,0.727,0.05,happy
7.07,3415,2085,3718,2669,0,0,0,0,0,327,5,0,88,0,2636,3543,0.012,5.571,8.811,2.805,0.775,0.593,1.441,-3.625,11.732,-0.054,0.512,0.051,happy
7.08,3205,2043,3583,2384,0,0,0,0,0,381,2,0,54,24,2720,3604,-0.022,5.308,11.298,3.414,0.286,0.349,0.706,-1.465,9.515,-0.01,0.425,0.119,happy
7.09,2001,1469,3014,1535,0,0,0,0,0,659,69,0,95,0,2821,3621,-0.455,7.441,14.722,4.873,-1.312,-0.406,1.901,-3.163,9.938,0.02,0.404,0.169,happy
7.1,1344,417,1745,289,0,0,0,0,0,989,63,0,156,0,2943,3677,-2.157,7.661,12.938,6.538,-2.094,-1.915,1.398,-2.796,10.29,0.029,0.325,0.12,happy
7.11,471,0,1,0,0,0,0,0,0,1423,952,61,495,4,3115,3731,0.091,14.617,11.076,6.623,-2.937,-2.007,1.116,-2.339,10.094,0.014,0.046,0.027,happy
7.12,0,0,0,0,0,0,0,0,4,1407,1300,204,691,6,3253,3751,-0.069,9.653,9.524,5.388,-2.786,-2.285,1.295,-2.31,9.471,0.009,0.113,0.03,happy
7.13,0,0,0,0,0,0,0,0,5,1503,2067,541,1047,3,3349,3764,2.72,5.332,17.945,2.051,-1.488,-3.481,1.178,-2.464,10.015,0.029,0.082,0.09,happy
7.14,0,0,0,0,0,0,0,0,0,1595,2280,995,1193,7,3391,3775,-4.049,8.837,19.613,0.483,-0.937,-2.469,1.14,-2.382,9.534,0.003,0.127,0.095,happy
7.15,0,0,0,0,0,0,0,0,5,1661,2387,1276,1465,2,3418,3782,1.484,1.844,14.55,-0.592,-1.2,-2.472,1.36,-2.682,9.584,0.01,0.132,0.089,happy
7.16,0,0,0,0,0,0,0,0,5,1675,2444,1401,1499,5,3494,3783,2.938,1.978,10.274,-1.258,-0.716,-2.349,1.305,-2.679,9.538,0.029,0.131,0.097,happy
7.17,0,0,0,0,0,0,0,0,3,1774,2503,1554,1573,6,3539,3757,2.911,1.568,9.558,-1.775,-0.501,-2.065,0.991,-2.322,9.795,0.009,0.06,0.075,happy
7.18,0,0,0,0,0,0,0,0,0,1787,2526,1594,1673,0,3571,3759,2.636,2.066,8.207,-2.244,-0.421,-1.743,1.077,-2.334,9.881,-0.016,0.084,0.084,happy
7.19,0,0,0,0,0,0,0,0,9,1911,2561,1823,1781,0,3579,3732,2.519,1.516,6.919,-2.508,-0.448,-1.384,1.111,-2.308,9.814,-0.033,0.093,0.091,happy
7.2,0,0,0,0,0,0,0,0,3,1976,2613,1929,1865,5,3587,3695,2.591,2.102,6.661,-2.673,-0.466,-1.045,1.001,-2.239,9.852,-0.051,0.096,0.1,happy
7.21,0,0,0,0,0,0,0,0,0,2093,2674,2088,1949,5,3567,3647,2.028,3.278,7.626,-2.91,-0.545,-0.725,1.07,-2.33,9.742,-0.075,0.093,0.108,happy
7.22,0,0,0,0,0,0,0,0,3,2196,2689,2136,2005,6,3555,3591,1.803,4.037,7.769,-3.163,-0.593,-0.415,0.994,-2.356,9.823,-0.107,0.075,0.121,happy
7.23,0,0,0,0,0,0,0,0,4,2325,2710,2319,2095,5,3532,3514,1.511,4.843,7.456,-3.388,-0.552,-0.164,0.994,-2.492,9.9,-0.099,0.068,0.108,happy
7.24,0,0,0,0,0,0,0,0,3,2408,2695,2411,2108,3,3501,3421,1.322,5.346,7.147,-3.468,-0.536,0.061,1.015,-2.497,9.912,-0.099,0.066,0.104,happy
7.25,0,0,0,0,0,0,0,0,2,2553,2700,2471,2197,3,3473,3359,1.434,6.278,7.647,-3.489,-0.59,0.34,1.08,-2.502,9.728,-0.086,0.062,0.097,happy
7.26,0,0,0,0,0,0,0,0,1,2533,2718,2591,2223,5,3444,3225,1.463,7.309,8.684,-3.562,-0.649,0.673,1.125,-2.741,9.536,-0.052,0.059,0.1,happy
7.27,0,0,0,0,0,0,0,0,3,2577,2720,2646,2299,4,3420,3051,0.962,7.944,8.995,-3.681,-0.6,0.967,1.025,-2.576,9.737,-0.092,0.064,0.089,happy
7.28,0,0,0,0,0,0,0,0,2,2632,2720,2719,2377,3,3375,2917,0.357,8.219,8.502,-3.716,-0.575,1.133,0.752,-2.313,10.027,-0.077,0.046,0.081,happy
7.29,0,0,0,0,0,0,0,0,2,2671,2766,2792,2408,3,3327,2776,0.165,8.253,8.447,-3.621,-0.614,1.225,0.929,-2.509,9.874,-0.098,0.052,0.087,happy
7.3,0,0,0,0,0,0,0,0,2,2709,2794,2887,2457,2,3244,2655,0.455,8.478,8.933,-3.526,-0.693,1.297,0.915,-2.557,9.828,-0.088,0.051,0.092,happy
7.31,0,0,0,0,0,0,0,0,5,2748,2807,2965,2489,5,3192,2634,1.003,8.399,8.827,-3.452,-0.698,1.363,0.931,-2.653,9.926,-0.077,0.052,0.086,happy
7.32,0,0,0,0,0,0,0,0,2,2795,2994,3049,2551,3,3165,2615,1.276,8.025,8.882,-3.326,-0.705,1.438,0.929,-2.749,9.706,-0.068,0.05,0.058,happy
7.33,0,0,0,0,0,0,0,0,2,2821,2856,3097,2600,3,3041,2541,1.161,8.21,9.735,-3.138,-0.847,1.504,0.852,-2.507,9.917,-0.076,0.03,0.044,happy
7.34,0,0,0,0,0,0,0,0,2,2851,2853,3143,2635,2,2900,2484,1.331,8.607,11.195,-3.029,-1.052,1.601,0.965,-2.547,9.802,-0.075,0.04,0.047,happy
7.35,0,0,0,0,0,0,0,0,5,2884,2904,3149,2667,3,2879,2376,1.437,9.361,12.424,-3.056,-1.232,1.726,0.876,-2.629,9.67,-0.062,0.022,0.039,happy
7.36,0,0,0,0,0,0,0,0,37,2915,2925,3160,2713,13,2781,2291,1.176,9.22,12.208,-3.116,-1.214,1.818,1.018,-2.677,9.591,-0.094,0.038,0.032,happy
7.37,0,0,0,0,0,0,0,0,106,2939,2935,3192,2733,29,2765,2201,-0.575,8.459,10.963,-2.911,-1.13,1.765,0.991,-2.619,9.603,-0.09,0.014,0.024,happy
7.38,0,0,0,0,0,0,0,0,123,3035,2976,3295,2749,27,2550,1843,-2.416,8.217,11.947,-2.469,-1.228,1.478,0.982,-2.672,9.641,-0.122,0.014,0.02,happy
7.39,0,0,0,0,0,0,0,0,487,3125,3002,3369,2791,43,2461,1339,-4.094,10.367,14.174,-2.237,-1.694,1.092,0.898,-2.722,9.84,-0.127,-0.004,0.013,happy
7.4,0,0,0,0,0,0,0,0,551,3148,2999,3404,2787,48,2291,861,-2.085,9.85,9.946,-2.126,-1.408,0.711,0.912,-2.674,9.534,-0.105,0.001,0.014,happy
7.41,0,0,0,0,0,0,0,0,749,3260,3040,3487,2743,47,2131,261,-4.36,11.631,4.171,-1.635,-1.409,-0.065,1.01,-2.794,9.689,-0.107,0.031,0.013,happy
7.42,0,0,0,0,0,0,0,0,1070,3327,3084,3545,2511,10,1717,12,-5.267,13.326,1.951,-0.795,-2.128,-0.814,0.85,-2.88,9.68,-0.116,0.039,0.013,happy
7.43,0,0,0,0,0,0,0,0,1085,3366,3078,3589,2437,12,1721,17,-1.101,14.301,-1.702,-0.241,-1.5,-0.918,0.927,-2.933,9.685,-0.083,0.021,0.007,happy
7.44,0,0,0,0,0,0,0,0,1297,3411,3099,3621,2358,18,1223,79,0.014,13.98,-2.116,0.862,0.002,-0.602,0.946,-2.78,9.424,-0.052,-0.006,0.038,happy
7.45,0,0,0,0,0,0,0,0,1427,3485,3142,3747,2157,6,461,20,4.695,0.359,19.613,0.15,3.783,0.12,0.931,-2.447,9.742,-0.092,0.008,0.031,happy
7.46,0,0,0,0,0,0,213,322,1611,3507,2966,3737,2083,4,429,0,2.863,-4.994,10.7,1.492,1.629,1.798,0.874,-1.444,10.082,-0.314,0.018,-0.051,happy
7.47,0,0,0,0,0,0,487,2030,1627,3519,3135,3749,1829,4,284,0,-14.454,-2.186,10.673,2.735,1.039,0.276,1.331,-3,9.376,-0.452,0.083,-0.096,happy
7.48,0,0,0,0,0,0,593,2943,1869,3541,3132,3763,815,3,285,0,-9.131,1.978,12.297,2.61,0.305,-0.727,1.087,-3.261,9.481,-0.573,-0.057,-0.119,happy
7.49,0,0,0,0,0,0,1113,3301,2104,3528,3132,3758,200,1,221,0,5.164,6.452,10.903,2.441,-0.448,-0.3,1.097,-2.598,9.426,-0.69,-0.269,-0.1,happy
7.5,0,0,0,0,0,0,2001,3445,2132,3503,3107,3755,110,61,143,0,1.528,6.091,12.534,1.683,0.016,-0.323,0.927,-2.253,9.187,-0.851,-0.363,-0.112,happy
7.51,0,0,0,0,0,0,2353,3508,2171,3416,3135,3675,73,1,86,0,4.307,4.82,9.361,1.131,0.334,-0.286,1.24,-1.63,9.299,-1.336,-0.294,-0.266,happy
7.52,131,0,0,0,905,0,2716,3545,2118,3212,3142,3593,85,11,0,0,-0.397,1.846,7.19,0.325,1.228,-0.459,1.02,-2.662,9.529,-2.315,0.245,-0.314,happy
7.53,404,0,0,0,1190,0,2869,3598,1997,3097,3158,3471,366,0,0,0,0.713,4.01,9.081,0.294,1.212,-0.491,1.583,-3.203,9.689,-2.664,0.299,-0.281,happy
7.54,804,202,0,0,1290,0,2991,3652,1705,2539,3135,3117,431,0,0,0,0.275,4.578,11.054,0.287,0.799,-0.286,1.269,-3.268,10.228,-3.56,0.203,-0.24,happy
7.55,1086,644,556,0,1493,0,3101,3695,1113,1417,2270,1882,279,0,0,0,0.017,3.721,9.632,0.251,0.515,-0.24,0.955,-2.394,12.594,-4.644,0.01,0.026,happy
7.56,1198,1168,1750,209,1696,0,3194,3729,747,1127,509,888,147,0,0,0,0.256,3.685,9.457,0.279,0.239,-0.141,0.948,-6.227,13.534,-5.447,-0.652,0.514,happy
7.57,1322,1519,2373,642,1971,0,3243,3751,493,236,2,0,0,0,0,0,0.373,3.709,9.503,0.233,0.167,-0.078,0.721,-10.97,11.202,-7.286,-1.806,1.527,happy
7.58,1434,1726,2707,1105,2061,0,3324,3759,0,0,0,0,0,0,0,0,0.309,3.958,9.474,0.206,0.121,-0.074,1.255,-11.406,9.498,-6.2,-3.047,1.435,happy
7.59,1584,1875,2887,1669,2283,0,3353,3757,0,0,58,0,0,0,0,0,0.306,3.728,9.34,0.109,0.092,-0.038,3.469,-6.206,10.772,-4.048,-1.993,2.489,happy
7.6,1646,2033,3033,1997,2327,333,3387,3738,0,0,0,0,0,0,0,0,0.254,3.594,9.361,0.091,0.086,-0.037,2.923,-14.571,19.613,0.836,0.971,2.152,happy
7.61,1777,2138,3134,2207,2434,0,3380,3707,0,0,0,0,0,0,0,0,0.211,3.689,9.373,0.091,0.084,-0.028,3.163,-0.321,8.279,2.227,0.153,1.535,happy
7.62,1833,2176,3184,2288,2427,0,3347,3674,0,0,7,0,0,0,0,0,0.146,3.591,9.282,0.102,0.07,-0.024,2.993,0.778,7.049,2.71,0.214,1.61,happy
7.63,1894,2226,3227,2366,2416,0,3321,3636,0,0,0,0,0,0,0,0,0.189,3.62,9.369,0.111,0.056,-0.025,3.512,0.072,7.386,2.797,0.187,1.399,happy
7.64,1983,2256,3264,2448,2455,0,3277,3583,0,0,0,0,0,0,0,0,0.172,3.618,9.349,0.11,0.052,-0.018,3.699,-1.343,8.509,3.211,0.14,1.162,happy
7.65,2035,2303,3312,2514,2479,0,3234,3543,3,0,0,0,0,0,0,0,0.254,3.677,9.349,0.102,0.052,-0.017,3.548,-1.602,8.557,3.525,-0.055,0.83,happy
7.66,2067,2341,3343,2625,2480,0,3169,3514,0,0,0,0,0,0,0,0,0.196,3.589,9.347,0.104,0.05,-0.013,3.067,-1.932,7.499,3.722,-0.234,0.495,happy
7.67,2097,2381,3385,2645,2478,0,3134,3472,0,0,0,0,0,0,0,0,0.254,3.601,9.318,0.117,0.034,-0.022,2.263,-1.958,6.888,3.799,-0.448,0.285,happy
7.68,2118,2407,3406,2719,2478,0,3102,3437,0,0,0,0,0,0,0,0,0.254,3.757,9.349,0.113,0.051,-0.02,1.683,-2.737,8.152,3.828,-0.67,0.164,happy
7.69,2103,2452,3439,2755,2491,0,3053,3394,0,0,0,38,0,0,0,0,0.206,3.766,9.34,0.089,0.054,-0.023,1.714,-3.711,9.627,3.932,-0.891,0.019,happy
7.7,2266,2512,3475,2891,2525,0,2960,3322,0,0,0,0,1,0,0,0,0.218,3.742,9.215,0.078,0.075,-0.018,1.678,-4.489,10.24,4.049,-1.025,-0.218,happy
7.71,2343,2559,3517,2972,2557,0,2871,3259,0,0,0,0,0,0,0,0,0.17,3.773,9.388,0.084,0.077,-0.024,1.274,-5.291,10.367,4.024,-1.217,-0.798,happy
7.72,2384,2641,3551,3021,2602,0,2778,3170,0,0,0,0,0,0,0,6,0,3.752,9.414,0.083,0.105,-0.019,1.082,-5.861,12.572,4.02,-1.127,-1.355,happy
7.73,2493,2690,3583,3088,2608,0,2674,3069,0,0,0,0,0,0,0,0,0.117,3.747,9.321,0.069,0.104,-0.018,0.086,-6.318,13.47,4.055,-1.136,-1.508,happy
7.74,2549,2733,3619,3138,2598,0,2543,2979,0,0,0,0,0,0,0,0,0.187,3.721,9.335,0.071,0.1,-0.02,-1.803,-6.519,13.556,3.968,-1.233,-1.267,happy
7.75,2637,2765,3646,3164,2559,0,2366,2850,0,0,25,0,4,0,0,0,0.029,3.797,9.263,0.078,0.109,-0.017,-2.732,-8.708,16.889,3.938,-1.548,-0.588,happy
7.76,2690,2800,3667,3233,2537,0,2154,2687,0,0,0,0,0,0,0,25,0.057,3.752,9.419,0.1,0.097,-0.013,-2.804,-10.013,17.08,3.986,-1.853,-0.281,happy
7.77,2741,2834,3691,3267,2432,0,1869,2391,0,0,0,0,0,0,0,9,0.11,3.711,9.301,0.108,0.12,-0.017,-0.072,-11.921,13.755,3.74,-1.645,0.203,happy
7.78,2770,2866,3718,3286,2252,0,1697,1956,0,0,0,0,0,0,0,0,-0.019,3.771,9.304,0.133,0.104,-0.004,1.156,-14.518,9.852,2.982,-1.75,0.255,happy
7.79,2878,2855,3743,3347,2075,0,1318,1374,0,0,0,0,0,0,0,0,-0.007,3.711,9.29,0.191,0.117,0.017,2.67,-14.49,6.155,2.478,-1.808,-0.066,happy
7.8,2947,2829,3775,3407,1808,0,898,0,0,0,0,0,0,0,0,0,0.084,3.857,9.325,0.208,0.133,0.024,6.493,-13.034,3.067,1.082,-1.008,-1.629,happy
7.81,2990,2813,3788,3441,1647,0,589,0,0,24,0,0,0,0,0,0,-0.005,3.867,9.124,0.219,0.142,0.026,2.184,-14.171,3.225,0.635,-0.498,-2.322,happy
7.82,3040,2794,3799,3472,1622,0,303,0,0,0,0,0,0,0,0,0,0.194,3.797,9.067,0.255,0.147,0.033,-2.538,-13.214,1.267,-0.198,-0.618,-2.648,happy
7.83,3113,2711,3811,3502,1629,0,0,0,0,0,5,0,0,0,0,0,0.084,3.768,9.448,0.317,0.132,0.057,-3.378,-13.649,1.243,-0.774,-0.463,-2.295,happy
7.84,3152,2675,3831,3537,1495,0,0,0,0,0,0,0,0,0,0,0,-0.014,3.929,9.634,0.362,0.125,0.067,-4.911,-13.625,3.488,-1.17,-0.213,-1.734,happy
7.85,3210,2726,3843,3566,1467,0,0,0,0,45,0,0,0,0,0,14,0.062,3.915,9.541,0.423,0.113,0.089,0.105,-2.737,3.397,-1.914,0.419,-1.143,happy
7.86,3279,2645,3858,3599,1344,0,0,0,0,0,0,0,0,2,0,0,0.17,3.792,9.246,0.51,0.118,0.133,2.904,1.164,18.043,-0.557,2.305,-0.668,happy
7.87,3341,2624,3867,3623,1019,0,0,0,0,0,0,0,0,0,183,0,0.385,4.013,9.517,0.689,0.096,0.222,-0.754,7.283,9.984,-2.225,0.58,-1.092,happy
7.88,3363,2514,3876,3605,948,0,0,0,0,0,0,0,0,0,140,255,-0.129,2.488,9.263,1.22,0.172,0.451,-4.056,4.312,8.794,-2.965,0.636,-0.076,happy
7.89,3443,2431,3887,3659,752,0,0,0,0,0,0,0,0,0,54,1211,0.974,3.931,10.242,1.059,0.149,0.412,-9.878,-1.58,11.073,-2.755,1.046,0.78,happy
7.9,3499,2301,3910,3673,370,0,0,0,0,0,0,0,0,0,85,2294,0.309,4.559,9.242,1.127,0.185,0.46,-6.498,0.587,12.254,-2.599,1.072,1.2,happy
7.91,3561,2219,3883,3674,10,0,0,0,0,0,0,0,0,0,133,2888,0.187,4.187,8.914,1.365,0.375,0.539,1.966,-1.86,10.719,-2.845,0.241,1.002,happy
7.92,3621,2143,3879,3664,0,0,0,0,0,0,0,0,0,0,473,3125,-0.426,5.21,8.215,1.305,0.543,0.493,4.108,-5.59,11.535,-2.584,-0.339,0.593,happy
7.93,3697,2149,3844,3639,0,0,0,0,0,0,0,0,0,0,840,3260,0.223,4.372,9.203,1.312,0.663,0.598,4.037,-4.051,11.961,-2.358,-0.995,0.247,happy
7.94,3728,2128,3774,3602,0,0,0,0,0,0,0,0,0,0,1415,3355,1.199,5.183,9.594,1.572,0.727,0.543,1.978,-3.895,12.069,-2.125,-1.241,0.172,happy
7.95,3748,2036,3614,3509,0,0,0,0,0,0,0,0,12,0,1609,3414,0.536,4.848,8.897,1.707,0.887,0.582,2.533,-4.942,12.905,-1.758,-0.98,0.235,happy
7.96,3765,1753,3414,3350,0,0,0,0,0,0,0,0,0,0,2041,3467,0.366,4.937,8.885,1.864,1.058,0.57,6.17,-11.83,14.274,-0.776,1.023,0.143,happy
7.97,3758,1565,3333,3169,0,0,0,0,0,6,0,0,0,0,2345,3497,0.266,5.083,8.679,2.159,1.266,0.563,3.024,-1.468,10.168,-0.126,0.782,0.064,happy
7.98,3719,1450,3221,3083,0,0,0,0,0,0,99,0,4,0,2523,3525,0.309,5.136,7.798,2.502,1.446,0.524,1.274,-2.516,10.961,-0.189,0.982,0.375,happy
7.99,3632,1248,3047,2954,0,0,0,0,0,0,0,0,45,0,2744,3571,-0.412,4.621,7.506,3.018,1.42,0.237,1.86,-3.053,10.252,-0.146,0.879,0.284,happy
8,3467,1173,2875,2704,0,0,0,0,0,0,0,0,16,0,2815,3613,-0.718,4.583,10.364,3.889,1.042,-0.277,2.152,-2.277,9.445,-0.086,0.94,0.346,happy
8.01,3131,569,2631,2125,0,0,0,0,0,0,2,0,58,0,2901,3663,-0.098,5.215,11.854,4.779,0.314,-1.033,1.216,-1.923,9.886,-0.089,1.008,0.395,happy
8.02,2496,0,2131,1571,0,0,0,0,5,21,7,4,137,0,2998,3691,-4.685,14.621,19.613,4.78,-0.311,-1.818,1.743,-2.586,9.797,-0.06,0.822,0.279,happy
8.03,1776,0,122,46,0,0,0,0,0,883,7,0,519,0,3171,3757,-1.456,9.953,12.62,5.368,-1.382,-3.063,1.949,-2.607,9.855,-0.067,0.545,0.184,happy
8.04,929,0,0,0,0,0,0,0,0,1184,5,0,815,0,3272,3774,-0.532,12.845,9.771,4.67,-1.294,-2.945,1.492,-2.703,10.24,-0.073,0.419,0.155,happy
8.05,0,0,0,0,0,0,0,0,0,1398,7,0,1173,35,3305,3800,-0.098,7.264,16.307,3.111,-0.282,-2.634,1.592,-2.483,9.941,-0.052,0.346,0.13,happy
8.06,0,0,0,0,0,0,0,0,0,1594,7,0,1433,0,3417,3805,1.216,8.394,12.591,1.498,-0.333,-2.347,1.286,-2.54,10.276,-0.037,0.252,0.107,happy
8.07,0,0,0,0,0,0,0,0,3,1575,2,0,1593,0,3479,3804,1.085,-1.188,12.634,0.136,-0.489,-1.742,1.556,-2.155,9.565,-0.035,0.252,0.15,happy
8.08,0,0,0,0,0,0,0,0,0,1781,1133,0,1707,0,3529,3799,1.973,2.157,11.217,-0.498,-0.536,-1.818,1.453,-2.181,9.651,-0.084,0.258,0.194,happy
8.09,0,0,0,0,0,0,0,0,0,1983,1543,0,1863,0,3580,3767,0.761,1.642,10.97,-1.216,-0.681,-1.898,1.434,-2.136,9.766,-0.102,0.304,0.246,happy
8.1,0,0,0,0,0,0,0,0,0,2188,1937,2,1891,0,3593,3723,1.238,1.757,8.655,-1.674,-0.996,-1.896,1.441,-2.461,9.768,-0.141,0.297,0.241,happy
8.11,0,0,0,0,0,0,0,0,1,2331,2362,112,1945,3,3597,3657,1.585,1.544,6.902,-1.978,-1.184,-1.835,1.29,-2.6,9.787,-0.143,0.257,0.221,happy
8.12,0,0,0,0,0,0,0,0,1,2453,2505,355,1967,3,3573,3514,1.796,1.46,5.739,-2.15,-1.28,-1.657,1.279,-2.538,9.797,-0.147,0.228,0.207,happy
8.13,0,0,0,0,0,0,0,0,6,2555,2556,780,2059,2,3548,3235,1.329,1.755,5.705,-2.175,-1.464,-1.413,1.171,-2.619,9.835,-0.131,0.211,0.185,happy
8.14,0,0,0,0,0,0,0,0,2,2557,2590,1191,2143,3,3535,3115,1.161,2.624,6.34,-2.233,-1.697,-1.082,1.152,-2.648,9.819,-0.103,0.213,0.165,happy
8.15,0,0,0,0,0,0,0,0,1,2584,2610,1479,2185,1,3497,3159,1.336,3.546,6.778,-2.31,-1.788,-0.697,1.14,-2.629,9.747,-0.08,0.216,0.147,happy
8.16,0,0,0,0,0,0,0,0,0,2633,2664,1638,2235,2,3576,3108,1.429,4.384,7.08,-2.38,-1.745,-0.25,1.171,-2.653,9.831,-0.088,0.196,0.143,happy
8.17,0,0,0,0,0,0,0,0,2,2652,2702,1810,2237,0,3449,3061,0.745,4.776,7.685,-2.411,-1.692,0.261,1.073,-2.581,9.687,-0.1,0.188,0.137,happy
8.18,0,0,0,0,0,0,0,0,5,2669,2728,2104,2252,1,3429,3028,-0.579,4.882,8.217,-2.425,-1.665,0.73,0.986,-2.574,9.941,-0.096,0.18,0.137,happy
8.19,0,0,0,0,0,0,0,0,0,2739,2741,2323,2299,1,3444,2975,-2.234,5.389,8.698,-2.435,-1.557,1.023,0.826,-2.741,9.311,-0.086,0.163,0.125,happy
8.2,0,0,0,0,0,0,0,0,1,2771,2756,2541,2329,3,3407,2975,-4.336,6.199,9.601,-2.464,-1.483,1.11,0.867,-2.725,9.761,-0.058,0.127,0.099,happy
8.21,0,0,0,0,0,0,0,0,3,2794,2766,2693,2421,4,3383,3048,-5.804,6.656,10.041,-2.472,-1.561,1.027,0.943,-2.655,9.809,-0.051,0.127,0.077,happy
8.22,0,0,0,0,0,0,0,0,12,2811,2771,2804,2463,0,3363,3007,-6.117,6.953,10.494,-2.485,-1.705,0.822,0.843,-2.66,9.876,-0.059,0.1,0.063,happy
8.23,0,0,0,0,0,0,0,0,31,2839,2817,2833,2513,10,3309,2919,-4.429,6.721,10.204,-2.551,-1.767,0.613,0.95,-2.579,9.761,-0.088,0.088,0.068,happy
8.24,0,0,0,0,0,0,0,0,71,2911,2843,2940,2539,17,3213,2823,-3.172,6.57,10.338,-2.498,-1.576,0.711,1.219,-3.381,9.474,0.02,0.08,0.036,happy
8.25,0,0,0,0,0,0,0,0,137,2979,2853,3087,2583,37,3080,2761,-3.508,7.19,11.234,-2.479,-1.418,0.858,0.867,-2.689,9.675,-0.04,0.068,0.041,happy
8.26,0,0,0,0,0,0,0,0,163,3019,2863,3120,2637,44,2979,2735,-4.705,7.728,11.241,-2.486,-1.179,0.656,0.881,-2.588,9.701,-0.041,0.044,0.034,happy
8.27,0,0,0,0,0,0,0,0,306,3052,2871,3206,2661,47,2796,2581,-7.535,6.914,10.745,-2.424,-1.169,0.143,0.886,-2.792,9.811,-0.046,0.05,0.025,happy
8.28,0,0,0,0,0,0,0,0,599,3112,2884,3271,2658,51,2879,2520,-9.208,6.211,10.379,-2.193,-1.209,-0.826,0.929,-2.749,9.809,-0.069,0.054,0.018,happy
8.29,0,0,0,0,0,0,0,0,646,3135,2899,3279,2654,51,2751,2535,-10.204,7.554,11.08,-1.993,-1.241,-1.882,0.857,-2.772,9.649,-0.063,0.062,0.015,happy
8.3,0,0,0,0,0,0,0,0,873,3171,2963,3347,2571,50,2566,2283,-10.561,6.103,7.578,-1.742,-1.394,-2.794,0.941,-2.842,9.656,-0.078,0.055,0.011,happy
8.31,0,0,0,0,0,0,0,0,1049,3210,2981,3397,2505,56,2217,2077,-12.105,8.566,3.915,-1.173,-1.133,-4.12,0.819,-2.83,9.67,-0.074,0.061,0.005,happy
8.32,0,0,0,0,0,0,0,0,1187,3195,2991,3451,2404,47,2211,1917,-10.068,10.812,3.469,-0.556,-1.074,-5.146,0.783,-2.792,9.728,-0.105,0.049,0.005,happy
8.33,0,0,0,0,0,0,0,0,1431,3214,3160,3516,2142,46,2013,1123,-3.836,11.389,2.435,-0.081,-0.255,-5.192,0.792,-2.847,9.754,-0.103,0.039,0.006,happy
8.34,0,0,0,0,0,0,0,0,1459,3275,3043,3605,1955,44,1764,251,0.299,11.504,3.675,0.187,1.017,-4.166,0.745,-2.772,9.711,-0.072,0.046,0.002,happy
8.35,0,0,0,0,0,0,0,0,1513,3251,3048,3621,1939,42,1672,207,0.215,10.204,5.708,0.245,2.026,-2.886,0.845,-2.832,9.687,-0.085,0.05,-0.001,happy
8.36,0,0,0,0,0,0,0,0,1783,3261,3050,3679,1933,5,1176,2,8.337,-6.419,19.079,-0.171,1.768,-2.475,0.828,-2.923,9.692,-0.094,0.063,-0.001,happy
8.37,0,0,0,0,0,0,0,1178,2087,3285,3068,3755,1687,5,501,1,9.512,4.908,4.065,1.891,1.365,-1.135,0.816,-2.796,9.766,-0.139,0.083,-0.012,happy
8.38,0,0,0,0,0,0,0,1947,2152,3283,3078,3785,1515,5,439,3,-0.766,8.03,13.537,1.756,0.722,-0.26,0.838,-2.847,9.85,-0.216,0.081,-0.041,happy
8.39,0,0,0,0,0,0,263,2782,2269,3287,3081,3810,1317,8,383,17,1.839,2.492,10.604,1.415,0.88,-0.319,0.996,-2.593,9.893,-0.343,0.125,-0.092,happy
8.4,0,0,0,0,0,0,607,3018,2424,3245,3084,3864,382,0,7,0,-2.097,3.606,10.247,1.076,0.794,-0.119,0.759,-3.862,9.488,-0.592,0.138,-0.141,happy
8.41,0,0,0,0,0,0,1217,3152,2539,3165,3084,3882,51,0,0,0,1.992,3.316,9.273,1.361,-1.212,0.201,0.917,-3.218,9.622,-0.741,0.022,-0.264,happy
8.42,0,0,0,0,0,0,1399,3229,2610,3177,3078,3853,77,0,0,0,-1.551,4.86,11.703,0.803,-0.719,0.084,0.728,-3.383,9.187,-0.976,-0.097,-0.34,happy
8.43,0,0,0,0,0,0,1743,3293,2725,3047,3076,3871,27,0,0,0,-0.594,3.342,9.385,0.714,-0.837,0.053,1.535,-3.117,9.924,-1.098,-0.234,-0.419,happy
8.44,284,0,624,179,635,0,2138,3334,2805,2843,3007,3796,0,0,0,0,-0.342,3.606,10.13,0.528,-0.556,-0.003,1.338,-2.878,9.55,-1.562,-0.254,-0.509,happy
8.45,670,0,1556,769,1010,0,2502,3392,2769,2459,3058,3629,0,0,0,1,0.431,3.948,9.78,0.234,-0.22,0.021,1.14,-2.363,9.263,-2.532,0.353,-0.546,happy
8.46,911,0,2138,1238,1167,0,2747,3453,2701,2103,3043,3533,0,0,27,0,0.194,3.558,9.606,0.163,-0.049,-0.033,2.227,-3.584,9.689,-2.779,0.783,-0.602,happy
8.47,1014,233,2559,1721,1455,0,2895,3517,2279,923,2382,3273,0,0,0,0,-0.148,3.414,9.538,0.16,-0.011,-0.03,-0.711,-2.662,13.846,-4.246,1.233,-0.099,happy
8.48,1072,462,2761,2071,1499,0,3025,3581,999,0,836,1739,0,0,0,0,0.081,3.464,9.306,0.141,0.029,-0.028,0.005,-8.684,19.613,-4.709,0.841,1.336,happy
8.49,1118,624,2862,2277,1655,292,3136,3639,505,0,2,499,28,0,0,0,-0.048,3.414,9.448,0.095,0.06,-0.027,4.269,-9.586,16.154,-4.694,1.14,2.2,happy
8.5,1188,660,2966,2390,1737,1062,3200,3670,0,0,0,0,0,6,0,0,-0.158,3.469,9.522,0.083,0.045,-0.025,3.347,-6.565,12.16,-3.305,3.321,1.424,happy
8.51,1258,814,3024,2470,1808,1303,3247,3694,0,5,0,0,0,0,0,0,-0.06,3.419,9.529,0.055,0.015,-0.012,4.005,-11.018,13.017,-0.277,2.466,-0.629,happy
8.52,1257,999,3084,2527,2015,1502,3291,3699,0,0,0,0,0,22,0,0,0.014,3.338,9.457,0.055,-0.003,-0.005,8.674,0.682,13.412,0.751,2.29,-1.669,happy
8.53,1293,1115,3107,2542,2045,1296,3304,3704,4,0,0,0,0,0,0,0,0.101,3.326,9.366,0.068,0.01,-0.01,4.257,-0.591,8.509,1.641,2.81,-2.383,happy
8.54,1385,1178,3129,2541,2074,946,3297,3697,0,11,0,0,18,0,38,0,0.012,3.421,9.407,0.073,0.019,-0.016,2.871,-0.867,6.941,2.286,2.13,-2.523,happy
8.55,1415,1226,3141,2555,2074,689,3291,3680,0,0,0,0,0,0,0,0,0.014,3.309,9.481,0.066,0.017,-0.017,3.804,-1.532,6.28,2.529,1.995,-2.527,happy
8.56,1485,1284,3166,2594,2119,550,3323,3695,0,0,10,0,0,0,0,0,0.067,3.402,9.39,0.074,0.018,-0.028,6.062,-3.685,6.28,2.839,2.06,-2.736,happy
8.57,1535,1275,3185,2592,2111,843,3333,3698,0,0,51,0,0,0,0,0,-0.069,3.419,9.316,0.069,0.01,-0.022,7.599,-5.322,7.123,3.064,2.107,-3.507,happy
8.58,1616,1392,3211,2630,2189,1220,3356,3708,0,0,5,0,0,0,0,0,-0.048,3.443,9.455,0.058,0.023,-0.024,7.712,-6.038,6.771,3.114,2.05,-3.924,happy
8.59,1637,1406,3233,2642,2227,1263,3368,3698,0,0,0,0,0,0,0,0,0.062,3.448,9.4,0.07,0.033,-0.026,8.243,-7.348,7.259,2.87,1.821,-4.676,happy
8.6,1678,1507,3253,2647,2257,1166,3376,3723,0,0,0,0,0,0,0,0,0.072,3.448,9.471,0.07,0.035,-0.027,8.961,-9.914,9.486,2.835,1.899,-5.33,happy
8.61,1717,1573,3265,2624,2321,1043,3382,3728,0,0,0,0,0,0,0,0,-0.17,3.402,9.364,0.065,0.034,-0.026,10.312,-10.793,7.326,2.742,2.015,-5.685,happy
8.62,1787,1616,3277,2613,2357,803,3389,3724,0,0,0,0,0,0,0,0,0.105,3.484,9.39,0.052,0.041,-0.022,12.028,-13.154,6.543,1.836,2.016,-6.68,happy
8.63,1774,1680,3283,2542,2375,306,3394,3728,0,0,0,0,0,0,0,0,0.01,3.297,9.139,0.077,-0.005,-0.023,8.973,-14.921,6.414,1.203,2.291,-7.001,happy
8.64,1782,1669,3285,2497,2389,485,3408,3779,0,0,2,0,0,0,28,3,-0.11,3.455,9.486,0.05,0.047,-0.034,7.381,-14.451,5.27,0.95,1.935,-6.803,happy
8.65,1792,1684,3280,2348,2432,576,3429,3760,0,0,0,0,0,0,0,0,0.16,3.522,9.443,0.047,0.054,-0.04,5.071,-13.472,7.786,0.404,0.702,-6.107,happy
8.66,1719,1581,3259,2267,2303,483,3433,3766,0,0,0,0,0,0,0,0,-0.067,3.474,9.44,0.053,0.056,-0.039,0.196,-10.223,7.281,0.293,0.699,-4.394,happy
