timestamp,L1,L2,L3,L4,L5,L6,L7,L8,R1,R2,R3,R4,R5,R6,R7,R8,acc_x_left,acc_y_left,acc_z_left,gyro_x_left,gyro_y_left,gyro_z_left,acc_x_right,acc_y_right,acc_z_right,gyro_x_right,gyro_y_right,gyro_z_right,mood
0.00,937,754,1535,304,1593,0,2798,3579,1805,2183,3140,3480,73,0,20,0,0.158,3.972,9.505,0.079,0.227,-0.131,1.003,-4.111,10.096,-3.178,0.333,-0.156,happy
0.01,990,1001,1910,551,1775,0,2943,3651,1214,1722,2682,2269,119,0,0,0,0.342,3.785,9.309,0.070,0.173,-0.111,1.573,-3.036,12.462,-4.311,0.441,0.060,happy
0.02,1123,1169,2191,906,1827,0,3043,3715,697,1011,1507,1307,0,0,0,0,0.160,3.577,9.366,0.110,0.096,-0.058,0.972,-1.841,12.730,-4.949,-0.174,0.331,happy
0.03,1265,1283,2383,1215,1910,21,3152,3751,525,363,7,69,0,0,0,0,0.091,3.634,9.342,0.047,0.052,0.002,-0.412,-5.581,15.007,-6.888,-2.441,1.358,happy
0.04,1365,1484,2538,1485,2291,183,3247,3780,0,0,2,0,0,0,30,0,0.244,3.603,9.340,0.053,0.034,0.002,1.140,-10.525,11.064,-6.846,-3.923,1.315,happy
0.05,1451,1713,2665,1717,2559,419,3338,3792,0,0,0,0,0,0,0,0,0.340,3.632,9.419,0.048,0.038,-0.009,2.224,-10.355,10.561,-5.905,-4.029,1.897,happy
0.06,1478,1808,2786,1872,2642,806,3393,3799,0,0,0,0,0,0,0,0,0.259,3.613,9.424,0.052,0.043,-0.012,5.722,-6.275,11.159,-0.985,0.308,3.452,happy
0.07,1532,1896,2868,2064,2757,999,3435,3793,0,0,0,0,0,0,0,0,0.129,3.630,9.306,0.046,0.052,-0.016,1.566,2.988,16.034,2.289,-0.733,1.496,happy
0.08,1628,2000,2950,2171,2853,836,3457,3790,0,0,12,0,0,0,0,0,0.271,3.558,9.395,0.053,0.039,-0.021,2.528,0.359,6.835,2.499,0.317,1.641,happy
0.09,1642,2061,2991,2241,2902,803,3467,3729,0,0,0,0,0,3,0,0,0.225,3.531,9.270,0.084,0.027,-0.025,2.691,-0.007,6.201,2.732,-0.048,1.695,happy
0.10,1746,2141,3084,2320,2960,646,3406,3720,0,0,0,0,0,2,0,0,0.304,3.587,9.321,0.101,0.022,-0.022,5.064,-2.454,9.495,3.398,-0.128,1.001,happy
0.11,1825,2206,3135,2403,2987,626,3355,3681,0,0,0,0,0,0,0,0,0.285,3.642,9.270,0.093,0.021,-0.015,4.503,-3.407,9.543,3.750,-0.280,0.428,happy
0.12,1898,2256,3181,2499,3008,695,3308,3649,0,0,0,0,0,6,0,45,0.206,3.560,9.328,0.091,0.038,-0.016,2.904,-3.306,6.902,3.886,-0.626,-0.249,happy
0.13,1955,2289,3231,2559,3014,511,3248,3603,0,0,0,0,0,0,0,33,0.206,3.572,9.347,0.108,0.040,-0.020,1.935,-5.406,10.214,3.930,-1.066,-0.564,happy
0.14,1967,2365,3278,2673,3033,592,3158,3537,0,0,0,0,0,0,0,0,0.187,3.754,9.357,0.078,0.066,-0.026,2.219,-6.163,10.274,4.005,-1.166,-0.764,happy
0.15,2090,2414,3329,2780,3038,522,3056,3472,0,0,5,0,0,0,0,0,0.120,3.630,9.306,0.086,0.068,-0.013,2.873,-6.261,10.173,3.888,-0.970,-1.254,happy
0.16,2064,2477,3381,2880,3025,478,2928,3361,0,0,2,9,0,0,0,0,0.184,3.587,9.373,0.102,0.080,-0.011,1.415,-5.657,11.430,3.772,-0.940,-1.693,happy
0.17,2122,2503,3435,2985,3025,299,2726,3216,0,4,0,0,0,9,20,0,0.199,3.618,9.160,0.100,0.094,-0.017,-0.060,-5.210,11.131,3.636,-1.020,-1.665,happy
0.18,2225,2559,3487,3056,3017,191,2482,3019,0,0,0,0,0,3,0,0,0.165,3.670,9.273,0.122,0.116,-0.014,-0.927,-5.813,13.659,3.352,-1.349,-1.121,happy
0.19,2315,2658,3547,3133,2960,81,2208,2725,0,0,0,0,0,23,0,0,0.089,3.747,9.311,0.133,0.125,-0.007,-0.807,-7.903,16.542,3.326,-1.966,-0.570,happy
0.20,2513,2663,3612,3205,2856,0,1819,2146,36,0,0,0,0,0,0,0,0.113,3.742,9.426,0.171,0.131,0.005,0.515,-8.916,15.838,3.293,-2.318,-0.422,happy
0.21,2551,2714,3670,3293,2763,0,1645,1188,0,0,0,0,0,0,0,0,0.091,3.704,9.129,0.185,0.126,0.020,4.640,-12.895,14.126,2.988,-2.515,-0.642,happy
0.22,2675,2793,3750,3376,2672,0,1112,0,0,0,0,5,0,0,0,13,0.062,3.828,9.409,0.228,0.079,0.039,4.295,-19.213,12.373,2.438,-1.548,-1.681,happy
0.23,2767,2839,3757,3433,2559,0,710,0,0,0,0,0,0,0,0,0,0.127,3.764,9.299,0.240,0.079,0.037,6.254,-17.767,6.206,1.855,-1.632,-2.586,happy
0.24,2847,2911,3788,3485,2512,0,364,0,0,16,0,0,0,0,0,0,0.160,3.725,9.325,0.294,0.080,0.054,1.997,-18.340,-1.355,1.415,-0.636,-2.875,happy
0.25,2945,2965,3812,3515,2369,0,28,0,0,18,0,0,0,0,0,0,0.177,3.721,9.275,0.323,0.087,0.063,-4.815,-17.988,-3.917,0.493,-0.400,-2.548,happy
0.26,3011,2992,3833,3557,2146,0,0,0,0,0,89,4,0,0,0,31,0.292,3.972,9.426,0.395,0.066,0.099,-6.129,-19.252,-3.900,-0.516,-0.521,-2.116,happy
0.27,3089,3011,3859,3598,1814,0,0,0,0,0,0,0,0,0,0,0,0.153,3.237,9.412,0.536,0.061,0.187,-1.441,-17.664,-8.365,-2.620,-0.725,-1.847,happy
0.28,3181,3005,3888,3629,1575,0,0,0,0,0,0,0,0,11,0,0,0.017,5.037,8.653,0.447,0.103,0.174,5.030,-6.965,-1.262,-1.846,2.263,-0.560,happy
0.29,3251,2950,3888,3652,1364,0,0,0,0,0,0,0,0,0,301,0,0.113,3.634,8.653,0.698,0.064,0.275,6.601,0.041,18.138,-1.004,4.445,-0.501,happy
0.30,3340,2842,3907,3670,1130,0,0,0,2,7,0,0,0,0,261,635,-0.062,4.216,9.100,0.907,0.051,0.364,-6.498,9.615,16.321,-2.989,1.143,-1.350,happy
0.31,3411,2647,3906,3686,785,0,0,0,0,0,0,0,0,0,143,2056,0.498,3.697,9.335,1.143,0.054,0.480,-19.458,4.858,10.068,-4.126,-0.221,0.078,happy
0.32,3487,2528,3915,3696,427,0,0,0,0,0,0,0,0,0,244,2888,0.498,3.555,9.340,1.450,0.200,0.559,-12.040,-4.726,13.910,-3.584,0.676,1.847,happy
0.33,3554,2466,3902,3689,235,0,0,0,0,0,0,0,0,0,584,3508,0.338,4.005,8.820,1.779,0.409,0.626,1.645,-8.916,14.499,-2.934,0.183,1.524,happy
0.34,3613,2333,3886,3687,0,0,0,0,0,0,0,0,4,0,940,3695,0.426,4.298,8.746,1.843,0.629,0.652,5.059,-1.695,5.332,-2.910,-0.183,0.898,happy
0.35,3649,2224,3850,3642,0,0,0,0,0,0,0,0,0,0,1511,3833,0.543,4.760,9.196,2.044,0.878,0.684,19.613,2.926,19.446,-3.075,-0.400,1.116,happy
0.36,3693,2123,3774,3583,0,0,0,0,0,0,0,0,0,0,1643,3878,1.817,5.715,9.117,2.346,0.911,0.679,-8.416,-15.364,19.613,-0.982,0.784,-0.559,happy
0.37,3697,1949,3646,3476,0,0,0,0,0,85,0,0,63,0,2055,3931,0.563,4.190,7.915,2.616,1.185,0.691,-5.693,5.880,15.103,-0.297,2.398,0.943,happy
0.38,3693,1757,3444,3254,0,0,0,0,0,159,5,0,121,0,2088,3973,1.283,5.059,8.114,2.897,1.470,0.634,0.333,-5.538,14.004,-0.195,0.957,0.225,happy
0.39,3520,1596,3013,2486,0,0,0,0,0,334,0,0,145,0,2297,3996,0.496,4.822,8.775,3.809,1.319,0.334,1.489,-3.737,10.558,0.047,0.630,0.175,happy
0.40,3360,1408,2751,2063,0,0,0,0,17,655,5,0,219,0,2493,4020,-0.709,5.878,14.308,4.716,0.978,-0.080,1.326,-2.239,9.503,0.070,0.489,0.143,happy
0.41,1811,149,1802,1263,0,0,0,0,0,925,2,0,359,0,2760,4053,-4.786,13.326,18.608,5.346,0.102,-1.333,1.061,-2.320,9.591,0.039,0.289,0.143,happy
0.42,853,0,181,247,0,0,0,0,0,1261,5,409,495,0,2915,4077,-3.697,8.641,10.353,6.476,-1.045,-2.442,0.670,-2.351,10.250,-0.018,0.218,0.148,happy
0.43,97,0,0,0,0,0,0,0,0,1383,7,725,535,0,3053,4089,-2.404,8.741,11.894,6.991,-1.090,-3.129,1.001,-2.535,9.912,0.021,0.216,0.126,happy
0.44,0,0,0,0,0,0,0,0,7,1349,5,1142,741,0,3139,4095,-2.746,9.208,19.613,4.542,-1.385,-3.231,0.821,-2.500,9.828,0.038,0.186,0.123,happy
0.45,0,0,0,0,0,0,0,0,2,1597,749,1528,1166,3,3187,4095,2.433,5.689,19.613,0.791,-0.424,-4.363,1.070,-2.739,9.857,0.022,0.171,0.094,happy
0.46,0,0,0,0,0,0,0,0,1,1631,1666,1791,1427,2,3279,4095,0.575,9.029,19.211,-0.508,-1.654,-2.153,0.996,-2.332,10.137,0.042,0.195,0.082,happy
0.47,0,0,0,0,0,0,0,0,2,1644,1896,1965,1599,1,3323,4095,3.876,1.223,10.949,-1.399,-1.614,-2.103,1.264,-2.957,9.855,0.034,0.168,0.049,happy
0.48,0,0,0,0,0,0,0,0,0,1747,2075,2123,1839,1,3379,4095,5.744,2.236,5.701,-2.082,-0.898,-1.687,0.910,-2.483,9.816,-0.002,0.104,0.031,happy
0.49,0,0,0,0,0,0,0,0,6,1791,2346,2291,1963,0,3421,4095,4.101,0.520,5.013,-2.012,-0.793,-1.247,0.697,-1.520,9.675,-0.014,0.077,0.053,happy
0.50,0,0,0,0,0,0,0,0,0,1848,2400,2334,2074,5,3456,4095,3.426,2.289,6.438,-2.175,-1.099,-0.711,1.073,-2.705,9.661,-0.016,0.076,0.086,happy
0.51,0,0,0,0,0,0,0,0,11,1977,2487,2479,2246,3,3479,4091,2.851,2.686,7.633,-2.428,-1.369,-0.279,0.948,-2.583,9.725,-0.038,0.064,0.081,happy
0.52,0,0,0,0,0,0,0,0,1,2040,2533,2542,2325,11,3485,4071,2.907,3.357,7.484,-2.790,-1.325,0.104,0.871,-2.373,9.649,-0.076,0.063,0.086,happy
0.53,0,0,0,0,0,0,0,0,0,2133,2531,2597,2377,10,3484,3979,1.784,3.579,7.104,-3.056,-1.139,0.369,0.857,-2.602,9.689,-0.067,0.050,0.084,happy
0.54,0,0,0,0,0,0,0,0,1,2139,2561,2719,2421,0,3468,4005,-0.067,4.480,7.901,-3.182,-1.095,0.566,0.972,-2.555,9.677,-0.075,0.042,0.060,happy
0.55,0,0,0,0,0,0,0,0,2,2189,2569,2771,2476,5,3451,3960,-1.281,5.301,8.329,-3.382,-1.208,0.687,0.838,-2.528,9.766,-0.091,0.031,0.069,happy
0.56,0,0,0,0,0,0,0,0,3,2213,2613,2824,2583,3,3534,3903,-2.162,5.643,8.691,-3.510,-1.305,0.718,0.895,-2.543,9.780,-0.089,0.031,0.058,happy
0.57,0,0,0,0,0,0,0,0,3,2313,2684,2917,2646,0,3384,3849,-2.624,6.167,8.562,-3.607,-1.285,0.720,0.857,-2.468,9.804,-0.087,0.035,0.049,happy
0.58,0,0,0,0,0,0,0,0,0,2297,2654,2959,2671,5,3353,3811,-3.385,6.515,8.724,-3.628,-1.286,0.669,0.946,-2.614,9.534,-0.040,0.030,0.058,happy
0.59,0,0,0,0,0,0,0,0,31,2311,2695,2987,2696,10,3301,3675,-3.383,7.068,8.471,-3.601,-1.370,0.625,0.871,-2.418,9.629,-0.106,0.042,0.052,happy
0.60,0,0,0,0,0,0,0,0,85,2379,2751,3116,2789,23,3165,3451,-1.915,7.365,9.019,-3.426,-1.419,0.670,0.745,-2.301,9.807,-0.082,0.017,0.058,happy
0.61,0,0,0,0,0,0,0,0,181,2471,2817,3208,2868,43,2997,3302,-0.565,8.478,10.154,-3.399,-1.243,0.820,0.821,-2.631,9.776,-0.062,0.014,0.028,happy
0.62,0,0,0,0,0,0,0,0,278,2476,2851,3247,2835,73,2775,3221,-0.182,8.423,9.847,-3.241,-1.219,1.037,0.733,-2.464,9.804,-0.044,-0.018,0.028,happy
0.63,0,0,0,0,0,0,0,0,474,2579,2897,3348,2968,51,2645,3117,0.158,8.617,10.704,-2.989,-1.339,1.338,0.809,-2.574,9.665,-0.066,0.012,0.021,happy
0.64,0,0,0,0,0,0,0,0,597,2635,2925,3383,3017,54,2587,2922,-0.060,8.655,10.953,-2.736,-1.113,1.592,0.783,-2.521,9.835,-0.079,-0.004,0.015,happy
0.65,0,0,0,0,0,0,0,0,606,2655,2940,3448,3046,51,2507,2813,-2.689,9.503,13.482,-2.665,-0.840,1.602,0.826,-2.689,9.790,-0.086,-0.010,0.015,happy
0.66,0,0,0,0,0,0,0,0,852,2703,2968,3540,3077,51,2299,2441,-6.656,10.058,14.236,-2.738,-1.174,1.374,0.886,-2.562,9.627,-0.104,0.006,0.013,happy
0.67,0,0,0,0,0,0,0,0,1056,2715,2984,3604,3029,59,1940,1752,-6.208,10.508,10.913,-2.400,-1.285,0.981,0.883,-2.698,9.627,-0.101,-0.016,0.013,happy
0.68,0,0,0,0,0,0,0,0,1177,2717,3002,3656,2953,51,1811,1471,-3.742,13.719,8.310,-1.970,-1.058,0.747,0.816,-2.660,9.732,-0.091,-0.007,0.019,happy
0.69,0,0,0,0,0,0,0,0,1382,2827,3020,3733,2709,47,1509,925,-6.823,14.866,-0.505,-1.452,-1.522,0.322,0.838,-2.449,9.653,-0.148,-0.014,-0.005,happy
0.70,0,0,0,0,0,0,0,0,1526,2937,3048,3771,2591,48,818,486,-6.021,14.746,-4.999,-0.011,-2.195,0.040,0.886,-2.804,9.500,-0.131,-0.003,0.010,happy
0.71,0,0,0,0,0,0,0,0,1715,2983,3053,3800,2492,50,403,436,-1.829,14.985,-3.658,1.096,-1.088,-0.088,0.934,-2.655,9.426,-0.121,-0.010,0.010,happy
0.72,0,0,0,0,0,0,0,0,1928,3092,3068,3862,1994,36,167,347,10.843,2.983,19.613,0.990,3.766,-0.328,0.776,-1.681,9.685,-0.366,0.035,-0.096,happy
0.73,0,0,0,0,0,0,131,1079,2102,3193,3078,3919,1277,26,191,160,1.508,-5.753,3.903,2.561,-0.233,1.638,0.934,-3.321,9.579,-0.526,0.089,-0.045,happy
0.74,0,0,0,0,0,0,144,2686,2259,3180,3081,3883,859,26,109,104,-12.831,3.687,14.981,2.898,0.608,-0.480,0.917,-2.490,9.536,-0.573,-0.030,-0.135,happy
0.75,0,0,0,0,0,0,293,3308,2405,3195,3096,3940,517,7,87,23,-2.124,1.528,8.815,2.551,-0.166,-0.407,1.176,-2.253,9.328,-0.770,-0.232,-0.210,happy
0.76,0,0,0,0,0,0,1255,3504,2511,3147,3104,3903,355,0,0,0,2.576,5.499,9.953,2.583,-0.264,-0.316,1.238,-3.093,9.656,-0.979,-0.402,-0.293,happy
0.77,0,0,0,0,622,0,2091,3504,2549,3055,3145,3870,303,0,0,0,0.587,9.354,18.536,1.622,2.955,-1.634,1.226,-3.110,9.376,-1.163,-0.378,-0.286,happy
0.78,179,34,0,0,1069,0,2447,3511,2315,2863,3137,3815,189,0,0,0,-8.035,4.391,19.613,1.319,1.663,-0.913,1.676,-3.352,9.574,-1.693,0.004,-0.322,happy
0.79,560,379,356,0,1403,0,2629,3547,1957,2507,3165,3701,44,0,0,0,-1.137,4.453,13.439,0.450,0.562,-0.273,1.374,-3.433,9.471,-2.717,0.485,-0.348,happy
0.80,911,1065,1437,346,1669,7,2867,3650,1765,2215,3158,3596,0,0,0,0,0.543,4.628,10.317,0.199,0.286,-0.123,1.566,-4.082,9.785,-3.123,0.509,-0.204,happy
0.81,1010,1359,2154,793,1712,0,3008,3695,1123,1549,2930,3126,27,0,2,0,0.613,3.366,9.282,0.150,0.203,-0.122,1.257,-2.801,11.145,-4.211,0.709,0.066,happy
0.82,1072,1399,2432,1239,1999,0,3100,3727,649,421,53,1246,8,0,13,0,0.373,3.725,9.519,0.084,0.123,-0.037,1.065,-6.285,14.152,-5.660,-0.362,0.965,happy
0.83,1200,1577,2675,1639,2320,96,3210,3755,579,271,0,249,0,0,35,0,0.019,3.692,9.507,0.108,0.023,0.009,0.883,-7.532,15.320,-6.370,-1.241,1.448,happy
0.84,1323,1727,2843,2001,2602,711,3302,3770,0,0,0,0,0,0,0,17,0.285,3.747,9.505,0.065,0.057,-0.017,1.410,-11.530,10.834,-7.371,-2.612,1.771,happy
0.85,1460,1810,2978,2218,2787,731,3379,3761,0,0,2,0,0,0,0,0,0.345,3.572,9.323,0.091,0.019,-0.015,6.606,-10.985,13.467,-3.436,-0.947,2.784,happy
0.86,1600,1968,3091,2402,2929,1103,3418,3760,0,0,0,0,0,0,0,0,0.280,3.704,9.349,0.073,0.055,-0.034,6.725,-2.746,18.706,-0.762,0.831,3.284,happy
0.87,1726,2068,3169,2526,3033,1329,3409,3721,0,0,0,0,0,0,22,0,0.232,3.654,9.290,0.070,0.044,-0.017,4.822,1.949,12.759,1.766,-0.322,0.649,happy
0.88,1872,2173,3269,2637,3135,875,3381,3656,0,0,0,0,0,17,0,0,0.172,3.563,9.452,0.082,0.030,-0.005,3.316,0.345,6.352,2.530,0.851,0.677,happy
0.89,1986,2295,3330,2719,3187,658,3311,3559,0,0,0,0,0,0,0,0,0.220,3.508,9.306,0.116,0.003,-0.008,3.239,-0.831,6.594,2.664,0.764,0.509,happy
0.90,2057,2406,3392,2801,3224,390,3215,3439,0,0,0,0,0,0,0,0,0.350,3.668,9.347,0.115,0.019,-0.013,3.613,-2.035,7.094,3.226,0.237,0.179,happy
0.91,2112,2487,3445,2889,3277,0,3091,3298,0,0,0,0,0,0,0,0,0.309,3.776,9.273,0.107,0.023,-0.016,3.840,-4.168,7.846,3.723,-0.001,-0.253,happy
0.92,2145,2555,3504,2956,3243,0,2970,3146,0,0,0,0,0,0,0,0,0.299,3.709,9.352,0.109,0.039,-0.016,3.390,-5.033,7.927,3.869,-0.126,-0.454,happy
0.93,2192,2654,3551,3022,3311,0,2815,2950,6,0,0,0,0,0,0,0,0.347,3.735,9.301,0.111,0.066,-0.017,2.978,-6.323,8.066,3.876,-0.419,-0.747,happy
0.94,2230,2750,3600,3094,3330,0,2555,2672,0,0,2,29,0,0,0,0,0.225,3.711,9.282,0.101,0.080,-0.016,3.472,-7.894,9.924,3.826,-0.711,-1.119,happy
0.95,2275,2800,3639,3138,3345,0,2309,2298,0,0,0,0,0,0,0,0,0.230,3.661,9.206,0.102,0.084,-0.014,4.195,-7.803,9.330,3.732,-0.721,-1.399,happy
0.96,2338,2868,3670,3196,3338,0,2066,1858,0,0,0,0,0,0,0,0,0.115,3.677,9.385,0.130,0.078,-0.004,4.094,-7.233,9.577,3.454,-0.534,-1.902,happy
0.97,2390,2912,3712,3243,3344,0,1810,1286,0,28,0,0,10,0,0,0,0.218,3.733,9.297,0.127,0.075,0.010,1.954,-7.106,11.329,3.279,-0.701,-1.944,happy
0.98,2492,2967,3734,3280,3329,0,1614,367,0,0,0,0,0,0,0,0,0.160,3.709,9.275,0.131,0.072,0.007,1.073,-6.505,11.439,3.183,-0.911,-1.723,happy
0.99,2510,3011,3751,3315,3307,0,1496,0,0,0,74,0,0,0,0,0,0.196,3.836,9.194,0.135,0.079,0.007,0.541,-6.574,12.412,3.095,-1.127,-1.406,happy
1.00,2534,3039,3774,3344,3253,0,1343,0,0,19,2,0,0,0,0,0,0.218,3.809,9.342,0.154,0.094,0.005,0.316,-6.711,13.151,3.012,-1.406,-1.106,happy
1.01,2609,3062,3776,3375,3139,0,1130,0,0,0,0,0,0,0,0,0,0.146,3.785,9.301,0.153,0.092,0.001,-0.022,-7.082,14.193,2.879,-1.885,-0.795,happy
1.02,2639,3099,3775,3399,3011,0,904,0,0,0,0,0,0,0,0,0,0.182,3.706,9.220,0.155,0.093,0.004,-0.445,-8.760,15.129,2.811,-2.679,-0.549,happy
1.03,2653,3129,3814,3413,2896,0,731,0,0,29,5,0,0,0,0,0,0.168,3.790,9.316,0.161,0.096,0.006,1.118,-10.106,14.138,2.684,-3.293,-0.435,happy
1.04,2701,3152,3824,3440,2879,0,464,0,0,0,0,0,0,0,0,0,0.117,3.903,9.325,0.166,0.091,0.003,3.433,-12.088,12.402,2.554,-3.413,-0.460,happy
1.05,2751,3186,3856,3463,2848,0,351,0,0,0,0,0,0,0,0,0,0.189,3.862,9.337,0.190,0.088,0.006,4.937,-13.542,11.420,2.429,-2.941,-0.493,happy
1.06,2805,3227,3857,3493,2737,0,154,0,0,40,0,0,0,23,0,0,0.124,3.958,9.215,0.189,0.090,0.007,4.168,-14.741,10.180,2.255,-2.763,-0.717,happy
1.07,2864,3274,3853,3511,2705,0,26,0,0,0,0,0,0,0,0,0,0.187,3.972,9.290,0.244,0.111,0.027,3.261,-14.521,6.622,1.951,-2.594,-1.183,happy
1.08,2925,3310,3877,3536,2624,0,0,0,0,0,0,0,0,0,0,0,0.342,4.128,9.316,0.248,0.130,0.019,3.050,-13.915,2.490,1.245,-2.423,-1.686,happy
1.09,2980,3343,3897,3563,2339,0,0,0,0,0,0,0,0,0,30,0,0.151,3.790,9.127,0.225,0.078,0.014,2.782,-14.157,-0.034,0.384,-1.727,-2.015,happy
1.10,3027,3366,3905,3575,2106,0,0,0,0,0,0,0,0,0,0,0,0.115,4.432,9.005,0.368,0.118,0.096,-1.662,-14.904,-0.192,-0.339,-1.345,-2.027,happy
1.11,3067,3391,3917,3600,1907,0,0,0,0,0,0,0,0,0,0,0,0.017,3.759,9.120,0.443,0.112,0.119,-4.125,-15.953,-0.146,-1.046,-1.651,-1.852,happy
1.12,3106,3409,3931,3615,1826,0,0,0,0,0,2,0,0,0,13,0,0.172,3.967,9.187,0.458,0.114,0.137,-3.838,-15.799,-0.711,-1.633,-1.736,-1.517,happy
1.13,3152,3420,3935,3632,1639,0,0,0,0,3,0,0,0,0,0,0,0.115,4.051,9.306,0.508,0.086,0.176,13.736,-5.897,-8.068,-4.166,0.100,-2.551,happy
1.14,3207,3429,3945,3638,1490,0,0,0,0,0,0,0,0,0,344,0,0.261,4.039,9.251,0.604,0.037,0.222,8.758,-9.182,14.655,-2.134,4.093,-1.132,happy
1.15,3241,3427,3947,3648,1392,0,0,0,1,0,0,36,0,0,354,0,0.292,3.802,8.882,0.665,-0.036,0.249,2.952,-1.645,18.411,-2.669,2.026,-1.845,happy
1.16,3289,3392,3952,3649,1072,0,0,0,0,0,0,0,0,0,408,0,0.654,3.785,9.376,0.770,-0.045,0.315,-6.182,1.652,11.315,-2.870,2.473,-0.863,happy
1.17,3353,3337,3952,3651,883,0,0,0,0,0,0,0,0,0,569,1171,0.345,4.173,9.062,0.992,-0.014,0.405,-16.707,3.598,19.613,-3.059,2.207,1.394,happy
1.18,3391,3218,3935,3648,691,0,0,0,0,0,25,0,0,0,729,2581,0.685,4.092,9.347,1.224,0.101,0.476,-12.689,-3.084,16.333,-2.863,1.069,2.010,happy
1.19,3433,2555,3920,3605,300,0,0,0,0,2,0,0,0,0,1577,3496,-0.026,4.204,8.624,1.768,0.271,0.520,8.126,-3.081,9.328,-2.246,0.215,1.407,happy
1.20,3440,2495,3881,3568,123,0,0,0,0,185,0,0,277,0,2101,3703,0.376,4.243,8.990,2.023,0.483,0.540,-2.231,-19.613,8.159,-0.519,2.359,0.818,happy
1.21,3408,2293,3817,3457,0,0,0,0,0,492,0,0,381,0,2463,3927,0.309,4.417,8.382,2.507,0.646,0.560,-0.479,-3.792,15.402,-0.082,1.745,0.555,happy
1.22,3281,2126,3735,2983,0,0,0,0,0,690,0,0,403,0,2675,3992,0.409,5.993,8.475,2.904,0.603,0.493,1.568,-4.228,12.285,0.132,1.125,0.198,happy
1.23,3099,2114,3647,2243,0,0,0,0,0,869,2,20,437,0,2829,4088,0.558,5.138,10.410,3.019,0.448,0.285,1.769,-2.734,10.597,0.192,0.854,0.121,happy
1.24,2047,1648,3141,1525,0,0,0,0,0,1165,66,0,907,0,3015,4057,-2.186,7.807,14.746,4.671,-1.241,-0.097,2.231,-2.670,9.713,0.153,0.420,0.035,happy
1.25,1335,770,1998,251,0,0,0,0,0,1381,0,0,1557,2,3187,4083,-3.084,11.935,15.914,6.465,-2.322,-1.103,1.566,-2.184,9.550,0.033,0.377,0.118,happy
1.26,563,0,0,0,0,0,0,0,0,1429,0,0,1833,0,3239,4067,-2.813,8.329,11.416,7.357,-2.695,-1.443,1.415,-2.279,10.063,0.023,0.329,0.112,happy
1.27,160,0,0,0,0,0,0,0,0,1509,7,0,2058,0,3320,4095,1.396,10.544,8.784,5.715,-2.904,-1.568,1.776,-2.514,9.651,0.055,0.240,0.069,happy
1.28,0,0,0,0,0,0,0,0,0,1559,10,0,2314,0,3365,4095,1.618,9.230,15.215,3.525,-1.641,-2.150,1.355,-2.440,10.171,0.043,0.200,0.039,happy
1.29,0,0,0,0,0,0,0,0,0,1592,10,0,2453,0,3451,4095,-3.445,18.201,16.264,0.744,-0.804,-3.415,1.688,-2.157,9.802,0.050,0.175,0.032,happy
1.30,0,0,0,0,0,0,0,0,0,1699,1338,0,2618,1,3512,4095,-4.056,-2.133,15.919,-0.552,-1.568,-2.788,1.568,-2.253,9.747,0.040,0.165,0.053,happy
1.31,0,0,0,0,0,0,0,0,0,1677,1359,0,2766,0,3565,4095,2.363,2.440,9.651,-1.301,-0.999,-3.292,1.544,-2.176,9.747,0.027,0.173,0.071,happy
1.32,0,0,0,0,0,0,0,0,0,1831,1369,0,2793,0,3622,4095,2.576,1.683,11.040,-1.866,-0.824,-3.132,1.530,-2.253,9.823,0.023,0.192,0.080,happy
1.33,0,0,0,0,0,0,0,0,4,1927,1778,29,2872,1,3693,4095,4.051,2.243,8.047,-2.304,-0.741,-2.718,1.434,-2.195,9.771,0.002,0.195,0.096,happy
1.34,0,0,0,0,0,0,0,0,27,1994,2341,160,2968,5,3687,4095,4.355,1.403,6.088,-2.540,-0.601,-2.282,1.379,-2.224,9.941,0.000,0.185,0.110,happy
1.35,0,0,0,0,0,0,0,0,4,2054,2408,333,3027,7,3695,4063,4.942,1.927,5.423,-2.591,-0.461,-1.787,1.341,-2.205,9.826,0.015,0.200,0.118,happy
1.36,0,0,0,0,0,0,0,0,4,2183,2451,443,3087,5,3695,3960,4.822,2.976,6.788,-2.737,-0.355,-1.300,1.255,-2.100,10.034,-0.001,0.212,0.168,happy
1.37,0,0,0,0,0,0,0,0,5,2253,2546,646,3107,5,3693,4012,4.120,4.480,8.073,-2.957,-0.494,-0.775,1.429,-2.150,9.567,-0.050,0.200,0.171,happy
1.38,0,0,0,0,0,0,0,0,4,2310,2579,1068,3112,5,3687,3965,3.529,5.602,8.329,-3.207,-0.709,-0.248,1.597,-2.794,9.874,0.005,0.246,0.187,happy
1.39,0,0,0,0,0,0,0,0,5,2385,2641,1415,3125,5,3671,3921,3.519,5.981,7.037,-3.366,-0.854,0.274,1.305,-2.454,9.835,-0.048,0.163,0.123,happy
1.40,0,0,0,0,0,0,0,0,5,2431,2659,1637,3134,5,3593,3861,3.361,6.220,6.756,-3.330,-0.786,0.725,1.207,-2.418,9.845,-0.127,0.139,0.147,happy
1.41,0,0,0,0,0,0,0,0,5,2503,2666,1837,3153,6,3639,3816,2.471,7.508,8.159,-3.324,-0.684,1.140,1.312,-2.471,9.764,-0.082,0.099,0.065,happy
1.42,0,0,0,0,0,0,0,0,53,2474,2756,1951,3177,6,3628,3812,0.910,8.236,9.117,-3.426,-0.666,1.440,1.329,-2.480,9.747,-0.067,0.097,0.115,happy
1.43,0,0,0,0,0,0,0,0,7,2535,2766,2009,3263,7,3611,3769,-0.673,8.684,9.179,-3.476,-0.787,1.583,1.264,-2.433,9.687,-0.095,0.097,0.137,happy
1.44,0,0,0,0,0,0,0,0,5,2556,2771,2232,3253,1,3593,3709,-1.575,8.662,8.736,-3.414,-0.917,1.564,1.240,-2.373,9.852,-0.087,0.089,0.127,happy
1.45,0,0,0,0,0,0,0,0,0,2600,2782,2283,3308,0,3579,3707,-2.088,8.926,9.076,-3.269,-1.055,1.409,1.216,-2.588,9.661,-0.066,0.084,0.116,happy
1.46,0,0,0,0,0,0,0,0,4,2632,2853,2393,3427,0,3578,3695,-0.924,9.531,9.318,-3.212,-0.947,1.191,1.281,-2.363,9.594,-0.060,0.083,0.108,happy
1.47,0,0,0,0,0,0,0,0,5,2669,2833,2554,3398,7,3565,3691,0.204,9.282,8.995,-3.175,-0.707,1.044,1.106,-2.449,9.862,-0.071,0.075,0.115,happy
1.48,0,0,0,0,0,0,0,0,5,2711,2843,2619,3447,73,3556,3683,0.948,8.861,9.076,-3.029,-0.579,1.019,1.073,-2.409,9.883,-0.061,0.071,0.107,happy
1.49,0,0,0,0,0,0,0,0,5,2772,2799,2683,3493,0,3537,3643,1.755,8.978,9.498,-2.892,-0.524,1.093,1.190,-2.449,9.694,-0.053,0.067,0.094,happy
1.50,0,0,0,0,0,0,0,0,3,2793,2851,2729,3527,5,3514,3605,2.030,9.194,10.235,-2.795,-0.543,1.241,1.214,-2.512,9.668,-0.036,0.059,0.090,happy
1.51,0,0,0,0,0,0,0,0,0,2804,2853,2749,3556,6,3491,3563,2.100,9.395,10.791,-2.746,-0.658,1.460,1.132,-2.365,9.694,-0.061,0.052,0.093,happy
1.52,0,0,0,0,0,0,0,0,5,2872,2863,2781,3581,7,3433,3512,1.788,9.201,10.604,-2.675,-0.861,1.697,1.073,-2.528,9.895,-0.088,0.065,0.080,happy
1.53,0,0,0,0,0,0,0,0,6,2885,2863,2813,3612,53,3370,3464,1.336,8.988,10.645,-2.550,-0.985,1.852,1.274,-2.466,9.457,-0.055,0.038,0.086,happy
1.54,0,0,0,0,0,0,0,0,5,2903,2902,2874,3637,6,3177,3400,0.740,8.373,10.240,-2.435,-0.940,1.916,1.058,-2.459,9.618,-0.070,0.053,0.082,happy
1.55,0,0,0,0,0,0,0,0,13,2955,2886,2991,3644,0,3047,3411,-0.436,8.064,10.410,-2.265,-0.814,1.848,1.128,-2.497,9.656,-0.073,0.035,0.079,happy
1.56,0,0,0,0,0,0,0,0,4,3012,2920,2911,3675,1,2968,3149,-4.513,8.885,13.738,-2.197,-1.033,1.595,1.082,-2.509,9.644,-0.122,0.044,0.057,happy
1.57,0,0,0,0,0,0,0,0,5,3019,2935,3029,3683,7,2917,3029,-5.629,9.026,13.350,-2.331,-1.322,1.336,1.202,-2.555,9.766,-0.134,0.043,0.046,happy
1.58,0,0,0,0,0,0,0,0,0,3065,2935,3087,3694,9,2889,2923,-4.386,8.487,10.901,-2.370,-1.182,0.983,1.051,-2.579,9.934,-0.137,0.041,0.044,happy
1.59,0,0,0,0,0,0,0,0,26,3111,2966,3129,3703,11,2859,2727,-3.093,8.284,8.399,-2.158,-0.573,0.520,1.041,-2.569,9.744,-0.121,0.041,0.049,happy
1.60,0,0,0,0,0,0,0,0,89,3198,3002,3182,3711,26,2651,2254,-5.442,9.948,3.931,-1.698,-0.457,-0.557,1.094,-2.605,9.833,-0.124,-0.011,0.035,happy
1.61,0,0,0,0,0,0,0,0,77,3249,3017,3213,3709,25,2541,1994,-4.820,10.748,1.168,-0.553,-1.719,-1.146,1.104,-2.670,9.627,-0.155,0.017,0.010,happy
1.62,0,0,0,0,0,0,0,0,351,3365,2899,3243,3684,53,2485,1311,-0.024,12.886,0.642,0.106,-1.179,-0.928,1.097,-2.744,9.744,-0.130,0.044,0.003,happy
1.63,0,0,0,0,0,0,0,0,458,3443,3055,3339,3593,53,2265,845,3.472,2.471,3.120,0.663,0.070,-0.244,0.986,-2.693,9.828,-0.094,0.020,0.008,happy
1.64,0,0,0,0,0,0,0,0,457,3463,3058,3370,3501,53,1979,676,9.843,-0.136,13.075,1.030,3.081,-0.126,1.077,-2.710,9.656,-0.083,0.010,0.011,happy
1.65,0,0,0,0,0,0,0,663,711,3511,3063,3402,3338,55,1851,381,2.363,-8.068,8.945,1.661,0.746,1.417,1.142,-2.849,9.641,-0.048,0.001,0.027,happy
1.66,0,0,0,0,0,0,30,2384,923,3557,3084,3407,3151,51,699,278,-13.841,-0.630,11.708,2.793,0.695,-0.353,1.068,-1.812,10.254,-0.035,-0.106,0.104,happy
1.67,0,0,0,0,0,0,257,3183,1008,3599,3089,3401,2613,50,367,280,-2.308,1.879,10.427,2.546,-0.022,-0.598,0.867,-1.743,9.206,-0.707,0.043,0.010,happy
1.68,0,0,0,0,0,0,523,3441,1065,3613,3061,3403,2108,40,233,294,3.065,4.398,10.238,2.816,-0.659,-0.175,1.094,-2.581,9.627,-0.756,-0.024,-0.046,happy
1.69,0,0,0,0,2,0,1531,3538,1309,3563,3084,3373,1051,25,155,204,1.882,6.050,11.183,2.098,-0.487,-0.237,1.111,-2.758,9.596,-0.595,-0.030,-0.126,happy
1.70,0,0,0,0,647,0,2376,3534,1487,3415,3071,3247,605,19,71,147,2.119,8.638,13.171,1.465,1.714,-1.035,1.592,-2.229,9.517,-0.994,-0.142,-0.180,happy
1.71,0,0,0,0,1136,0,2726,3582,1415,3272,3063,3311,468,0,39,0,-2.119,2.751,11.621,0.473,1.447,-0.624,1.803,-1.942,9.725,-1.293,-0.177,-0.212,happy
1.72,128,134,0,0,1395,0,2897,3661,1225,3034,3043,3199,394,3,117,0,-0.752,2.789,10.025,0.306,1.176,-0.456,1.657,-2.899,10.484,-2.115,0.154,-0.254,happy
1.73,292,509,341,0,1693,0,3034,3718,987,2717,2945,2887,311,0,0,0,1.322,3.244,9.519,0.142,0.658,-0.208,2.057,-3.682,9.819,-2.780,-0.007,-0.226,happy
1.74,402,910,1415,0,1867,0,3169,3759,939,2511,2799,2507,244,0,0,0,0.500,4.152,10.274,0.204,0.331,-0.138,1.326,-3.153,9.754,-3.175,-0.014,-0.224,happy
1.75,435,1187,2081,163,2187,0,3267,3795,403,1596,1486,983,180,0,0,0,0.414,3.349,9.591,0.145,0.228,-0.064,1.547,-3.852,12.179,-4.323,-0.240,0.092,happy
1.76,448,1437,2425,326,2459,0,3371,3824,499,701,2,55,0,0,0,0,0.395,3.381,9.421,0.093,0.079,-0.014,1.549,-5.916,14.262,-5.695,-1.515,0.839,happy
1.77,368,1685,2625,574,2783,0,3454,3846,297,328,2,0,0,0,0,0,0.345,3.512,9.467,0.076,0.054,-0.026,1.396,-8.217,13.745,-6.550,-2.630,1.147,happy
1.78,405,1829,2791,832,2943,0,3519,3856,0,0,0,0,0,0,0,0,0.390,3.479,9.517,0.078,0.082,-0.046,2.772,-10.745,10.664,-6.103,-3.232,1.495,happy
1.79,466,1919,2906,1011,3032,0,3558,3856,0,0,0,0,0,0,0,0,0.443,3.390,9.436,0.080,0.091,-0.039,6.809,-5.339,14.236,-1.589,0.305,3.158,happy
1.80,574,1948,2967,1091,3088,0,3583,3856,0,0,12,0,0,0,0,0,0.117,3.249,9.426,0.094,0.090,-0.049,2.562,0.419,16.623,0.519,1.219,3.295,happy
1.81,613,2018,3026,1215,3143,0,3583,3849,0,0,0,0,0,0,0,0,0.397,3.400,9.455,0.112,0.078,-0.061,-2.100,-2.811,19.501,0.876,0.232,1.421,happy
1.82,623,2100,3088,1342,3202,0,3610,3830,0,0,0,0,0,0,0,0,0.357,3.491,9.400,0.131,0.072,-0.070,1.729,0.915,10.060,1.847,-0.508,1.637,happy
1.83,684,2169,3125,1461,3223,0,3613,3821,0,0,0,0,0,17,0,0,0.268,3.314,9.438,0.140,0.077,-0.073,2.440,-0.273,6.321,2.236,-0.108,1.713,happy
1.84,770,2207,3173,1648,3217,0,3599,3802,0,0,10,0,0,0,22,0,0.306,3.503,9.424,0.152,0.074,-0.067,3.134,-0.187,6.941,2.583,-0.061,1.583,happy
1.85,887,2289,3232,1898,3249,0,3568,3762,0,0,0,0,31,0,0,0,0.350,3.546,9.421,0.152,0.068,-0.064,4.075,-1.733,6.941,2.832,0.254,1.314,happy
1.86,976,2334,3272,2031,3253,0,3551,3738,0,0,0,0,0,10,0,0,0.369,3.527,9.426,0.152,0.052,-0.058,4.219,-2.634,7.891,3.184,0.452,0.981,happy
1.87,1062,2384,3299,2160,3264,0,3527,3723,0,0,0,0,0,0,0,0,0.326,3.575,9.488,0.152,0.049,-0.053,3.589,-3.328,7.841,3.412,0.454,0.689,happy
1.88,1147,2446,3335,2266,3302,0,3503,3696,0,0,0,0,0,0,0,0,0.292,3.622,9.428,0.135,0.050,-0.052,3.170,-3.871,7.618,3.563,0.224,0.399,happy
1.89,1185,2482,3363,2352,3312,0,3465,3665,0,0,0,0,0,0,0,0,0.378,3.529,9.354,0.121,0.050,-0.046,3.383,-4.436,7.242,3.622,0.009,0.212,happy
1.90,1207,2515,3387,2416,3343,0,3456,3654,0,0,0,0,0,0,7,0,0.333,3.539,9.318,0.118,0.043,-0.042,3.630,-5.092,7.638,3.628,-0.206,0.054,happy
1.91,1325,2559,3405,2471,3351,0,3430,3631,0,0,17,21,0,0,0,0,0.323,3.563,9.311,0.129,0.046,-0.045,4.070,-5.964,8.289,3.621,-0.339,-0.176,happy
1.92,1424,2626,3439,2559,3393,0,3367,3582,0,0,0,0,0,0,0,0,0.321,3.639,9.352,0.106,0.045,-0.041,4.010,-7.017,9.031,3.588,-0.509,-0.771,happy
1.93,1535,2653,3467,2646,3408,0,3301,3547,0,0,0,27,0,0,0,0,0.311,3.567,9.371,0.099,0.050,-0.039,2.978,-7.214,9.948,3.450,-0.716,-1.259,happy
1.94,1673,2685,3492,2707,3414,0,3245,3523,0,0,0,0,0,0,0,0,0.297,3.677,9.364,0.097,0.050,-0.046,2.224,-6.977,10.118,3.393,-0.748,-1.401,happy
1.95,1728,2709,3505,2738,3397,91,3181,3501,0,0,0,11,0,0,0,0,0.330,3.654,9.354,0.092,0.062,-0.045,-0.589,-6.031,10.623,3.262,-0.720,-1.136,happy
1.96,1723,2711,3523,2762,3381,189,3100,3475,0,0,0,13,0,0,0,0,0.283,3.701,9.301,0.090,0.052,-0.040,-2.777,-6.096,12.819,3.205,-1.219,-0.249,happy
1.97,1739,2735,3537,2832,3366,241,3024,3442,0,0,0,1,0,0,0,0,0.211,3.615,9.515,0.093,0.063,-0.026,-2.641,-6.495,13.460,3.231,-1.453,0.161,happy
1.98,1911,2755,3564,2886,3332,307,2878,3393,0,0,0,0,0,0,0,0,0.227,3.551,9.323,0.080,0.059,-0.025,-3.488,-7.482,13.010,3.212,-1.442,0.848,happy
1.99,1988,2794,3574,2933,3302,255,2736,3296,0,0,0,0,0,0,0,0,0.266,3.627,9.309,0.080,0.056,-0.019,-5.602,-8.274,13.142,2.943,-1.657,1.530,happy
2.00,2031,2832,3617,2993,3283,5,2618,3184,0,0,0,0,0,11,0,0,0.208,3.670,9.285,0.087,0.068,-0.018,-5.547,-9.124,12.596,2.805,-1.856,1.830,happy
2.01,2144,2875,3648,3057,3266,0,2451,2992,0,0,0,0,0,0,0,0,0.259,3.661,9.304,0.099,0.076,-0.009,-5.207,-10.209,10.077,2.521,-1.696,2.303,happy
2.02,2263,2919,3683,3129,3202,0,2224,2608,0,0,0,0,0,0,0,0,0.187,3.649,9.337,0.137,0.109,-0.007,-4.171,-9.541,7.329,1.854,-1.219,2.218,happy
2.03,2397,2983,3724,3204,3047,0,1863,1943,0,0,0,0,0,0,0,0,0.223,3.701,9.299,0.159,0.136,0.006,-2.397,-9.689,6.199,1.402,-0.853,1.847,happy
2.04,2446,3014,3739,3241,2987,0,1648,1347,0,0,0,0,0,0,0,0,0.273,3.733,9.179,0.182,0.152,0.008,-1.882,-10.348,5.078,1.028,-0.339,1.468,happy
2.05,2585,3051,3783,3318,2830,0,1259,0,0,0,0,0,0,0,0,0,0.206,3.742,9.392,0.228,0.152,0.023,-1.456,-10.649,1.683,0.072,0.200,0.879,happy
2.06,2608,3093,3799,3349,2796,0,867,0,0,0,0,0,0,0,0,0,0.259,3.766,9.321,0.249,0.147,0.023,11.485,-13.776,-5.890,-0.969,1.620,-0.126,happy
2.07,2672,3123,3822,3385,2753,0,431,0,0,0,0,0,0,0,0,0,0.098,3.639,9.357,0.325,0.145,0.044,5.097,-3.610,12.965,0.272,2.571,0.443,happy
2.08,2730,3136,3839,3419,2542,0,164,0,41,0,0,0,0,37,0,0,0.180,3.749,9.165,0.362,0.106,0.050,3.658,4.575,14.564,-0.826,1.240,-0.422,happy
2.09,2792,3153,3858,3462,2307,0,19,0,0,0,0,0,0,0,0,0,0.352,3.646,9.306,0.429,0.079,0.088,1.279,6.529,5.210,-1.589,0.677,-0.153,happy
2.10,2838,3148,3858,3487,2015,0,0,0,0,0,0,0,0,0,17,1189,0.304,3.735,9.452,0.564,0.062,0.140,-0.546,1.300,8.485,-2.157,0.840,0.593,happy
2.11,2891,3147,3883,3526,1559,0,0,0,0,0,0,0,0,0,0,2392,0.196,3.443,9.127,0.792,0.107,0.256,-1.142,-2.715,11.255,-2.075,1.148,0.925,happy
2.12,2972,3056,3893,3548,1436,0,0,0,0,23,2,0,0,0,0,2955,0.520,3.797,9.268,0.879,0.040,0.328,1.065,-1.123,10.230,-2.370,0.560,0.645,happy
2.13,3017,2921,3907,3568,1251,0,0,0,0,0,0,0,0,0,587,3403,0.412,3.680,9.009,1.038,0.053,0.428,1.659,-1.978,8.487,-2.384,0.074,0.532,happy
2.14,3114,2686,3902,3568,1147,0,0,0,0,0,0,0,0,0,829,3611,0.218,4.185,9.067,1.157,0.095,0.501,1.434,-1.525,7.604,-2.749,-0.520,0.243,happy
2.15,3216,2490,3903,3578,784,0,0,0,0,0,0,3,0,0,1289,3725,0.323,3.903,9.215,1.191,0.301,0.535,0.062,-4.671,12.069,-2.618,-0.496,0.367,happy
2.16,3304,2303,3895,3583,487,0,0,0,0,0,17,0,0,21,1462,3782,0.393,4.733,8.521,1.395,0.328,0.594,6.625,-17.356,18.526,-0.259,1.796,-0.059,happy
2.17,3414,2165,3859,3550,60,0,0,0,0,0,0,0,0,0,1676,3887,0.345,4.192,9.151,1.755,0.663,0.606,-0.833,-3.888,13.271,-0.245,0.497,0.069,happy
2.18,3450,2045,3815,3499,0,0,0,0,0,155,0,0,0,0,1657,3917,0.194,4.044,8.480,2.105,0.718,0.618,1.877,-3.677,10.161,-0.177,0.410,0.104,happy
2.19,3472,1955,3755,3440,0,0,0,0,0,309,17,0,0,0,2155,3941,0.433,4.997,8.545,2.406,0.714,0.563,1.386,-2.430,10.257,-0.017,0.330,0.028,happy
2.20,3459,1767,3690,3312,0,0,0,0,0,329,20,0,0,0,2329,3832,0.172,5.042,7.724,2.520,0.880,0.472,1.489,-2.332,9.874,-0.017,0.272,0.060,happy
2.21,3415,1535,3583,2877,0,0,0,0,0,555,0,0,21,0,2483,3983,0.347,4.554,8.215,2.704,0.820,0.425,1.721,-2.500,9.752,-0.017,0.242,0.084,happy
2.22,3319,1468,3472,2087,0,0,0,0,0,637,104,0,30,0,2579,4012,0.527,5.246,10.671,3.208,0.703,0.307,1.403,-2.059,9.823,-0.046,0.241,0.118,happy
2.23,2992,1095,2739,1424,0,0,0,0,0,725,2,0,94,0,2734,4031,-1.137,7.772,12.708,4.236,-0.697,-0.408,1.274,-2.155,9.716,-0.069,0.260,0.157,happy
2.24,1792,22,1152,183,0,0,0,0,1,1037,1092,317,296,2,2935,4087,-0.733,9.792,14.382,5.807,-1.202,-1.320,1.281,-2.552,10.099,-0.056,0.246,0.169,happy
2.25,944,0,0,0,0,0,0,0,3,1252,1893,805,521,0,3111,4095,1.413,12.591,9.871,5.524,-0.875,-1.701,0.871,-2.284,10.048,-0.080,0.185,0.147,happy
2.26,400,0,0,0,0,0,0,0,2,1469,2188,1387,580,3,3172,4095,-0.584,12.280,16.386,3.702,-0.447,-1.300,0.893,-2.466,9.948,-0.063,0.127,0.091,happy
2.27,0,0,0,0,0,0,0,0,1,1635,2293,1420,601,4,3243,4095,-1.444,4.228,11.487,1.092,0.459,-2.579,1.089,-2.679,9.986,-0.032,0.050,0.035,happy
2.28,0,0,0,0,0,0,0,0,3,1753,2362,1565,755,5,3273,4095,-0.752,0.601,17.834,-1.026,0.216,-2.075,1.080,-2.533,9.917,-0.010,0.050,0.015,happy
2.29,0,0,0,0,0,0,0,0,5,1787,2387,1854,925,5,3351,4095,3.256,1.659,11.145,-1.862,0.516,-2.190,1.118,-2.409,9.917,-0.012,0.062,0.026,happy
2.30,0,0,0,0,0,0,0,0,61,1868,2449,1903,981,5,3409,4095,3.421,0.285,8.150,-2.195,0.628,-2.040,1.214,-2.543,9.876,-0.004,0.065,0.027,happy
2.31,0,0,0,0,0,0,0,0,5,1948,2469,2003,1053,5,3451,4095,4.156,0.924,7.025,-2.263,0.468,-1.646,1.142,-2.495,9.776,0.006,0.047,0.027,happy
2.32,0,0,0,0,0,0,0,0,0,2063,2449,2028,1251,6,3492,4095,5.009,1.551,7.058,-2.414,0.301,-1.120,1.097,-2.409,9.826,0.003,0.047,0.033,happy
2.33,0,0,0,0,0,0,0,0,3,2073,2444,2056,1356,4,3533,4095,6.084,2.626,6.919,-2.618,0.248,-0.515,1.159,-2.425,9.752,-0.005,0.052,0.042,happy
2.34,0,0,0,0,0,0,0,0,4,2131,2444,2167,1439,5,3538,4095,6.565,3.349,6.347,-2.842,0.359,0.121,1.044,-2.425,9.723,-0.018,0.058,0.055,happy
2.35,0,0,0,0,0,0,0,0,4,2154,2446,2120,1497,5,3551,4095,6.316,4.537,6.749,-3.002,0.446,0.779,1.053,-2.330,9.699,-0.035,0.048,0.065,happy
2.36,0,0,0,0,0,0,0,0,0,2163,2454,2140,1553,5,3556,4015,6.084,5.938,7.025,-3.156,0.485,1.481,1.144,-2.421,9.716,-0.057,0.082,0.084,happy
2.37,0,0,0,0,0,0,0,0,21,2185,2505,2139,1606,6,3555,4095,6.079,6.596,6.409,-3.245,0.517,2.192,1.065,-2.495,9.720,-0.058,0.088,0.087,happy
2.38,0,0,0,0,0,0,0,0,4,2214,2564,2222,1685,26,3563,4095,5.375,7.582,7.039,-3.213,0.558,2.898,1.094,-2.545,9.790,-0.058,0.081,0.079,happy
2.39,0,0,0,0,0,0,0,0,6,2230,2720,2231,1782,5,3591,4095,4.171,8.890,7.633,-3.196,0.459,3.528,1.113,-2.557,9.759,-0.039,0.085,0.077,happy
2.40,0,0,0,0,0,0,0,0,3,2247,2564,2285,1809,6,3561,4095,3.812,9.543,7.216,-3.110,0.384,4.029,1.156,-2.610,9.768,-0.023,0.096,0.069,happy
2.41,0,0,0,0,0,0,0,0,3,2267,2567,2363,1865,23,3565,4079,4.889,9.776,6.582,-2.933,0.662,4.391,1.001,-2.428,9.685,-0.044,0.100,0.084,happy
2.42,0,0,0,0,0,0,0,0,0,2263,2567,2387,1907,11,3566,4095,5.672,10.587,7.345,-2.783,1.123,4.614,1.094,-2.471,9.723,-0.052,0.112,0.104,happy
2.43,0,0,0,0,0,0,0,0,5,2263,2559,2399,1823,0,3562,4095,5.895,11.492,8.317,-2.728,1.540,4.787,1.022,-2.404,9.720,-0.080,0.123,0.119,happy
2.44,0,0,0,0,0,0,0,0,3,2259,2574,2415,1805,4,3549,4095,6.151,12.596,8.782,-2.717,1.648,5.049,0.986,-2.559,9.663,-0.110,0.098,0.128,happy
2.45,0,0,0,0,0,0,0,0,4,2239,2659,2439,1817,4,3519,4091,8.030,13.453,7.499,-2.672,1.815,5.424,0.828,-2.670,9.929,-0.080,0.120,0.119,happy
2.46,0,0,0,0,0,0,0,0,2,2293,2659,2535,2079,5,3541,4087,9.376,14.190,6.007,-2.452,2.110,5.938,0.900,-2.674,9.771,-0.050,0.107,0.088,happy
2.47,0,0,0,0,0,0,0,0,3,2333,2659,2628,2060,5,3533,4071,9.428,15.589,5.119,-2.150,2.440,6.529,0.936,-2.641,9.807,-0.033,0.103,0.074,happy
2.48,0,0,0,0,0,0,0,0,5,2355,2646,2680,2163,9,3532,4057,8.595,16.965,4.518,-1.796,2.667,7.090,0.929,-2.586,9.737,-0.031,0.079,0.063,happy
2.49,0,0,0,0,0,0,0,0,4,2455,2602,2695,2230,4,3525,4085,5.473,17.075,3.541,-1.377,2.758,7.486,0.982,-2.650,9.716,-0.039,0.070,0.055,happy
2.50,0,0,0,0,0,0,0,0,40,2510,2618,2711,2293,5,3513,4029,4.444,17.351,2.677,-0.881,2.678,7.545,0.934,-2.703,9.843,-0.020,0.074,0.047,happy
2.51,0,0,0,0,0,0,0,0,0,2503,2641,2743,2407,6,3503,4019,5.370,17.813,2.799,-0.277,2.407,7.638,0.852,-2.672,9.888,-0.008,0.092,0.038,happy
2.52,0,0,0,0,66,0,0,0,23,2486,2643,2774,2425,11,3483,4012,6.699,18.622,2.550,0.268,2.244,7.755,0.893,-2.514,9.804,-0.001,0.104,0.047,happy
2.53,0,0,0,0,115,0,0,0,45,2472,2692,2751,2488,9,3469,4001,5.375,17.990,2.320,0.701,2.212,7.666,0.881,-2.684,9.713,-0.017,0.114,0.050,happy
2.54,0,0,0,0,144,0,0,0,6,2487,2715,2679,2508,9,3357,3989,3.050,15.246,1.872,1.071,1.863,7.317,0.907,-2.626,9.694,-0.028,0.108,0.050,happy
2.55,0,0,0,0,192,0,0,0,37,2467,2764,2659,2533,14,3277,3964,1.712,13.245,2.488,1.477,1.496,6.688,0.876,-2.533,9.673,-0.053,0.095,0.050,happy
2.56,0,0,0,0,129,0,0,0,63,2451,2738,2711,2483,25,3045,3895,-0.431,9.139,4.662,1.629,1.907,5.137,0.833,-2.653,9.787,-0.078,0.084,0.044,happy
2.57,0,0,0,0,0,0,0,0,298,2521,2730,2814,2485,52,2923,3709,-2.100,3.424,4.798,1.372,2.766,3.219,0.869,-2.732,9.759,-0.082,0.029,0.033,happy
2.58,0,0,0,0,0,0,0,0,441,2604,2735,2773,2409,51,2919,3531,-4.841,12.115,14.942,0.361,4.241,1.474,0.898,-2.557,9.670,-0.126,0.046,0.010,happy
2.59,0,549,0,0,244,0,0,0,493,2587,2735,2855,2463,47,2709,3387,-2.959,4.226,6.378,-0.543,0.514,0.775,0.910,-2.646,9.742,-0.156,0.026,0.003,happy
2.60,0,1397,1569,0,637,0,0,0,719,2620,2756,2908,2326,43,2316,3223,0.682,3.115,8.353,-0.538,-0.306,-0.115,0.862,-2.854,9.713,-0.149,0.016,0.000,happy
2.61,240,1981,2459,154,1185,0,151,0,988,2595,2776,2910,2347,0,2111,3037,1.080,4.094,9.019,-0.468,-0.295,-0.452,0.790,-2.887,9.701,-0.170,-0.015,0.003,happy
2.62,690,2265,2890,427,1488,0,253,0,1043,2589,2700,2950,2325,53,1913,2951,0.230,4.506,9.910,-0.484,-0.362,-0.484,0.819,-3.132,9.783,-0.099,-0.021,0.019,happy
2.63,918,2391,3069,731,2245,0,604,0,1222,2612,2779,2867,2206,51,1929,2909,-0.962,3.785,9.986,-0.342,-0.043,-0.144,0.831,-3.112,9.668,0.016,-0.039,0.022,happy
2.64,966,2320,3115,750,2613,0,1697,864,1053,2445,2776,2429,2009,50,1877,3067,0.848,3.903,9.555,-0.139,0.186,-0.152,0.800,-2.677,9.668,0.113,-0.065,-0.010,happy
2.65,938,2065,3071,762,2542,0,2066,2094,505,2397,2761,2065,1819,51,1862,3157,0.390,3.919,9.215,-0.094,0.136,-0.071,0.675,-2.811,9.835,0.087,-0.130,-0.024,happy
2.66,866,1862,3013,631,2653,0,2523,2706,29,1980,2613,974,1374,19,1431,3087,0.287,3.670,9.426,-0.140,-0.014,0.039,0.907,-3.986,10.424,-0.022,-0.181,-0.216,happy
2.67,894,1983,2887,496,2813,0,2769,2955,0,1301,2147,0,749,0,527,2596,0.541,3.474,9.421,-0.068,-0.036,0.043,0.831,-2.516,9.021,0.235,-0.065,-0.265,happy
2.68,811,2047,2736,379,2910,0,2960,3149,0,842,1057,0,533,0,447,2443,0.658,3.649,9.335,-0.076,0.007,0.003,-2.622,-1.238,10.994,0.156,-0.193,-0.148,happy
2.69,723,2027,2640,361,2975,0,3085,3291,0,0,2,0,453,0,363,1679,0.529,3.584,9.450,-0.040,0.078,-0.050,-6.019,0.297,11.047,0.949,-1.164,3.147,happy
2.70,752,2003,2627,363,3010,0,3177,3402,0,0,2,0,82,53,249,1145,0.575,3.469,9.376,-0.002,0.081,-0.064,-10.087,-4.911,9.455,1.207,-2.159,6.232,happy
2.71,688,2025,2668,421,3050,0,3218,3486,30,0,0,1,0,16,0,926,0.417,3.606,9.275,-0.007,0.063,-0.028,-12.479,-7.973,11.947,1.576,-2.122,8.142,happy
2.72,799,2128,2724,491,3056,0,3283,3561,0,0,0,0,0,0,0,629,0.400,3.591,9.428,-0.009,0.027,0.000,-8.861,-18.043,13.113,2.465,-2.271,8.731,happy
2.73,838,2171,2738,508,3029,0,3304,3583,0,0,0,0,0,0,0,393,0.651,3.455,9.270,0.027,0.041,-0.004,4.882,-15.783,3.369,2.171,-1.741,8.731,happy
2.74,880,2191,2755,533,3042,0,3283,3639,0,0,0,0,0,0,0,303,0.333,3.505,9.263,0.068,0.078,-0.037,5.906,-13.915,2.962,1.605,-1.284,8.731,happy
2.75,925,2221,2795,720,3088,0,3280,3661,0,0,2,0,1,0,0,0,0.309,3.601,9.306,0.041,0.065,-0.019,7.005,-9.323,5.827,0.751,-0.528,6.403,happy
2.76,955,2202,2817,749,3101,212,3282,3664,0,0,2,0,0,0,0,0,0.383,3.366,9.215,0.071,0.076,-0.025,7.242,-6.828,6.074,0.363,-0.243,5.131,happy
2.77,987,2178,2861,797,3103,411,3284,3678,0,0,0,0,0,0,1,0,0.397,3.493,9.311,0.078,0.081,-0.034,5.174,-6.127,9.009,0.117,-0.324,4.018,happy
2.78,1056,2176,2892,894,3107,638,3271,3683,0,0,2,0,0,0,0,0,0.350,3.340,9.263,0.113,0.091,-0.048,3.862,-4.796,10.068,-0.092,-0.449,2.962,happy
2.79,1154,2160,2959,1140,3091,814,3248,3671,0,20,0,0,0,12,0,0,0.412,3.857,9.625,0.097,0.106,-0.022,0.570,-2.892,9.802,-0.151,-0.232,1.703,happy
2.80,1231,2133,3024,1487,3051,1061,3197,3667,35,0,7,0,0,0,0,0,0.283,3.622,9.498,0.081,0.124,-0.020,-2.011,-2.198,9.907,-0.166,-0.153,1.520,happy
2.81,1310,2069,3049,1715,3023,1090,3131,3654,0,1,0,0,0,0,0,0,0.211,3.627,9.347,0.077,0.116,-0.030,-2.801,-1.980,10.051,-0.244,-0.231,1.766,happy
2.82,1423,2045,3086,1881,3011,1351,3052,3629,0,3,0,0,0,0,0,0,0.141,3.637,9.409,0.071,0.108,-0.019,-0.950,-1.791,9.644,-0.214,0.252,2.013,happy
2.83,1526,2026,3099,2042,2982,1342,2988,3617,0,0,5,0,0,0,0,0,0.165,3.651,9.316,0.063,0.095,-0.010,-0.455,-1.267,9.426,-0.187,0.413,2.043,happy
2.84,1630,2047,3139,2150,2930,1366,2906,3599,0,0,0,0,0,0,4,0,0.294,3.632,9.357,0.063,0.103,-0.017,0.366,-0.728,10.175,-0.114,0.340,1.937,happy
2.85,1678,2011,3165,2235,2886,1378,2846,3551,0,0,0,0,0,0,0,0,0.096,3.663,9.227,0.070,0.100,-0.021,0.522,-0.857,11.181,0.075,-0.090,1.727,happy
2.86,1781,1987,3177,2288,2833,1589,2784,3536,0,0,0,0,0,0,0,0,0.105,3.642,9.301,0.060,0.084,-0.012,0.682,-1.219,11.341,0.281,-0.180,1.728,happy
2.87,1802,1959,3203,2420,2704,1621,2800,3471,0,0,28,0,0,0,0,0,0.172,3.721,9.369,0.044,0.092,-0.015,0.156,-1.824,10.788,0.659,-0.212,1.832,happy
2.88,1858,1965,3233,2465,2715,1659,2750,3395,0,0,0,8,0,0,0,7,0.057,3.618,9.321,0.059,0.102,-0.025,-0.472,-2.260,9.620,0.730,-0.325,2.055,happy
2.89,1912,1943,3239,2533,2613,1712,2693,3280,0,0,104,0,0,0,0,0,-0.065,3.598,9.227,0.051,0.093,-0.022,-0.979,-3.153,10.410,0.754,-0.512,2.225,happy
2.90,2000,1961,3269,2628,2527,1742,2683,3071,0,0,0,0,0,13,0,0,0.050,3.642,9.311,0.046,0.086,-0.022,-0.642,-4.051,10.427,0.971,-0.770,2.607,happy
2.91,2022,1947,3278,2665,2529,1749,2621,2858,0,0,0,0,0,0,0,0,0.091,3.670,9.349,0.060,0.090,-0.021,0.378,-4.053,8.337,0.989,-0.682,2.868,happy
2.92,2034,1961,3310,2750,2487,1703,2623,2816,0,0,0,0,0,0,0,0,0.060,3.694,9.270,0.050,0.103,-0.022,1.132,-4.238,8.396,0.870,-0.711,2.937,happy
2.93,2045,1950,3317,2801,2455,1619,2589,2799,0,0,0,0,0,0,0,0,0.031,3.572,9.280,0.055,0.101,-0.023,2.198,-5.744,8.605,0.649,-1.350,2.860,happy
2.94,2125,1948,3339,2837,2352,1291,2486,2642,0,0,0,0,0,0,0,0,-0.017,3.570,9.263,0.075,0.095,-0.018,4.745,-6.819,7.106,0.560,-1.592,2.586,happy
2.95,2119,1979,3378,2913,2205,1034,2449,2559,0,0,17,0,0,0,0,0,0.045,3.675,9.340,0.075,0.108,-0.026,5.578,-7.511,6.809,0.507,-1.458,2.346,happy
2.96,2117,2001,3371,2945,2150,582,2259,2512,0,0,7,0,0,0,0,0,-0.089,3.546,9.268,0.107,0.127,-0.027,10.214,-2.066,8.394,-0.043,0.218,1.365,happy
2.97,2208,2033,3391,2982,1904,0,2019,2277,0,0,0,22,0,0,0,0,-0.060,3.718,9.402,0.127,0.116,-0.022,11.835,-1.470,6.962,-0.978,-0.726,-0.470,happy
2.98,2314,2096,3409,3056,1711,0,1650,2009,0,0,0,0,0,0,0,469,-0.069,3.536,9.249,0.157,0.115,-0.009,2.394,-0.460,6.393,-0.957,-0.939,-0.512,happy
2.99,2413,2154,3429,3118,1456,0,1023,1423,0,0,0,0,0,0,25,2649,-0.105,3.630,9.424,0.224,0.121,0.002,-5.995,-0.900,12.933,-1.229,-0.776,0.157,happy
3.00,2481,2187,3450,3153,1008,0,411,146,0,0,0,0,7,0,823,3307,-0.414,4.104,9.313,0.336,0.158,0.054,3.998,-1.997,6.692,-1.349,-0.378,0.367,happy
3.01,2615,2205,3450,3206,464,0,0,0,0,0,0,0,0,0,1069,3411,0.036,3.955,9.397,0.443,0.135,0.113,11.037,-0.606,5.289,-1.538,0.362,0.698,happy
3.02,2641,2201,3448,3220,81,0,0,0,0,0,0,13,0,0,1067,3494,0.239,3.539,9.663,0.599,0.120,0.284,-0.472,-9.802,19.525,-0.986,0.844,-0.299,happy
3.03,2689,2119,3408,3225,0,0,0,0,0,0,0,0,0,36,1395,3656,0.493,3.285,9.455,0.863,0.136,0.440,1.319,-3.067,10.190,-0.214,0.438,0.328,happy
3.04,2727,1985,3337,3184,0,0,0,0,0,28,2,0,0,20,1233,3721,-0.069,4.005,9.481,0.929,0.196,0.492,0.529,-3.409,10.769,-0.140,0.309,0.254,happy
3.05,2767,1684,3275,3145,0,0,0,0,1,191,0,24,0,0,1456,3765,-0.194,2.607,7.755,0.673,0.207,0.244,0.888,-3.007,10.051,-0.048,0.238,0.141,happy
3.06,2832,944,3252,3120,0,0,0,0,0,222,0,337,87,61,1891,3775,0.496,4.566,9.433,0.848,0.325,0.271,1.063,-2.753,9.692,0.003,0.147,0.102,happy
3.07,2927,915,3213,3088,0,0,0,0,0,368,2,871,176,0,1978,3875,0.467,4.420,9.629,0.761,0.617,0.237,1.204,-2.612,9.665,-0.011,0.125,0.082,happy
3.08,2982,369,3071,2995,0,0,0,0,0,665,7,1148,316,1,2207,4025,-0.534,4.602,8.226,0.881,0.940,0.121,0.950,-2.919,9.969,0.038,0.110,0.064,happy
3.09,2991,0,2138,2830,0,0,0,0,0,983,7,1643,509,0,2685,3937,1.207,5.097,10.846,1.194,1.631,-0.044,0.972,-2.562,9.610,0.053,0.072,0.038,happy
3.10,2863,0,768,2032,0,0,0,0,0,1225,5,1803,581,0,2931,3987,1.676,4.669,9.459,1.469,2.567,-0.712,0.802,-2.787,9.948,0.064,0.062,0.039,happy
3.11,2592,0,34,1147,0,0,0,0,10,1245,25,1821,615,0,3053,4004,2.095,4.180,10.944,1.364,3.453,-1.428,0.903,-2.612,9.744,0.082,0.047,0.024,happy
3.12,1132,0,0,0,0,0,0,0,0,1383,1379,1929,749,5,3157,4019,5.990,9.955,10.788,1.278,3.928,-3.078,1.034,-2.507,9.567,0.082,0.033,0.014,happy
3.13,197,0,0,0,0,0,0,0,3,1447,2259,2079,793,4,3230,4015,1.695,4.695,9.397,-0.014,4.169,-3.055,0.931,-2.368,9.740,0.061,0.020,0.013,happy
3.14,0,0,0,0,0,0,0,0,4,1549,2346,2217,1067,3,3292,4045,2.998,13.929,19.613,0.193,3.760,-0.314,0.888,-2.473,9.787,0.046,0.013,0.010,happy
3.15,0,0,0,0,0,0,0,0,1,1573,2364,2403,1181,2,3359,4059,9.797,7.882,11.028,-0.481,1.746,1.523,0.891,-2.528,10.001,0.034,0.009,0.016,happy
3.16,0,0,0,0,0,0,0,0,3,1642,2505,2375,1548,4,3407,4057,6.668,4.262,5.813,-0.339,1.638,2.223,0.826,-2.490,9.804,0.042,0.022,0.021,happy
3.17,0,0,0,0,0,0,0,0,1,1685,2518,2437,1755,3,3467,4077,3.991,5.009,7.128,-0.028,1.812,2.554,0.812,-2.490,9.831,0.022,0.014,0.025,happy
3.18,0,0,0,0,0,0,0,0,3,1701,2730,2441,1827,2,3549,4076,1.925,4.757,9.246,-0.037,1.410,2.753,0.790,-2.495,9.886,0.011,0.022,0.026,happy
3.19,0,0,0,0,0,0,0,0,3,1748,2556,2458,1868,22,3531,4077,2.423,4.839,9.677,-0.176,1.015,2.843,0.843,-2.562,9.766,0.005,0.025,0.031,happy
3.20,0,0,0,0,0,0,0,0,2,1743,2564,2505,2019,3,3549,4073,2.595,4.377,9.041,-0.363,0.965,2.886,0.735,-2.538,9.761,0.002,0.042,0.034,happy
3.21,0,0,0,0,0,0,0,0,3,1791,2569,2532,2025,5,3475,4059,1.470,3.910,8.420,-0.502,0.955,2.864,0.840,-2.468,9.756,-0.022,0.046,0.046,happy
3.22,0,0,0,0,0,0,0,0,3,1779,2572,2572,2104,5,3555,4041,0.323,3.488,8.389,-0.621,0.764,2.779,0.845,-2.516,9.730,-0.023,0.051,0.053,happy
3.23,0,0,0,0,0,0,0,0,6,1827,2577,2597,2141,4,3593,4022,-0.383,3.182,8.593,-0.702,0.400,2.592,0.812,-2.559,9.749,-0.023,0.042,0.045,happy
3.24,0,0,0,0,0,0,0,0,4,1819,2572,2592,2232,1,3541,3999,-0.414,3.338,9.244,-0.843,0.022,2.366,0.702,-2.550,9.742,-0.017,0.021,0.042,happy
3.25,0,0,0,0,0,0,0,0,1,1881,2510,2636,2238,13,3525,3951,0.105,3.419,9.261,-1.078,-0.179,2.115,0.781,-2.521,9.747,-0.023,0.028,0.053,happy
3.26,0,0,0,0,0,0,0,0,45,1947,2618,2644,2283,8,3503,3929,0.524,3.730,9.443,-1.301,-0.204,1.856,0.979,-2.636,9.708,-0.036,0.043,0.051,happy
3.27,0,0,0,0,0,0,0,0,3,2056,2643,2655,2347,4,3495,3887,0.886,4.264,9.500,-1.565,-0.182,1.644,0.728,-2.579,9.730,-0.022,0.027,0.044,happy
3.28,0,0,0,0,0,0,0,0,2,2152,2648,2697,2403,5,3495,3859,1.020,4.480,9.438,-1.776,-0.249,1.550,0.795,-2.591,9.706,-0.017,0.030,0.051,happy
3.29,0,0,0,0,0,0,0,0,1,2250,2664,2709,2485,0,3479,3853,1.520,4.585,8.954,-1.923,-0.378,1.573,0.838,-2.624,9.787,-0.032,0.037,0.050,happy
3.30,0,0,0,0,0,0,0,0,3,2280,2664,2812,2551,3,3465,3751,1.882,4.769,8.727,-1.966,-0.520,1.684,0.749,-2.605,9.761,-0.024,0.018,0.045,happy
3.31,0,0,0,0,0,0,0,0,3,2324,2669,2799,2607,3,3447,3675,2.224,5.353,8.880,-2.000,-0.583,1.841,0.833,-2.567,9.740,-0.017,0.034,0.046,happy
3.32,0,0,0,0,0,0,0,0,3,2411,2689,2815,2680,57,3415,3625,2.298,5.725,8.995,-2.006,-0.589,2.023,0.922,-2.533,9.450,0.004,0.034,0.049,happy
3.33,0,0,0,0,0,0,0,0,5,2425,2702,2841,2749,5,3381,3578,1.891,6.448,9.385,-2.010,-0.627,2.191,0.778,-2.586,9.864,-0.029,0.033,0.052,happy
3.34,0,0,0,0,0,0,0,0,0,2441,2751,2877,2809,7,3323,3581,1.633,6.816,9.713,-2.017,-0.666,2.332,0.759,-2.598,9.828,-0.044,0.035,0.048,happy
3.35,0,0,0,0,0,0,0,0,23,2460,2822,2959,2860,9,3241,3592,1.832,7.211,9.967,-2.030,-0.658,2.460,0.788,-2.667,9.859,-0.034,0.019,0.049,happy
3.36,0,0,0,0,0,0,0,0,60,2493,2735,3003,2907,55,3155,3589,2.179,7.309,9.924,-2.036,-0.589,2.584,0.843,-2.672,9.675,-0.042,0.025,0.049,happy
3.37,0,0,0,0,0,0,0,0,74,2568,2759,3013,2969,23,3087,3567,2.428,7.621,9.977,-1.988,-0.524,2.728,0.864,-2.727,9.685,-0.048,0.003,0.033,happy
3.38,0,0,0,0,0,0,0,0,121,2588,2782,3067,2997,0,3096,3543,2.416,7.726,9.464,-1.930,-0.423,2.870,0.792,-2.653,9.811,-0.047,0.019,0.027,happy
3.39,0,0,0,0,0,0,0,0,126,2638,2833,3099,3027,31,3037,3487,2.456,7.448,8.428,-1.771,-0.203,2.937,0.666,-2.473,9.814,-0.058,-0.003,0.027,happy
3.40,0,0,0,0,0,0,0,0,363,2729,2876,3162,3101,51,2961,3353,1.197,8.164,9.768,-1.408,0.116,2.921,0.800,-2.581,9.766,-0.097,0.010,0.012,happy
3.41,0,0,0,0,0,0,0,0,342,2749,2889,3173,3125,51,2904,3273,-0.268,8.631,10.472,-1.425,0.141,2.826,0.747,-2.672,9.747,-0.084,-0.005,0.016,happy
3.42,0,0,0,0,0,0,0,0,548,2825,2917,3274,3161,53,2701,3061,-3.491,8.648,11.200,-1.439,-0.186,2.358,0.831,-2.679,9.412,-0.088,-0.026,0.017,happy
3.43,0,0,0,0,0,0,0,0,827,2835,2927,3307,3172,51,2603,2935,-4.190,7.819,10.084,-1.422,-0.440,1.504,0.869,-2.849,9.668,-0.089,-0.018,0.009,happy
3.44,0,0,0,0,0,0,0,0,947,2851,2971,3389,3119,53,2535,2595,-3.349,8.322,9.663,-1.201,-0.818,0.652,0.852,-2.732,9.708,-0.110,-0.009,0.010,happy
3.45,0,0,0,0,0,0,0,0,1095,2878,2997,3455,2907,53,2219,1815,-1.219,9.510,9.936,-1.366,-0.875,0.168,0.776,-2.842,9.783,-0.109,-0.008,0.015,happy
3.46,0,0,0,0,0,0,0,0,1243,2923,3007,3479,2845,47,2093,1487,0.132,8.851,6.268,-1.337,-0.578,0.266,0.809,-2.808,9.644,-0.129,-0.020,0.009,happy
3.47,0,0,0,0,0,0,0,0,1480,2991,3048,3599,2806,50,1853,821,-0.747,9.345,4.147,-0.820,-0.459,0.563,0.857,-3.019,9.708,-0.061,-0.026,0.030,happy
3.48,0,0,0,0,0,0,0,0,1700,3007,3078,3541,2669,51,1001,537,-1.628,10.350,2.624,-0.356,-0.401,0.786,0.857,-2.708,9.565,-0.038,-0.044,0.044,happy
3.49,0,0,0,0,0,0,0,0,1885,2938,3068,3677,2621,52,809,467,-2.899,10.625,1.386,0.354,-0.156,0.859,1.025,-3.244,9.663,-0.015,-0.042,0.079,happy
3.50,0,0,0,0,0,0,0,0,2076,3096,3078,3816,2249,91,409,510,0.563,8.954,12.555,0.649,3.502,1.076,0.843,-2.480,9.912,-0.158,-0.013,0.036,happy
3.51,0,0,0,0,0,0,0,423,2137,3089,3084,3800,1963,45,341,421,-0.122,-0.934,15.728,1.014,2.295,1.666,0.603,-2.095,9.993,-0.413,0.011,-0.054,happy
3.52,0,0,0,0,0,0,146,2459,2276,3087,3089,3781,1323,42,301,221,-19.144,-6.134,7.592,2.666,0.434,-0.214,0.838,-2.986,9.421,-0.484,-0.003,-0.046,happy
3.53,0,0,0,0,0,0,256,3174,2397,3100,3094,3809,917,27,231,101,-2.847,6.184,12.447,2.492,-0.056,-0.616,1.221,-3.086,9.632,-0.492,-0.026,-0.076,happy
3.54,0,0,0,0,0,0,914,3408,2539,3091,3048,3835,547,20,72,87,4.812,3.093,7.166,2.589,-0.616,-0.145,1.049,-3.414,9.653,-0.774,-0.227,-0.202,happy
3.55,0,0,0,0,319,0,1843,3400,2617,2985,3099,3832,218,12,121,29,19.613,6.948,19.556,2.714,-0.718,0.243,1.626,-3.199,9.979,-1.069,-0.313,-0.327,happy
3.56,80,0,0,0,830,0,2452,3400,2629,2837,3109,3816,159,5,44,13,4.017,-0.895,2.634,-0.082,1.908,-0.643,1.312,-3.139,9.246,-1.195,-0.270,-0.348,happy
3.57,330,35,0,0,1156,0,2670,3457,2547,2511,3094,3790,91,1,0,0,-1.848,0.433,6.294,0.429,0.963,-0.237,1.247,-3.352,9.208,-1.724,-0.044,-0.387,happy
3.58,563,377,727,0,1425,0,2878,3520,2355,2057,3086,3703,16,0,4,0,0.417,3.780,9.783,0.229,0.444,-0.237,1.384,-3.692,9.258,-2.285,0.346,-0.388,happy
3.59,662,581,1518,154,1555,0,3024,3600,2275,1965,3078,3637,5,0,26,0,0.213,3.608,9.673,0.109,0.268,-0.144,1.073,-3.673,9.874,-2.567,0.516,-0.210,happy
3.60,726,830,1904,401,1771,0,3118,3686,1624,1596,2838,3053,0,0,0,0,0.397,3.421,9.337,0.075,0.176,-0.062,0.237,-2.356,11.930,-3.728,0.383,0.226,happy
3.61,798,1054,2274,693,2058,150,3232,3712,727,539,691,1199,10,0,0,0,0.014,3.615,9.555,0.063,0.079,0.009,1.010,-6.218,13.915,-5.094,-0.938,1.079,happy
3.62,866,1239,2481,899,2288,420,3334,3759,905,441,120,287,0,0,0,0,0.060,3.390,9.433,0.056,0.066,0.001,-0.189,-6.311,15.440,-5.982,-2.084,1.204,happy
3.63,938,1359,2629,1086,2506,574,3419,3778,23,0,2,22,9,0,0,0,0.153,3.383,9.342,0.084,0.054,-0.029,1.935,-13.762,8.334,-6.558,-3.425,1.528,happy
3.64,1007,1566,2785,1360,2699,802,3473,3775,0,0,0,0,0,0,21,0,0.129,3.493,9.402,0.065,0.072,-0.025,6.989,-9.934,11.519,-3.029,-1.091,2.613,happy
3.65,1081,1746,2891,1606,2756,973,3525,3796,0,0,0,0,0,0,0,0,0.077,3.572,9.505,0.078,0.049,-0.019,5.571,-4.764,13.302,-1.074,0.602,2.993,happy
3.66,1145,1841,2957,1773,2896,1182,3548,3782,0,0,0,0,0,0,0,0,0.127,3.474,9.378,0.074,0.036,-0.025,2.054,1.472,14.547,1.666,-0.597,1.361,happy
3.67,1230,1926,3015,1881,2958,1124,3549,3733,0,0,0,0,0,2,0,0,0.146,3.357,9.306,0.092,0.031,-0.038,2.954,0.661,5.705,2.368,-0.068,1.669,happy
3.68,1296,2031,3088,1984,2999,1087,3535,3727,0,0,2,0,0,0,0,0,0.225,3.496,9.333,0.114,0.022,-0.038,3.294,0.120,5.911,2.454,0.090,1.467,happy
3.69,1397,2128,3139,2111,3029,1104,3504,3687,0,0,0,11,0,0,0,0,0.223,3.551,9.263,0.126,0.015,-0.032,3.807,-2.040,8.669,2.980,0.063,0.902,happy
3.70,1474,2208,3185,2208,3054,1078,3472,3631,0,18,0,0,0,0,0,0,0.184,3.610,9.285,0.110,0.022,-0.033,3.153,-3.120,8.138,3.457,-0.293,0.272,happy
3.71,1571,2295,3227,2314,3099,1063,3440,3610,35,0,0,0,0,0,0,0,0.132,3.551,9.299,0.095,0.037,-0.024,2.866,-3.610,8.119,3.515,-0.515,0.094,happy
3.72,1665,2351,3281,2409,3144,1119,3398,3563,0,0,0,0,0,1,0,44,0.194,3.613,9.352,0.098,0.042,-0.027,3.096,-5.636,10.882,3.700,-0.848,-0.322,happy
3.73,1761,2411,3322,2466,3178,1077,3341,3490,0,0,23,0,0,19,0,0,0.091,3.630,9.407,0.089,0.046,-0.025,2.528,-5.878,9.476,3.752,-0.979,-0.970,happy
3.74,1897,2417,3363,2603,3202,930,3280,3465,0,0,7,0,0,0,0,0,0.065,3.575,9.395,0.084,0.052,-0.021,2.172,-5.660,9.311,3.573,-0.944,-1.204,happy
3.75,1968,2494,3397,2687,3225,773,3206,3403,10,0,0,0,0,6,0,0,0.177,3.522,9.256,0.083,0.045,-0.021,1.080,-5.485,11.619,3.399,-0.802,-1.504,happy
3.76,1946,2532,3440,2752,3243,649,3104,3309,0,0,0,0,0,0,0,0,0.053,3.634,9.337,0.082,0.046,-0.023,-1.374,-4.956,12.050,3.231,-0.909,-1.155,happy
3.77,2003,2608,3473,2848,3246,378,2962,3212,0,0,0,0,19,0,0,0,0.156,3.718,9.345,0.081,0.047,-0.022,-1.798,-4.985,12.565,3.106,-1.205,-0.834,happy
3.78,2035,2640,3517,2923,3233,261,2736,3061,0,0,0,0,0,0,0,0,0.091,3.637,9.290,0.093,0.053,-0.016,-0.225,-5.358,12.426,2.775,-1.466,-0.380,happy
3.79,2111,2654,3562,2976,3228,99,2592,2880,0,23,0,0,0,0,0,0,0.053,3.654,9.325,0.096,0.063,-0.017,-0.326,-7.101,14.090,2.200,-1.796,-0.206,happy
3.80,2189,2711,3606,3024,3202,21,2403,2512,45,0,0,0,0,0,0,0,0.077,3.646,9.371,0.103,0.081,-0.015,0.469,-9.431,14.542,2.033,-2.121,-0.292,happy
3.81,2320,2747,3648,3090,3117,2,2128,1814,0,0,0,0,0,0,0,0,0.034,3.649,9.285,0.134,0.099,-0.011,2.461,-12.852,14.851,1.702,-2.211,-0.608,happy
3.82,2398,2791,3691,3153,2942,0,1708,931,0,0,0,0,0,0,0,0,0.105,3.752,9.292,0.167,0.149,-0.014,3.780,-15.972,7.515,2.535,-1.503,-1.417,happy
3.83,2480,2833,3738,3249,2861,0,1306,0,0,0,12,0,0,0,0,0,0.026,3.493,9.311,0.219,0.113,0.010,3.304,-14.746,-0.148,1.977,-0.637,-1.840,happy
3.84,2511,2864,3756,3302,2800,0,979,0,0,1,0,0,0,0,0,0,0.012,3.745,9.292,0.259,0.095,0.025,0.369,-14.351,-2.562,0.987,0.045,-2.094,happy
3.85,2619,2909,3777,3344,2732,0,655,0,0,0,5,0,0,0,0,0,0.122,3.958,9.244,0.267,0.085,0.025,-3.857,-16.125,-1.465,0.246,0.066,-2.013,happy
3.86,2675,2928,3787,3377,2636,0,317,0,0,0,0,0,0,0,0,0,0.215,3.972,9.373,0.277,0.079,0.021,-6.646,-9.359,-1.781,-1.032,-0.216,-1.882,happy
3.87,2727,2890,3815,3424,2439,0,48,0,4,0,2,0,0,0,0,20,0.177,3.725,9.431,0.298,0.041,0.047,-3.891,-16.707,-7.343,-2.622,0.367,-1.322,happy
3.88,2786,2865,3830,3453,2169,0,0,0,0,0,76,0,0,0,0,0,0.421,3.654,9.275,0.428,-0.003,0.089,7.415,-4.829,12.828,-1.208,3.211,-0.084,happy
3.89,2813,2789,3847,3486,1724,0,0,0,0,0,0,28,0,0,539,0,0.187,3.472,9.388,0.568,-0.024,0.184,0.567,3.682,19.613,-1.074,2.813,-0.451,happy
3.90,2853,2653,3861,3522,1469,0,0,0,12,0,0,0,0,0,485,1067,0.661,3.840,9.210,0.755,0.031,0.278,-6.917,9.649,8.499,-2.868,-0.218,-0.791,happy
3.91,3010,2420,3873,3558,995,0,0,0,0,0,0,0,0,19,518,3064,0.589,3.764,9.337,1.193,-0.037,0.500,-2.234,-6.847,14.894,-2.737,0.189,1.684,happy
3.92,3166,2319,3866,3566,305,0,0,0,0,0,20,0,0,0,1433,3786,-0.271,3.757,9.225,1.431,0.252,0.632,1.798,-2.614,9.151,-2.423,-0.592,0.816,happy
3.93,3285,2141,3833,3495,0,0,0,0,0,0,0,0,0,29,1556,3893,0.565,5.021,9.371,1.518,0.532,0.673,-1.413,-9.258,19.613,-0.956,3.098,1.900,happy
3.94,3359,2054,3775,3422,0,0,0,0,0,0,0,0,0,0,2023,3941,0.261,3.879,9.373,1.716,0.704,0.667,9.304,0.189,8.954,0.012,0.901,-0.500,happy
3.95,3408,1937,3687,3245,0,0,0,0,0,0,0,0,212,0,2381,3991,0.852,5.064,9.807,1.694,1.002,0.641,-0.594,-1.180,10.678,-0.173,1.105,0.378,happy
3.96,3440,1616,3542,2894,0,0,0,0,23,25,0,0,315,0,2469,4011,0.467,5.114,8.799,2.097,1.051,0.578,0.575,-4.614,11.356,-0.129,0.556,-0.017,happy
3.97,3393,1306,3091,2608,0,0,0,0,0,200,0,16,493,0,2927,4041,-0.014,4.630,8.080,2.766,1.350,0.387,1.812,-2.308,10.484,0.050,0.238,0.041,happy
3.98,3200,1136,2799,1989,0,0,0,0,0,264,0,0,535,0,3035,4067,-0.510,5.308,10.472,3.697,0.613,-0.217,2.148,-2.018,9.651,0.042,0.323,0.127,happy
3.99,2428,268,2210,1199,0,0,0,0,0,233,2,0,619,0,3077,4039,-2.727,10.376,17.341,4.617,-0.859,-1.305,1.563,-2.294,9.852,-0.006,0.249,0.127,happy
4.00,1488,0,503,71,0,0,0,0,0,503,2,0,1093,0,3235,4095,-1.707,10.092,12.277,5.685,-0.902,-1.888,1.741,-2.205,9.541,-0.020,0.243,0.124,happy
4.01,924,0,64,0,0,0,0,0,20,679,0,0,1386,0,3308,4095,-0.244,9.086,10.736,5.580,-0.745,-2.506,1.932,-2.691,9.730,0.009,0.191,0.102,happy
4.02,418,0,0,0,0,0,0,0,0,811,63,0,1675,0,3391,4095,-1.077,8.837,12.859,4.873,-0.742,-2.253,1.930,-2.504,9.838,0.013,0.129,0.047,happy
4.03,0,0,0,0,0,0,0,0,0,966,2,0,1999,0,3473,4095,-0.103,3.548,17.382,2.527,-0.055,-2.623,1.621,-2.301,9.740,0.015,0.130,0.042,happy
4.04,0,0,0,0,0,0,0,0,0,1163,2,0,2248,0,3554,4095,2.638,3.263,9.723,1.567,-0.145,-2.334,1.788,-2.143,9.414,-0.001,0.173,0.054,happy
4.05,0,0,0,0,0,0,0,0,0,1176,0,0,2413,0,3601,4095,2.418,1.415,15.263,-0.121,-0.533,-1.560,1.872,-2.301,9.201,0.011,0.260,0.078,happy
4.06,0,0,0,0,0,0,0,0,0,1236,5,0,2553,0,3627,4095,2.789,2.545,12.366,-0.720,-0.516,-1.498,1.755,-2.279,9.653,0.004,0.320,0.102,happy
4.07,0,0,0,0,0,0,0,0,0,1357,53,0,2635,0,3683,4095,2.277,1.702,10.716,-1.318,-0.545,-1.333,1.159,-1.946,10.353,-0.024,0.277,0.107,happy
4.08,0,0,0,0,0,0,0,0,0,1404,87,0,2744,0,3831,4095,2.157,1.525,8.483,-1.664,-0.552,-1.232,1.458,-2.205,9.732,-0.037,0.276,0.123,happy
4.09,0,0,0,0,0,0,0,0,0,1483,1568,0,2811,0,3736,4095,2.064,1.396,7.506,-1.932,-0.594,-1.069,1.611,-2.342,9.646,-0.033,0.312,0.144,happy
4.10,0,0,0,0,0,0,0,0,0,1605,2390,0,2889,0,3743,4073,2.215,2.021,7.108,-2.116,-0.663,-0.930,1.496,-2.298,9.833,-0.041,0.315,0.144,happy
4.11,0,0,0,0,0,0,0,0,0,1702,2423,0,2963,0,3747,4039,2.095,2.466,7.798,-2.280,-0.682,-0.772,1.472,-2.413,10.005,-0.029,0.277,0.139,happy
4.12,0,0,0,0,0,0,0,0,0,1822,2439,69,3005,4,3738,3886,1.844,3.517,8.195,-2.513,-0.882,-0.568,1.362,-2.346,9.737,-0.016,0.269,0.144,happy
4.13,0,0,0,0,0,0,0,0,1,1899,2544,217,3053,29,3736,3925,2.025,4.659,8.377,-2.748,-0.967,-0.341,1.439,-2.392,9.694,-0.021,0.246,0.157,happy
4.14,0,0,0,0,0,0,0,0,0,2147,2587,467,3095,5,3723,3817,2.377,5.241,7.915,-2.932,-0.988,-0.037,1.324,-2.375,9.936,-0.017,0.248,0.169,happy
4.15,0,0,0,0,0,0,0,0,2,2231,2613,812,3128,1,3710,3830,2.298,5.602,7.724,-2.960,-0.947,0.325,0.941,-2.181,10.072,-0.028,0.216,0.206,happy
4.16,0,0,0,0,0,0,0,0,1,2270,2715,1291,3164,3,3695,3812,1.834,6.404,8.492,-2.978,-0.942,0.688,1.046,-2.037,9.821,-0.074,0.238,0.195,happy
4.17,0,0,0,0,0,0,0,0,0,2325,2643,1619,3171,2,3720,3763,0.917,7.137,9.230,-3.032,-0.942,0.960,1.283,-3.699,10.120,-0.051,0.150,0.110,happy
4.18,0,0,0,0,0,0,0,0,16,2348,2730,1894,3195,3,3653,3754,-0.273,7.712,9.857,-3.080,-1.026,1.120,2.076,-2.442,8.789,-0.118,0.285,0.147,happy
4.19,0,0,0,0,0,0,0,0,1,2411,2769,2130,3207,2,3723,3737,-0.860,8.131,9.783,-3.114,-1.096,1.177,1.276,-2.557,9.550,-0.040,0.143,0.128,happy
4.20,0,0,0,0,0,0,0,0,0,2440,2769,2273,3276,2,3647,3736,-1.202,8.128,9.479,-3.049,-1.139,1.167,0.900,-1.690,10.151,-0.028,0.087,0.109,happy
4.21,0,0,0,0,0,0,0,0,2,2471,2776,2367,3312,21,3605,3731,-0.991,8.191,9.177,-2.939,-1.132,1.108,1.092,-2.291,9.811,-0.092,0.104,0.100,happy
4.22,0,0,0,0,0,0,0,0,0,2456,2797,2475,3349,18,3589,3708,-0.419,8.138,9.388,-2.784,-1.093,1.086,1.286,-2.533,9.579,-0.066,0.112,0.108,happy
4.23,0,0,0,0,0,0,0,0,2,2522,2797,2472,3355,1,3551,3689,0.261,8.147,9.361,-2.630,-1.069,1.133,1.058,-2.476,9.787,-0.079,0.087,0.101,happy
4.24,0,0,0,0,0,0,0,0,3,2582,2805,2540,3407,5,3529,3671,1.013,8.430,9.723,-2.452,-1.053,1.231,1.092,-2.557,9.840,-0.037,0.085,0.084,happy
4.25,0,0,0,0,0,0,0,0,0,2643,2833,2648,3425,3,3480,3659,1.216,8.918,10.810,-2.334,-1.051,1.387,1.070,-2.270,9.869,-0.054,0.050,0.071,happy
4.26,0,0,0,0,0,0,0,0,43,2678,2833,2717,3576,3,3423,3603,1.621,9.098,10.994,-2.340,-0.947,1.574,1.034,-2.461,9.663,-0.029,0.052,0.077,happy
4.27,0,0,0,0,0,0,0,0,2,2619,2846,2783,3485,3,3287,3576,1.365,8.344,9.878,-2.289,-0.735,1.736,1.128,-2.401,9.747,-0.076,0.067,0.075,happy
4.28,0,0,0,0,0,0,0,0,0,2760,2838,2840,3511,0,3102,3439,0.371,7.400,8.868,-2.125,-0.423,1.802,1.233,-2.533,9.883,-0.069,0.066,0.070,happy
4.29,0,0,0,0,0,0,0,0,2,2797,2886,2903,3541,1,3048,3449,-1.405,7.010,8.897,-1.845,-0.307,1.803,1.104,-2.425,9.785,-0.093,0.040,0.067,happy
4.30,0,0,0,0,0,0,0,0,1,2813,3048,2909,3559,3,3043,3371,-4.195,6.127,8.985,-1.463,-0.650,1.795,1.065,-2.452,9.814,-0.093,0.042,0.058,happy
4.31,0,0,0,0,0,0,0,0,7,2874,2899,2953,3575,5,3049,3289,-4.566,6.977,10.290,-1.201,-0.826,1.484,0.948,-2.497,9.618,-0.076,0.023,0.061,happy
4.32,0,0,0,0,0,0,0,0,83,2891,2879,3018,3508,25,3005,3129,-4.326,8.107,12.663,-1.112,-0.962,1.174,1.053,-2.526,9.689,-0.112,0.015,0.062,happy
4.33,0,0,0,0,0,0,0,0,88,2943,2971,3053,3611,26,2815,2777,-3.721,10.075,12.175,-1.337,-1.080,0.778,1.070,-2.579,9.416,-0.119,0.025,0.057,happy
4.34,0,0,0,0,0,0,0,0,124,2986,2963,3113,3623,31,2741,2543,-2.727,9.981,7.834,-1.347,-1.281,0.373,0.979,-2.607,9.661,-0.116,0.023,0.027,happy
4.35,0,0,0,0,0,0,0,0,443,3065,2997,3150,3619,77,2577,1842,-3.136,12.601,6.965,-1.394,-1.294,-0.189,0.996,-2.636,9.713,-0.135,0.019,0.027,happy
4.36,0,0,0,0,0,0,0,0,741,3129,3017,3271,3549,47,2327,1177,-3.112,10.783,-0.215,-1.103,-0.930,-0.440,1.022,-2.600,9.644,-0.144,0.027,0.009,happy
4.37,0,0,0,0,0,0,0,0,861,3165,3135,3318,3495,50,2157,845,-3.223,11.459,-1.128,0.005,-0.386,-0.593,0.955,-2.729,9.720,-0.110,0.023,0.012,happy
4.38,0,0,0,0,0,0,0,0,935,3247,2997,3401,3239,45,1593,495,2.519,3.352,1.549,0.629,3.976,-0.850,0.919,-2.811,9.553,-0.048,-0.001,0.030,happy
4.39,0,0,0,0,0,0,0,78,1207,3303,3043,3465,3123,39,935,437,-2.215,-2.306,18.847,0.443,2.745,-0.045,0.673,-2.710,10.087,-0.039,-0.080,0.073,happy
4.40,0,0,0,0,0,0,99,2516,1507,3325,3058,3436,2663,50,339,395,-7.362,-7.788,2.330,2.499,0.087,0.026,1.068,-1.638,9.711,-0.468,0.003,-0.080,happy
4.41,0,0,0,0,0,0,278,3265,1607,3353,3073,3531,2301,43,215,251,-4.700,6.062,13.226,2.750,0.080,-0.772,1.279,-2.203,9.450,-0.585,0.104,-0.055,happy
4.42,0,0,0,0,0,0,1121,3531,1909,3308,3063,3557,1261,30,123,166,4.209,4.635,8.875,2.397,0.049,-0.411,1.199,-2.521,9.776,-0.691,0.036,-0.138,happy
4.43,0,0,0,0,207,0,2093,3600,2104,3140,3061,3547,618,37,85,92,0.034,6.668,13.771,1.908,-0.445,-0.092,1.487,-2.808,9.495,-0.953,-0.202,-0.137,happy
4.44,0,0,0,0,744,0,2623,3610,2122,3059,3066,3555,407,9,41,51,4.444,2.725,4.733,-0.043,1.317,-0.320,1.166,-1.856,9.402,-1.220,-0.350,-0.168,happy
4.45,121,2,0,0,1131,0,2829,3651,2040,2719,3048,3531,249,7,0,0,-1.697,4.585,11.643,0.099,0.432,0.006,1.223,-2.567,10.769,-1.936,-0.127,-0.331,happy
4.46,355,349,294,0,1478,0,2990,3664,1631,2183,3030,3373,229,0,0,0,-1.006,3.364,11.044,0.211,0.190,-0.052,2.073,-3.294,10.590,-2.751,0.218,-0.315,happy
4.47,540,626,1317,0,1652,0,3126,3728,1418,1723,2904,3188,89,0,0,0,0.151,3.431,9.618,0.179,0.289,-0.154,1.398,-3.340,10.228,-3.344,0.098,-0.200,happy
4.48,657,944,1891,288,1883,0,3247,3764,890,875,2029,1303,0,0,0,0,0.323,3.464,9.433,0.151,0.216,-0.116,-0.433,-3.618,14.947,-4.637,-0.137,0.171,happy
4.49,746,1201,2302,557,2063,0,3338,3797,682,423,2,101,0,0,0,0,0.139,3.541,9.402,0.116,0.126,-0.041,-0.630,-2.923,12.699,-6.486,-1.385,1.033,happy
4.50,827,1372,2512,947,2409,5,3396,3824,413,7,2,0,0,0,0,0,0.189,3.517,9.515,0.094,0.097,-0.032,1.018,-8.588,12.311,-6.856,-2.040,1.567,happy
4.51,854,1507,2677,1200,2495,182,3465,3834,0,0,0,0,0,0,0,0,0.321,3.546,9.536,0.067,0.088,-0.019,4.298,-9.524,10.585,-5.361,-2.325,1.559,happy
4.52,1007,1664,2820,1345,2676,368,3501,3820,0,0,0,0,0,0,0,0,0.089,3.445,9.400,0.067,0.102,-0.023,6.831,-3.005,12.086,-1.271,0.853,2.846,happy
4.53,1072,1792,2904,1630,2766,545,3495,3861,0,0,0,0,3,0,0,0,0.213,3.436,9.395,0.059,0.096,-0.025,1.343,-7.125,19.613,0.872,1.491,1.734,happy
4.54,1114,1873,2992,1782,2864,661,3561,3822,0,0,0,0,0,0,0,0,0.165,3.464,9.440,0.080,0.069,-0.039,2.916,0.517,6.814,1.717,0.754,1.225,happy
4.55,1167,1950,3029,1877,2893,649,3553,3813,0,0,0,0,0,0,0,0,0.208,3.464,9.390,0.082,0.066,-0.049,2.909,1.829,6.472,1.978,0.623,1.201,happy
4.56,1229,2007,3071,1968,2944,797,3550,3802,0,0,0,0,0,0,27,0,0.153,3.397,9.373,0.104,0.052,-0.052,3.694,0.297,7.245,2.159,0.687,1.016,happy
4.57,1341,2093,3126,2097,3009,778,3534,3756,0,0,0,0,0,0,0,17,0.285,3.484,9.390,0.116,0.051,-0.054,4.501,-1.863,8.657,2.955,0.537,0.495,happy
4.58,1414,2175,3174,2227,3037,851,3525,3759,0,5,2,0,0,0,0,0,0.263,3.472,9.309,0.121,0.040,-0.048,4.741,-2.729,8.511,3.279,0.415,0.220,happy
4.59,1483,2224,3203,2337,3059,903,3504,3755,0,0,2,0,0,0,0,31,0.347,3.649,9.227,0.106,0.037,-0.038,4.554,-4.408,8.404,3.675,0.115,-0.230,happy
4.60,1599,2272,3250,2416,3095,912,3479,3700,0,0,0,0,0,0,0,0,0.206,3.706,9.426,0.079,0.039,-0.032,4.712,-6.108,8.918,3.773,-0.363,-0.754,happy
4.61,1678,2320,3293,2498,3135,978,3447,3687,0,0,0,0,0,0,0,0,0.120,3.531,9.316,0.088,0.035,-0.030,4.805,-6.694,9.299,3.754,-0.497,-1.077,happy
4.62,1782,2359,3332,2559,3166,919,3406,3655,0,0,7,0,0,0,0,0,0.237,3.565,9.369,0.098,0.031,-0.031,5.114,-7.326,10.053,3.626,-0.573,-1.768,happy
4.63,1851,2420,3371,2640,3189,921,3339,3583,0,0,0,0,0,0,0,0,0.168,3.598,9.297,0.092,0.033,-0.028,4.073,-7.365,10.487,3.417,-0.751,-2.359,happy
4.64,1905,2470,3399,2741,3198,926,3251,3566,0,0,0,0,0,0,0,0,0.180,3.565,9.354,0.096,0.028,-0.023,3.127,-6.924,10.688,3.317,-0.781,-2.452,happy
4.65,1989,2551,3454,2831,3242,797,3182,3475,5,0,0,0,0,0,0,0,0.156,3.539,9.285,0.097,0.026,-0.022,1.293,-6.311,12.019,3.044,-0.831,-2.087,happy
4.66,2096,2606,3488,2879,3250,340,3019,3378,0,0,0,0,0,0,3,0,0.156,3.594,9.313,0.102,0.036,-0.025,0.690,-6.486,13.168,2.890,-0.996,-1.555,happy
4.67,2081,2662,3519,2975,3245,314,2800,3269,0,0,89,0,12,1,0,0,0.199,3.608,9.263,0.114,0.039,-0.026,0.373,-6.172,12.701,2.769,-0.891,-1.280,happy
4.68,2114,2747,3570,3055,3229,272,2591,3085,0,0,43,0,0,0,0,0,0.113,3.666,9.316,0.125,0.054,-0.019,-0.716,-7.985,14.358,2.202,-1.288,-0.831,happy
4.69,2224,2814,3632,3105,3215,95,2368,2723,0,0,0,0,0,0,0,5,0.192,3.572,9.361,0.151,0.076,0.004,1.425,-12.155,14.763,2.533,-1.758,-0.713,happy
4.70,2353,2880,3680,3202,3166,0,2181,1943,0,0,0,0,0,0,0,0,0.144,3.651,9.433,0.165,0.098,0.008,2.246,-11.140,9.926,2.511,-1.507,-0.724,happy
4.71,2491,2960,3728,3301,2975,0,1786,821,0,0,0,0,0,0,0,0,0.120,3.733,9.237,0.194,0.119,0.026,1.525,-12.112,4.688,1.520,-1.493,-1.108,happy
4.72,2559,3024,3757,3349,2939,0,1602,30,0,0,0,0,0,0,0,0,0.163,3.709,9.412,0.245,0.135,0.045,-0.199,-12.579,3.886,1.007,-1.456,-1.218,happy
4.73,2672,3067,3782,3389,2887,0,1255,0,0,0,0,0,0,0,0,0,0.180,3.689,9.196,0.274,0.130,0.042,-1.887,-12.706,2.399,0.549,-1.436,-1.141,happy
4.74,2752,3111,3802,3429,2794,0,835,0,0,0,0,0,0,0,2,0,0.170,3.606,9.325,0.321,0.137,0.042,-2.909,-12.625,0.943,0.026,-1.380,-0.818,happy
4.75,2849,3164,3834,3469,2618,0,425,0,0,0,0,0,0,39,0,0,0.103,3.706,9.234,0.319,0.135,0.046,-2.837,-12.469,0.917,-0.433,-1.201,-0.326,happy
4.76,2966,3197,3855,3504,2559,0,112,0,0,0,0,0,0,0,0,0,0.280,3.603,9.244,0.366,0.112,0.070,-1.408,-12.182,1.908,-0.843,-1.026,0.172,happy
4.77,3069,3235,3872,3540,2297,0,0,0,0,0,0,0,0,0,0,0,0.271,4.173,9.301,0.408,0.093,0.087,17.966,-19.613,-6.766,-1.979,-0.063,-0.871,happy
4.78,3157,3248,3888,3575,1815,0,0,0,0,0,0,0,0,0,0,0,0.043,4.171,9.153,0.469,0.104,0.145,9.093,-4.891,12.230,-1.418,3.263,0.253,happy
4.79,3263,3242,3902,3604,1457,0,0,0,0,0,0,0,0,1,251,0,0.450,3.982,9.340,0.680,0.075,0.237,6.144,1.393,16.079,-1.723,1.675,-0.798,happy
4.80,3344,3205,3911,3621,1392,0,0,0,0,7,0,0,0,0,310,31,0.163,3.685,9.067,0.806,0.024,0.296,0.144,4.673,7.101,-2.180,1.427,-0.681,happy
4.81,3429,3155,3919,3623,1131,0,0,0,0,0,0,0,0,0,265,1447,0.244,3.881,9.105,0.893,0.033,0.370,-7.422,3.247,9.950,-3.403,1.086,0.440,happy
4.82,3514,3011,3919,3637,682,0,0,0,0,0,0,0,0,0,508,2601,0.596,4.001,9.373,1.077,0.101,0.442,-11.442,-1.245,14.262,-3.416,1.423,1.877,happy
4.83,3568,2613,3910,3647,459,0,0,0,0,0,0,0,0,0,551,3119,0.584,4.092,9.687,1.323,0.095,0.490,-0.091,-6.759,12.031,-2.964,0.630,1.683,happy
4.84,3614,2440,3899,3638,242,0,0,0,0,0,0,0,0,19,1061,3534,0.350,3.986,7.539,1.491,0.249,0.566,4.817,-5.176,9.318,-2.531,-0.000,1.007,happy
4.85,3658,2370,3882,3618,0,0,0,0,0,0,0,0,0,0,1533,3699,0.223,4.135,8.351,1.637,0.435,0.530,2.509,-19.613,19.613,0.148,5.465,2.946,happy
4.86,3686,2254,3854,3579,0,0,0,0,0,0,0,0,0,0,1721,3790,0.309,4.231,9.206,1.866,0.610,0.544,2.983,-6.962,19.613,0.159,1.593,-0.192,happy
4.87,3695,2183,3798,3520,0,0,0,0,0,0,0,0,0,0,1787,3849,0.218,4.080,9.009,2.233,0.680,0.559,-1.657,0.788,11.258,0.127,2.417,0.866,happy
4.88,3696,2100,3726,3419,0,0,0,0,0,63,0,0,0,0,2003,3867,0.814,5.363,8.832,2.490,0.694,0.537,-1.525,-2.904,13.020,-0.143,0.894,0.066,happy
4.89,3631,1787,3634,3286,0,0,0,0,0,189,0,0,73,20,2314,3917,0.532,4.932,8.167,2.589,0.975,0.505,2.308,-3.790,11.516,-0.141,0.697,0.230,happy
4.90,3572,1641,3410,2240,0,0,0,0,0,431,2,0,261,0,2533,3965,0.168,4.714,9.242,3.006,0.692,0.312,1.451,-2.928,10.015,0.103,0.415,0.121,happy
4.91,3453,1488,3131,1792,0,0,0,0,21,680,0,0,367,0,2669,3993,0.587,6.017,9.337,3.592,0.213,0.059,1.839,-2.267,9.493,0.087,0.424,0.165,happy
4.92,3249,1283,2688,1402,0,0,0,0,0,799,0,0,431,0,2811,4015,-0.505,7.863,15.028,4.068,-0.542,-0.352,1.001,-2.200,10.048,0.007,0.343,0.188,happy
4.93,2147,333,1418,212,0,0,0,0,0,1017,23,101,425,0,2920,4031,-1.358,8.523,12.538,5.344,-1.353,-1.389,0.828,-1.982,9.984,-0.090,0.319,0.233,happy
4.94,1036,0,0,0,0,0,0,0,2,1363,7,533,595,0,3066,4069,-1.681,10.137,11.344,6.888,-1.819,-1.876,0.898,-2.729,9.694,-0.030,0.198,0.173,happy
4.95,656,0,0,0,0,0,0,0,0,1407,94,1080,841,1,3155,4087,-1.437,11.478,13.855,6.177,-2.022,-1.783,1.106,-2.720,10.056,0.015,0.167,0.110,happy
4.96,208,0,0,0,0,0,0,0,1,1596,253,1399,1051,0,3219,4095,1.053,8.368,10.925,4.870,-2.212,-1.774,1.058,-2.751,10.120,0.058,0.115,0.040,happy
4.97,0,0,0,0,0,0,0,0,6,1611,1389,1557,1449,1,3327,4095,1.571,4.403,19.613,1.438,-1.020,-2.948,0.931,-2.483,9.888,0.034,0.095,0.032,happy
4.98,0,0,0,0,0,0,0,0,0,1701,2280,1909,1681,1,3352,4095,-1.068,11.001,19.613,-0.377,-0.651,-2.006,1.061,-2.444,9.929,0.037,0.092,0.046,happy
4.99,0,0,0,0,0,0,0,0,2,1957,2518,2201,2073,2,3443,4095,3.112,3.026,9.538,-1.641,-0.380,-2.157,0.927,-2.464,9.900,-0.031,0.135,0.098,happy
5.00,0,0,0,0,0,0,0,0,51,2001,2559,2324,2131,20,3485,4095,0.948,0.675,9.390,-2.001,-0.551,-2.113,1.053,-2.602,9.596,-0.054,0.098,0.098,happy
5.01,0,0,0,0,0,0,0,0,0,2044,2559,2413,2147,2,3501,3977,1.386,0.804,6.687,-2.446,-1.052,-2.030,0.651,-1.980,9.826,-0.060,0.067,0.081,happy
5.02,0,0,0,0,0,0,0,0,25,2086,2546,2531,2235,0,3507,4084,2.030,1.848,6.780,-2.543,-1.239,-1.896,0.910,-2.471,9.574,-0.068,0.072,0.076,happy
5.03,0,0,0,0,0,0,0,0,0,2153,2602,2604,2263,51,3507,4057,2.689,3.220,8.267,-2.742,-1.351,-1.692,0.857,-2.411,9.823,-0.084,0.064,0.074,happy
5.04,0,0,0,0,0,0,0,0,1,2229,2556,2685,2311,3,3419,4039,2.662,4.152,8.624,-3.027,-1.463,-1.396,0.927,-2.461,9.665,-0.085,0.061,0.060,happy
5.05,0,0,0,0,0,0,0,0,1,2110,2710,2759,2299,0,3467,4003,2.377,4.657,8.025,-3.263,-1.578,-1.054,0.819,-2.447,9.840,-0.084,0.047,0.054,happy
5.06,0,0,0,0,0,0,0,0,3,2185,2605,2789,2319,9,3433,3963,2.260,5.255,7.604,-3.323,-1.711,-0.678,0.876,-2.478,9.761,-0.078,0.039,0.050,happy
5.07,0,0,0,0,0,0,0,0,11,2203,2638,2871,2301,51,3404,3928,2.274,5.906,8.035,-3.305,-1.800,-0.243,0.826,-2.531,9.752,-0.086,0.039,0.046,happy
5.08,0,0,0,0,0,0,0,0,59,2279,2769,2957,2376,20,3327,3858,1.128,7.180,9.917,-3.299,-1.894,0.537,0.824,-2.509,9.732,-0.086,0.038,0.047,happy
5.09,0,0,0,0,0,0,0,0,67,2259,2738,3019,2339,0,3305,3827,0.196,7.772,9.943,-3.342,-1.856,0.904,0.915,-2.655,9.809,-0.075,0.039,0.049,happy
5.10,0,0,0,0,0,0,0,0,104,2331,2692,3051,2430,28,3263,3775,-0.541,7.867,9.871,-3.295,-1.790,1.156,0.764,-2.607,9.845,-0.070,0.039,0.032,happy
5.11,0,0,0,0,0,0,0,0,239,2441,2761,3197,2461,45,3145,3629,-0.752,8.131,10.396,-3.216,-1.597,1.425,0.797,-2.655,9.735,-0.066,0.016,0.022,happy
5.12,0,0,0,0,0,0,0,0,254,2413,2799,3261,2522,45,3064,3613,-0.558,7.717,10.420,-3.136,-1.289,1.545,0.761,-2.559,9.713,-0.053,0.021,0.030,happy
5.13,0,0,0,0,0,0,0,0,473,2488,2848,3342,2632,47,2838,3415,-0.974,7.573,10.748,-2.863,-1.183,1.651,0.694,-2.547,9.974,-0.059,0.002,0.021,happy
5.14,0,0,0,0,0,0,0,0,712,2515,2933,3405,2709,41,2634,3117,-0.692,7.819,11.277,-2.667,-1.017,1.701,0.802,-2.583,9.680,-0.074,0.006,0.018,happy
5.15,0,0,0,0,0,0,0,0,825,2585,2930,3493,2775,47,2515,2971,-2.871,7.654,11.729,-2.398,-0.525,1.491,0.831,-2.557,9.732,-0.084,0.003,0.018,happy
5.16,0,0,0,0,0,0,0,0,1034,2599,2958,3577,2787,69,2427,2735,-4.951,8.602,13.704,-2.307,-0.869,1.061,0.809,-2.646,9.680,-0.104,-0.002,0.010,happy
5.17,0,0,0,0,0,0,0,0,1097,2707,2976,3639,2763,39,1903,2204,-2.993,9.886,12.237,-2.065,-1.306,0.748,0.735,-2.832,9.833,-0.111,-0.012,0.012,happy
5.18,0,0,0,0,0,0,0,0,1428,2733,2994,3657,2675,45,1883,1801,0.419,12.699,10.977,-1.883,-1.196,0.770,0.855,-2.717,9.620,-0.098,-0.009,0.017,happy
5.19,0,0,0,0,0,0,0,0,1543,2749,3094,3723,2549,46,1518,1181,1.403,13.587,6.613,-2.000,-0.636,1.040,0.893,-2.749,9.670,-0.121,-0.006,0.016,happy
5.20,0,0,0,0,0,0,0,0,1959,2809,3037,3789,2377,45,716,797,-1.487,12.206,-1.247,-1.172,-0.705,1.258,0.797,-2.734,9.764,-0.106,0.002,0.016,happy
5.21,0,0,0,0,0,0,0,0,2202,2841,3053,3823,2312,45,553,581,-2.696,13.348,-1.887,0.001,-0.320,1.114,0.778,-2.761,9.618,-0.090,0.006,0.017,happy
5.22,0,0,0,0,0,0,0,0,2385,2899,3058,3891,2065,43,207,479,-2.468,13.994,-0.383,0.650,0.221,0.915,0.893,-2.667,9.527,-0.239,0.021,-0.028,happy
5.23,0,0,0,0,0,0,0,0,2501,2943,3063,3960,1287,30,115,357,6.364,7.642,13.539,0.880,3.575,0.991,0.752,-2.476,9.498,-0.448,0.122,0.017,happy
5.24,0,0,0,0,0,0,0,658,2521,2963,3068,3961,1047,17,53,263,-1.188,-3.804,18.086,0.991,2.291,1.423,0.836,-1.717,9.316,-0.491,-0.014,-0.028,happy
5.25,0,0,0,0,0,0,0,2580,2579,2983,3081,3977,725,8,30,199,-19.460,-3.883,8.272,3.375,0.830,-0.371,1.350,-3.742,9.948,-0.502,-0.091,-0.089,happy
5.26,0,0,0,0,0,0,0,3243,2809,2917,3048,3993,414,1,1,73,-2.198,6.768,13.439,2.779,-0.007,-0.580,1.530,-3.467,9.673,-0.702,-0.339,-0.239,happy
5.27,0,0,0,0,0,0,786,3502,2943,2855,3124,3989,331,0,0,0,4.592,5.401,9.287,2.620,-0.132,-0.277,1.015,-2.880,9.759,-1.014,-0.412,-0.349,happy
5.28,0,0,0,0,0,0,1893,3581,3015,2787,3091,3964,189,0,0,0,-1.496,6.630,14.588,2.143,-0.661,-0.123,1.180,-3.287,9.893,-1.175,-0.359,-0.361,happy
5.29,0,0,0,0,848,0,2608,3574,2996,2644,3107,3853,0,0,0,0,6.393,2.169,3.275,0.027,1.223,-0.240,1.877,-3.812,9.823,-1.724,-0.006,-0.387,happy
5.30,0,0,0,0,1200,0,2864,3583,2777,2282,3002,3816,0,0,0,0,-1.561,3.938,10.841,0.236,0.452,-0.084,2.162,-4.441,9.766,-2.219,0.470,-0.451,happy
5.31,323,263,0,0,1535,0,3041,3690,2532,2026,3068,3748,5,0,0,0,0.007,3.728,10.573,0.130,0.180,-0.070,1.554,-3.821,9.689,-2.448,0.740,-0.387,happy
5.32,399,551,550,0,1715,0,3168,3743,1933,895,2756,3390,0,0,0,0,0.651,3.354,9.541,0.108,0.228,-0.096,0.948,-1.894,13.305,-3.912,0.779,0.222,happy
5.33,481,912,1354,0,2031,0,3284,3725,916,311,1497,1845,0,0,0,0,0.749,3.677,9.699,0.105,0.192,-0.082,-0.175,-7.161,18.838,-5.358,-0.122,1.404,happy
5.34,418,1194,1867,79,2321,0,3408,3824,773,156,5,972,0,0,0,0,0.369,3.560,9.620,0.091,0.095,-0.016,-0.041,-6.886,15.366,-5.827,-0.733,2.007,happy
5.35,451,1360,2096,146,2506,0,3477,3851,78,0,0,0,0,0,0,0,0.436,3.476,9.787,0.095,0.083,-0.044,1.611,-9.529,10.283,-6.182,-1.876,2.487,happy
5.36,459,1555,2336,320,2698,14,3545,3847,0,0,140,0,0,0,0,0,0.627,3.551,9.586,0.103,0.037,-0.052,5.576,-8.928,10.836,-3.156,-0.602,2.855,happy
5.37,545,1678,2443,295,2913,150,3598,3875,0,0,0,0,0,0,0,0,0.388,3.383,9.397,0.069,0.061,-0.035,3.170,-3.608,14.777,-1.147,0.379,3.427,happy
5.38,560,1835,2529,404,2999,272,3610,3885,0,0,0,0,0,0,0,0,0.340,3.249,9.321,0.108,0.074,-0.043,4.678,2.840,13.039,1.176,-1.178,1.473,happy
5.39,542,1890,2618,507,3020,410,3634,3872,0,0,2,0,0,0,0,0,0.493,3.455,9.342,0.112,0.099,-0.054,4.748,0.079,7.324,1.802,-0.014,1.388,happy
5.40,629,1983,2733,615,3036,344,3643,3857,0,27,0,0,24,0,0,0,0.488,3.455,9.416,0.130,0.087,-0.054,4.324,0.292,7.092,2.139,-0.087,1.122,happy
5.41,731,2066,2870,896,3090,336,3648,3837,0,0,0,0,0,0,0,0,0.407,3.299,9.196,0.141,0.108,-0.072,3.630,-0.998,7.372,2.680,-0.205,0.477,happy
5.42,785,2115,2943,1040,3120,546,3639,3793,0,0,0,0,0,0,0,0,0.409,3.328,9.234,0.163,0.115,-0.077,3.745,-2.138,8.028,2.915,-0.375,0.141,happy
5.43,922,2214,3063,1424,3193,641,3629,3769,0,0,0,0,0,0,0,0,0.481,3.527,9.357,0.204,0.113,-0.095,3.395,-3.148,8.222,3.223,-0.531,-0.157,happy
5.44,1062,2325,3165,1847,3212,666,3599,3737,0,0,0,0,0,0,0,0,0.347,3.606,9.431,0.156,0.087,-0.059,2.957,-4.228,7.252,3.428,-0.626,-0.532,happy
5.45,1158,2429,3248,2179,3255,662,3561,3723,0,0,28,0,0,0,12,0,0.311,3.754,9.503,0.139,0.071,-0.046,2.215,-5.842,9.646,3.454,-0.891,-0.940,happy
5.46,1264,2501,3314,2359,3327,542,3522,3617,0,0,0,0,0,0,0,0,0.378,3.579,9.215,0.144,0.043,-0.038,2.107,-6.400,10.185,3.516,-0.982,-1.203,happy
5.47,1396,2597,3365,2496,3387,479,3461,3549,0,0,0,0,0,0,0,0,0.340,3.608,9.376,0.135,0.037,-0.034,1.745,-6.601,9.878,3.420,-0.973,-1.600,happy
5.48,1517,2675,3426,2599,3440,467,3433,3472,0,37,0,0,0,0,0,0,0.314,3.642,9.318,0.106,0.029,-0.028,1.511,-6.548,10.491,3.203,-0.836,-1.725,happy
5.49,1623,2737,3478,2693,3492,458,3376,3419,0,0,0,0,0,0,0,0,0.285,3.644,9.220,0.113,0.011,-0.023,1.238,-6.335,10.994,3.094,-0.795,-1.679,happy
5.50,1712,2815,3517,2768,3527,375,3294,3332,0,0,0,0,13,0,0,0,0.402,3.668,9.438,0.106,0.029,-0.025,0.278,-6.440,12.969,2.925,-1.074,-1.377,happy
5.51,1847,2871,3554,2819,3563,240,3195,3195,0,0,0,0,0,0,0,0,0.369,3.706,9.266,0.097,0.010,-0.015,-0.022,-6.718,13.417,2.930,-1.401,-0.986,happy
5.52,1968,2942,3600,2932,3583,0,3039,3086,0,0,0,0,0,0,0,3,0.338,3.649,9.304,0.104,0.008,-0.013,-0.450,-6.421,12.589,2.834,-1.456,-0.785,happy
5.53,2096,2992,3639,2999,3617,0,2923,2875,0,0,2,0,0,0,0,0,0.390,3.689,9.239,0.116,0.014,-0.012,-1.192,-6.900,13.250,2.287,-1.741,-0.423,happy
5.54,2160,3045,3677,3088,3638,0,2759,2480,0,0,0,16,0,0,0,28,0.314,3.730,9.328,0.122,0.038,-0.014,0.457,-15.091,13.144,1.552,-2.349,-0.503,happy
5.55,2345,3088,3711,3151,3648,0,2559,1777,0,0,0,0,0,0,0,0,0.335,3.785,9.292,0.130,0.045,-0.009,0.972,-12.079,11.729,2.088,-1.770,-0.274,happy
5.56,2429,3142,3743,3222,3642,0,2358,826,0,0,0,0,0,0,0,4,0.333,3.747,9.199,0.159,0.066,0.006,2.995,-9.953,7.321,1.954,-1.684,-0.636,happy
5.57,2429,3159,3757,3273,3621,0,2144,143,0,0,0,0,0,7,0,11,0.323,3.804,9.378,0.180,0.095,0.013,1.937,-10.745,5.344,1.658,-0.950,-0.881,happy
5.58,2559,3248,3805,3342,3562,0,1799,0,0,0,0,0,0,0,0,0,0.323,3.883,9.340,0.190,0.125,0.019,-2.179,-11.193,1.221,0.548,-0.590,-1.203,happy
5.59,2660,3282,3824,3361,3472,0,1423,0,0,0,0,0,0,0,0,0,0.273,3.893,9.225,0.194,0.131,0.015,-3.426,-11.303,0.539,-0.082,-0.653,-1.042,happy
5.60,2734,3331,3837,3424,3293,0,974,0,0,0,0,0,0,0,0,0,0.335,3.812,9.388,0.228,0.154,0.018,-3.424,-11.631,1.575,-0.631,-0.802,-0.689,happy
5.61,2803,3365,3865,3418,3071,0,589,0,0,0,0,0,0,0,0,0,0.268,3.984,9.352,0.217,0.147,0.012,-0.450,-4.645,5.138,-0.805,-0.678,-0.508,happy
5.62,2887,3395,3877,3445,2911,0,288,0,0,0,0,0,0,0,4,0,0.376,3.965,9.328,0.235,0.114,0.006,3.536,-3.321,0.599,-1.634,2.145,-0.472,happy
5.63,2990,3420,3893,3467,2649,0,49,0,0,0,0,0,0,0,0,0,0.527,3.692,9.309,0.239,0.054,-0.009,3.455,-3.158,15.969,-0.862,2.873,-0.560,happy
5.64,3071,3447,3895,3491,2273,0,0,0,0,0,0,0,0,0,168,0,0.484,3.876,9.175,0.512,0.038,0.124,2.459,1.080,14.054,-1.561,1.902,-0.941,happy
5.65,3173,3456,3896,3500,1921,0,0,0,0,0,0,0,0,0,297,541,0.515,3.505,9.357,0.636,0.122,0.174,-7.946,6.072,9.862,-2.494,1.010,-0.332,happy
5.66,3263,3458,3919,3512,1603,0,0,0,0,22,2,0,0,0,174,1874,0.766,3.716,9.316,0.752,0.129,0.234,-12.493,0.812,13.925,-3.019,1.117,1.110,happy
5.67,3451,3390,3906,3546,1012,0,0,0,0,0,0,0,25,0,421,2586,0.622,4.489,9.019,1.080,0.232,0.394,-5.904,-4.650,13.443,-2.418,1.297,1.576,happy
5.68,3583,3201,3888,3550,700,0,0,0,0,0,0,0,0,0,983,3547,0.639,3.393,9.919,1.513,0.480,0.523,4.231,-2.720,8.502,-2.031,0.176,0.630,happy
5.69,3648,2989,3867,3535,166,0,0,0,0,0,0,0,0,0,1335,3721,0.124,4.144,8.346,1.955,0.545,0.573,1.221,-4.401,12.761,-2.092,-0.269,0.551,happy
5.70,3685,2380,3830,3495,0,0,0,0,0,0,2,0,0,0,1413,3847,-0.227,3.982,8.959,2.019,0.508,0.538,3.790,-11.952,18.862,-0.140,2.922,1.871,happy
5.71,3710,2223,3781,3443,0,0,0,0,0,0,0,0,0,0,1715,3879,-0.012,4.456,8.873,2.296,0.712,0.545,5.049,-1.970,11.236,-0.006,0.648,-0.325,happy
5.72,3724,1979,3720,3349,0,0,0,0,16,0,0,0,0,0,2087,3923,0.369,4.463,8.926,2.567,0.720,0.531,-1.693,-0.287,11.270,-0.237,1.548,0.498,happy
5.73,3729,1770,3605,3206,0,0,0,0,0,0,0,0,0,0,2275,3949,0.247,4.858,9.017,2.693,0.896,0.407,0.618,-5.849,13.204,-0.054,0.835,0.182,happy
5.74,3702,1505,3433,2821,0,0,0,0,0,0,0,0,153,0,2492,3981,-0.527,4.875,9.495,3.089,0.637,0.295,2.722,-1.951,8.732,0.037,0.817,0.197,happy
5.75,3651,1153,2943,2003,0,0,0,0,0,0,2,0,221,0,2731,3987,0.311,6.594,8.284,3.508,0.112,-0.066,-0.448,-1.551,12.153,-0.028,0.637,0.229,happy
5.76,3341,541,1917,608,0,0,0,0,0,137,0,0,407,0,2837,4023,-1.379,8.334,12.637,4.448,-1.564,-0.693,1.408,-2.389,10.072,-0.038,0.489,0.262,happy
5.77,2455,0,1,0,0,0,0,0,4,207,2,0,522,55,2935,4069,-0.572,7.044,11.717,5.625,-1.639,-1.385,1.164,-2.258,10.032,-0.045,0.446,0.261,happy
5.78,1571,0,0,0,0,0,0,0,0,419,10,3,600,0,3051,4083,0.141,9.139,12.294,6.170,-1.397,-1.661,0.721,-2.940,10.307,-0.014,0.335,0.222,happy
5.79,1037,0,0,0,0,0,0,0,0,686,12,235,721,0,3145,4093,-0.326,11.502,11.712,6.123,-1.306,-1.355,1.097,-2.377,9.864,-0.012,0.306,0.193,happy
5.80,491,0,0,0,0,0,0,0,3,936,17,699,981,0,3256,4095,0.965,11.557,9.589,5.219,-1.319,-1.263,1.355,-2.871,9.749,0.028,0.220,0.130,happy
5.81,0,0,0,0,0,0,0,0,1,1102,1287,1031,1366,0,3261,4095,3.139,5.320,19.613,1.904,0.004,-2.371,0.776,-1.808,9.862,0.005,0.156,0.093,happy
5.82,0,0,0,0,0,0,0,0,3,1195,1563,1443,1609,3,3411,4095,3.740,14.664,16.271,0.634,0.173,-2.106,0.967,-1.022,9.505,-0.039,0.203,0.107,happy
5.83,0,0,0,0,0,0,0,0,3,1307,1822,1806,1829,3,3383,4095,2.083,0.309,13.357,-0.262,-0.148,-1.831,1.089,-2.066,9.661,0.084,0.157,0.086,happy
5.84,0,0,0,0,0,0,0,0,2,1339,2165,1979,2005,3,3449,4095,1.185,1.393,12.558,-1.164,0.066,-1.996,1.034,-1.915,9.845,0.022,0.185,0.139,happy
5.85,0,0,0,0,0,0,0,0,0,1431,2423,2138,2091,3,3487,4095,1.923,1.549,11.143,-1.590,-0.513,-1.912,1.049,-2.330,9.574,-0.031,0.165,0.137,happy
5.86,0,0,0,0,0,0,0,0,1,1553,2413,2301,2180,4,3516,4091,2.461,1.846,9.555,-2.187,-0.697,-1.788,1.214,-2.732,9.601,-0.004,0.137,0.114,happy
5.87,0,0,0,0,0,0,0,0,0,1637,2474,2455,2318,3,3541,4076,2.947,1.822,7.630,-2.497,-0.768,-1.612,0.728,-2.195,9.888,-0.045,0.114,0.125,happy
5.88,0,0,0,0,0,0,0,0,2,1682,2541,2538,2359,1,3539,4053,3.359,2.409,6.895,-2.750,-0.733,-1.422,0.903,-2.461,9.771,-0.001,0.086,0.087,happy
5.89,0,0,0,0,0,0,0,0,2,1829,2469,2581,2431,0,3532,4075,3.160,3.213,7.412,-2.984,-0.709,-1.207,0.948,-2.447,9.677,-0.059,0.073,0.095,happy
5.90,0,0,0,0,0,0,0,0,3,1899,2638,2684,2485,0,3519,3981,3.112,3.934,7.326,-3.178,-0.808,-0.949,0.809,-2.260,9.677,-0.086,0.051,0.088,happy
5.91,0,0,0,0,0,0,0,0,5,2035,2674,2773,2513,0,3497,3926,2.847,4.822,7.592,-3.282,-0.950,-0.674,0.893,-2.377,9.912,-0.099,0.065,0.084,happy
5.92,0,0,0,0,0,0,0,0,1,2089,2697,2836,2571,3,3479,3868,2.777,6.026,8.126,-3.411,-1.098,-0.382,0.747,-2.320,9.730,-0.073,0.030,0.079,happy
5.93,0,0,0,0,0,0,0,0,2,2132,2710,2893,2670,4,3429,3787,2.974,6.539,8.265,-3.486,-1.212,-0.030,0.771,-2.433,9.910,-0.083,0.035,0.074,happy
5.94,0,0,0,0,0,0,0,0,2,2133,2702,3033,2667,3,3411,3689,2.971,7.341,8.940,-3.538,-1.241,0.362,1.006,-2.521,9.515,-0.069,0.041,0.058,happy
5.95,0,0,0,0,0,0,0,0,8,2153,2718,3095,2723,3,3357,3575,2.100,7.999,9.268,-3.595,-1.247,0.753,0.941,-2.682,9.802,-0.046,0.026,0.052,happy
5.96,0,0,0,0,0,0,0,0,5,2169,2756,3124,2793,5,3247,3551,0.939,8.456,9.072,-3.574,-1.303,1.045,0.790,-2.500,9.917,-0.099,0.003,0.042,happy
5.97,0,0,0,0,0,0,0,0,51,2217,2595,3129,2837,0,3237,3485,0.661,8.782,8.837,-3.445,-1.308,1.222,0.831,-2.538,9.665,-0.090,0.013,0.035,happy
5.98,0,0,0,0,0,0,0,0,63,2278,2894,3153,2876,23,3112,3427,0.761,8.897,8.914,-3.298,-1.231,1.354,0.915,-2.538,9.677,-0.088,0.019,0.030,happy
5.99,0,0,0,0,0,0,0,0,151,2325,2848,3221,2909,50,2991,3346,0.912,8.832,9.524,-3.157,-1.103,1.451,0.788,-2.507,9.771,-0.078,0.014,0.033,happy
6.00,0,0,0,0,0,0,0,0,179,2430,2879,3299,2973,42,2725,3192,1.537,8.696,9.742,-2.913,-0.885,1.649,0.809,-2.502,9.761,-0.060,0.015,0.036,happy
6.01,0,0,0,0,0,0,0,0,419,2521,2920,3325,3036,53,2723,3107,1.197,9.191,10.913,-2.718,-0.819,1.864,0.852,-2.449,9.979,-0.080,-0.003,0.017,happy
6.02,0,0,0,0,0,0,0,0,531,2582,2940,3399,3078,52,2665,3023,1.211,8.662,9.369,-2.454,-0.612,2.026,0.838,-2.605,9.934,-0.074,-0.014,0.019,happy
6.03,0,0,0,0,0,0,0,0,891,2623,2961,3485,3115,53,2429,2847,-0.431,7.525,9.098,-1.863,-0.228,1.974,0.907,-2.500,9.802,-0.097,0.006,0.017,happy
6.04,0,0,0,0,0,0,0,0,971,2698,2973,3549,3116,53,2217,2581,-4.164,9.254,13.300,-1.463,-0.962,1.839,0.888,-2.519,9.639,-0.094,-0.006,0.018,happy
6.05,0,0,0,0,0,0,0,0,1019,2709,3002,3571,3107,50,2181,2346,-3.168,11.164,14.672,-1.593,-1.646,1.581,0.886,-2.433,9.639,-0.113,-0.013,0.014,happy
6.06,0,0,0,0,0,0,0,0,1215,2735,2997,3654,2981,54,1868,1821,0.124,13.530,12.404,-2.123,-0.986,1.254,0.972,-2.777,9.752,-0.121,-0.001,0.011,happy
6.07,0,0,0,0,0,0,0,0,1579,2774,3037,3700,2675,51,1567,1097,-1.760,13.319,4.836,-2.215,-0.025,0.811,0.795,-2.710,9.675,-0.115,0.006,0.011,happy
6.08,0,0,0,0,0,0,0,0,1797,2799,3025,3733,2659,47,1309,885,-4.381,13.003,-1.369,-1.259,-1.013,0.630,0.807,-2.703,9.658,-0.093,0.002,0.022,happy
6.09,0,0,0,0,0,0,0,0,2145,2885,3058,3769,2505,69,603,685,-3.179,13.803,-4.465,-0.067,-1.141,0.492,0.802,-2.662,9.725,-0.069,-0.015,0.037,happy
6.10,0,0,0,0,0,0,0,0,2312,2957,3068,3849,2171,31,121,509,2.497,1.980,0.591,2.866,0.055,1.518,0.565,-1.937,9.663,-0.345,0.067,-0.083,happy
6.11,0,0,0,0,0,0,0,0,2409,2963,3061,3867,1925,27,115,498,6.766,6.491,11.147,1.385,3.831,0.318,1.178,-3.505,9.450,-0.411,0.069,-0.054,happy
6.12,0,0,0,0,0,0,0,208,2471,3004,3084,3886,1544,25,93,361,-0.749,-2.682,17.320,1.172,2.360,1.188,0.903,-3.244,9.543,-0.518,0.041,-0.060,happy
6.13,0,0,0,0,0,0,126,2512,2589,3025,3094,3877,1243,28,87,415,-19.336,-4.391,7.468,3.113,0.038,0.250,1.082,-2.808,9.606,-0.536,0.029,-0.060,happy
6.14,0,0,0,0,0,0,313,3286,2675,2999,3094,4020,686,11,33,87,-6.474,6.407,13.259,2.741,-0.167,-0.740,1.429,-3.158,9.555,-0.700,-0.127,-0.126,happy
6.15,44,34,38,23,36,36,1227,3541,2839,2831,3099,3909,363,1,5,52,6.740,5.124,8.262,2.573,-0.354,-0.311,1.255,-2.696,9.562,-0.988,-0.451,-0.263,happy
6.16,0,0,0,0,491,0,2330,3611,2807,2737,3084,3881,181,9,19,11,14.145,17.152,14.820,2.015,0.629,-0.184,1.034,-3.417,9.565,-1.199,-0.440,-0.347,happy
6.17,0,0,0,0,1008,0,2846,3618,2877,2468,3086,3814,21,0,0,0,3.330,-0.685,6.560,0.144,1.339,-0.582,1.393,-3.223,9.550,-1.637,-0.075,-0.413,happy
6.18,42,225,0,0,1447,0,3024,3646,2613,2028,3061,3733,0,0,0,17,-0.579,2.502,10.350,0.317,0.780,-0.247,1.377,-3.428,9.201,-2.284,0.391,-0.470,happy
6.19,209,656,145,0,1707,0,3225,3705,2379,1837,3037,3641,0,0,0,0,0.354,2.466,8.871,0.149,0.493,-0.144,1.738,-3.438,10.092,-2.753,0.600,-0.331,happy
6.20,324,1157,922,0,2010,0,3328,3775,1747,703,2610,3219,0,0,0,0,0.445,3.687,10.053,0.162,0.413,-0.170,0.824,-2.361,12.237,-4.023,0.585,0.272,happy
6.21,325,1398,1888,0,2291,0,3423,3794,837,187,15,1355,0,0,0,0,0.239,3.742,10.048,0.127,0.246,-0.120,-0.074,-3.297,14.590,-5.567,-0.307,1.476,happy
6.22,319,1678,2368,219,2587,0,3495,3826,810,18,10,165,0,0,0,0,0.541,3.622,9.512,0.119,0.095,-0.030,0.934,-8.449,14.672,-5.986,-1.426,1.667,happy
6.23,430,1890,2590,379,2795,0,3558,3839,0,0,0,0,0,0,0,15,0.706,3.680,9.586,0.118,0.151,-0.078,2.713,-10.750,9.060,-5.993,-2.229,2.280,happy
6.24,507,2041,2813,624,2993,29,3601,3823,0,0,0,0,0,0,0,0,0.436,3.618,9.510,0.109,0.084,-0.045,4.575,-5.619,12.251,-2.416,-0.106,3.089,happy
6.25,530,2170,2946,907,3089,87,3630,3835,0,0,0,0,0,0,0,2,0.347,3.409,9.380,0.097,0.085,-0.040,2.064,0.215,19.367,-0.177,0.468,3.423,happy
6.26,613,2219,3003,1075,3136,134,3639,3829,0,0,48,0,0,3,0,0,0.460,3.402,9.373,0.115,0.076,-0.044,1.073,-3.381,19.613,0.624,0.015,1.909,happy
6.27,655,2316,3107,1273,3211,219,3650,3859,0,0,0,0,0,0,0,0,0.469,3.462,9.414,0.116,0.078,-0.052,4.051,-0.043,7.827,1.938,-0.164,1.654,happy
6.28,759,2383,3178,1463,3269,295,3646,3737,0,0,0,0,0,0,0,0,0.448,3.455,9.328,0.127,0.060,-0.047,4.451,-0.500,4.913,2.403,0.056,1.016,happy
6.29,769,2427,3205,1582,3298,117,3622,3723,0,0,0,0,0,0,0,0,0.347,3.519,9.335,0.131,0.060,-0.049,4.106,-0.929,6.153,2.543,-0.020,0.712,happy
6.30,840,2500,3279,1841,3355,118,3623,3696,0,0,0,0,0,0,0,0,0.318,3.613,9.385,0.123,0.059,-0.042,4.243,-2.871,8.526,2.775,-0.283,0.296,happy
6.31,945,2586,3329,2096,3403,62,3613,3653,0,0,2,0,0,0,0,0,0.397,3.620,9.318,0.119,0.046,-0.030,4.465,-4.420,7.884,3.372,-0.487,-0.578,happy
6.32,1050,2650,3376,2256,3423,365,3600,3583,0,0,79,0,0,0,0,0,0.469,3.637,9.323,0.101,0.052,-0.029,3.026,-5.691,8.490,3.355,-0.544,-1.179,happy
6.33,1165,2691,3414,2388,3486,431,3573,3573,0,0,7,0,0,0,0,0,0.412,3.603,9.383,0.107,0.043,-0.029,2.397,-6.539,9.902,3.401,-0.639,-1.448,happy
6.34,1247,2745,3450,2487,3519,503,3550,3537,0,0,0,0,0,0,0,0,0.330,3.618,9.378,0.095,0.048,-0.027,1.219,-7.209,10.242,3.454,-0.621,-1.729,happy
6.35,1390,2795,3467,2540,3554,453,3504,3470,0,0,0,0,0,0,0,0,0.287,3.606,9.345,0.087,0.041,-0.027,0.491,-6.728,10.372,3.268,-0.616,-1.622,happy
6.36,1495,2832,3506,2644,3578,542,3494,3472,0,0,0,0,0,0,0,0,0.278,3.728,9.548,0.091,0.028,-0.019,0.488,-6.639,10.839,3.200,-0.655,-1.488,happy
6.37,1568,2875,3535,2711,3605,607,3455,3440,0,0,0,0,0,0,0,0,0.388,3.606,9.378,0.082,0.032,-0.022,0.405,-6.249,11.420,3.034,-0.649,-1.042,happy
6.38,1684,2911,3562,2763,3631,573,3437,3393,0,33,2,0,0,0,0,0,0.381,3.639,9.323,0.100,0.026,-0.025,-0.151,-6.235,12.474,2.797,-1.270,-0.647,happy
6.39,1738,2941,3583,2802,3647,501,3369,3326,0,0,0,0,0,0,0,0,0.397,3.582,9.304,0.103,0.026,-0.021,-0.050,-6.306,12.526,2.701,-1.520,-0.516,happy
6.40,1820,2972,3611,2864,3648,367,3260,3241,0,0,0,0,0,11,0,37,0.333,3.637,9.199,0.109,0.036,-0.027,-1.188,-5.863,11.851,2.446,-1.538,-0.226,happy
6.41,1966,2995,3643,2928,3663,0,3107,3067,12,0,0,0,0,0,0,0,0.280,3.651,9.285,0.109,0.030,-0.021,-2.777,-7.750,15.663,2.502,-1.917,0.143,happy
6.42,2097,3045,3664,3015,3671,0,2928,2913,0,0,0,8,0,0,0,0,0.357,3.780,9.234,0.099,0.027,-0.020,-1.968,-7.702,13.757,2.582,-1.949,0.152,happy
6.43,2208,3082,3681,3059,3661,0,2767,2559,0,0,0,0,0,0,0,0,0.433,3.680,9.306,0.124,0.040,-0.024,-3.903,-9.433,12.656,2.428,-0.769,0.436,happy
6.44,2282,3149,3726,3151,3670,0,2610,1913,0,0,0,0,0,0,0,0,0.318,3.677,9.306,0.133,0.055,-0.018,1.013,-9.610,5.911,1.801,-0.625,0.171,happy
6.45,2352,3177,3760,3211,3664,0,2494,1346,0,0,0,0,0,0,0,0,0.323,3.814,9.263,0.152,0.069,-0.007,-1.018,-9.278,4.781,1.308,-0.431,-0.074,happy
6.46,2446,3237,3779,3280,3627,0,2218,99,0,0,58,0,0,0,0,0,0.369,3.745,9.354,0.192,0.092,0.007,-3.041,-9.962,3.445,0.791,-0.603,-0.230,happy
6.47,2528,3275,3806,3316,3575,0,1977,0,0,0,0,0,0,0,1,0,0.259,3.792,9.201,0.202,0.107,0.013,-3.201,-10.163,1.690,0.157,-0.681,-0.226,happy
6.48,2559,3312,3824,3345,3473,0,1686,0,0,0,0,0,8,0,0,0,0.302,3.910,9.201,0.209,0.121,0.011,-3.428,-10.396,1.446,-0.429,-0.504,-0.017,happy
6.49,2653,3344,3843,3397,3244,0,1255,0,0,0,0,0,0,0,0,0,0.256,3.910,9.421,0.191,0.137,0.009,-2.478,-3.503,4.695,-0.911,-0.495,0.121,happy
6.50,2694,3394,3861,3426,3120,0,865,0,0,0,0,0,0,0,0,0,0.397,3.752,9.194,0.235,0.145,0.019,4.096,-10.283,-0.122,-1.566,1.532,0.024,happy
6.51,2786,3432,3868,3447,2956,0,426,0,0,0,0,0,0,0,0,0,0.280,3.934,9.333,0.226,0.161,0.008,5.080,-4.628,15.062,-0.515,2.602,0.291,happy
6.52,2863,3456,3885,3472,2753,0,176,0,0,0,0,0,0,0,0,0,0.323,3.685,9.148,0.220,0.119,-0.010,3.780,1.142,14.600,-1.148,1.447,-0.273,happy
6.53,2928,3484,3899,3495,2518,0,32,0,0,0,0,0,0,0,0,150,0.180,2.713,9.266,0.495,0.171,0.110,-0.917,6.108,5.772,-2.096,0.440,-0.224,happy
6.54,2963,3502,3907,3507,2176,0,0,0,0,0,0,0,25,0,0,1061,0.407,3.706,9.208,0.576,0.181,0.146,-2.648,0.812,8.119,-3.002,0.298,0.559,happy
6.55,3051,3505,3909,3523,1868,0,0,0,6,0,0,0,0,0,351,2248,0.383,3.792,9.074,0.703,0.181,0.211,-4.175,-1.240,9.740,-3.462,0.223,1.127,happy
6.56,3133,3506,3915,3531,1568,0,0,0,0,0,2,0,0,0,639,2892,0.196,4.324,9.091,0.804,0.145,0.246,-0.247,-4.144,10.750,-2.821,0.199,1.029,happy
6.57,3206,3477,3921,3527,1347,0,0,0,0,47,2,0,0,0,724,3384,-0.036,3.864,9.661,0.901,0.145,0.342,2.236,-3.620,9.737,-2.407,0.033,0.769,happy
6.58,3279,3434,3915,3515,1150,0,0,0,0,0,0,0,0,0,1255,3740,0.249,3.843,9.230,1.072,0.157,0.396,19.613,-3.203,19.613,-2.588,0.172,0.875,happy
6.59,3334,3340,3895,3455,642,0,0,0,0,0,0,0,0,0,1573,3854,0.587,3.314,9.268,1.580,0.239,0.508,-2.931,1.034,12.347,-0.056,2.450,0.729,happy
6.60,3359,3248,3874,3400,401,0,0,0,0,0,0,12,0,0,1636,3901,0.579,3.867,9.220,2.000,0.260,0.523,-5.286,-1.065,17.746,-0.289,0.769,0.178,happy
6.61,3386,2797,3813,3216,0,0,0,0,0,23,0,0,0,0,2011,3951,0.682,4.113,9.024,2.489,0.485,0.505,0.950,-2.289,9.972,0.086,0.537,0.066,happy
6.62,3377,2298,3759,2812,0,0,0,0,0,171,2,0,0,0,2167,3975,0.151,4.939,8.818,2.713,0.485,0.465,1.106,-2.658,10.465,0.053,0.442,0.102,happy
6.63,3338,2089,3658,2015,0,0,0,0,0,213,0,255,0,0,2327,3997,0.426,4.590,10.427,3.050,0.139,0.327,1.049,-1.609,9.972,-0.074,0.386,0.185,happy
6.64,3035,1712,3230,1123,0,0,0,0,0,285,0,565,45,0,2549,4023,-1.887,4.336,12.323,4.169,-0.564,0.179,2.126,-2.737,9.100,-0.006,0.402,0.197,happy
6.65,1782,1129,2306,112,0,0,0,0,0,376,2,1369,232,0,2764,4069,-0.421,6.369,11.116,5.591,-1.723,-0.701,0.917,-2.586,9.934,-0.044,0.203,0.120,happy
6.66,946,241,315,0,0,0,0,0,5,495,1374,1773,393,3,2943,4095,-0.189,10.661,13.051,6.240,-1.375,-1.527,0.984,-2.636,9.828,0.004,0.118,0.081,happy
6.67,348,0,0,0,0,0,0,0,5,732,1389,1846,443,4,3021,4095,2.574,11.272,9.876,5.059,-1.347,-1.561,0.754,-2.052,9.823,0.032,0.093,0.042,happy
6.68,0,0,0,0,0,0,0,0,3,805,1374,2029,555,3,3101,4095,4.274,5.720,15.830,2.838,0.234,-2.036,0.848,-2.526,9.878,0.028,0.062,0.046,happy
6.69,0,0,0,0,0,0,0,0,2,874,1425,2171,621,3,3207,4095,5.332,11.162,12.486,1.210,0.816,-2.175,0.864,-2.315,9.807,0.016,0.035,0.029,happy
6.70,0,0,0,0,0,0,0,0,9,933,1916,2311,665,3,3341,4095,1.154,-0.843,15.675,-0.440,0.498,-1.256,0.828,-2.447,9.876,0.051,0.042,0.018,happy
6.71,0,0,0,0,0,0,0,0,3,916,2098,2395,684,0,3311,4095,3.247,1.669,10.719,-1.297,0.728,-1.479,0.860,-2.490,9.957,0.064,0.022,0.010,happy
6.72,0,0,0,0,0,0,0,0,3,970,2154,2380,799,9,3389,4095,2.926,0.239,9.802,-1.782,0.783,-1.489,0.838,-2.322,9.924,0.060,0.029,0.020,happy
6.73,0,0,0,0,0,0,0,0,2,1123,2234,2409,793,3,3469,4095,3.285,1.456,8.490,-2.152,0.718,-1.399,0.919,-2.358,9.862,0.049,0.029,0.015,happy
6.74,0,0,0,0,0,0,0,0,2,1255,2249,2479,1071,3,3503,4095,3.500,1.762,7.642,-2.523,0.664,-1.218,0.962,-2.215,9.838,0.007,0.035,0.054,happy
6.75,0,0,0,0,0,0,0,0,3,1325,2265,2488,1184,3,3531,4095,3.795,2.375,6.639,-2.753,0.511,-0.969,0.924,-2.301,9.740,-0.043,0.033,0.071,happy
6.76,0,0,0,0,0,0,0,0,0,1416,2126,2535,1303,3,3625,4095,4.274,3.476,6.716,-2.922,0.405,-0.683,0.915,-2.361,9.787,-0.054,0.025,0.066,happy
6.77,0,0,0,0,0,0,0,0,3,1507,2249,2541,1382,0,3531,4095,4.712,4.731,6.984,-3.089,0.298,-0.326,0.917,-2.306,9.804,-0.070,0.035,0.058,happy
6.78,0,0,0,0,0,0,0,0,0,1561,2346,2557,1483,23,3553,4095,4.918,5.926,7.487,-3.241,0.217,0.072,0.907,-2.212,9.431,-0.088,0.018,0.056,happy
6.79,0,0,0,0,0,0,0,0,0,1675,2510,2599,1527,3,3548,4061,5.282,7.034,7.446,-3.410,0.218,0.515,0.785,-2.444,9.821,-0.072,-0.006,0.051,happy
6.80,0,0,0,0,0,0,0,0,2,1739,2592,2583,1628,4,3546,4089,5.504,7.733,7.238,-3.478,0.271,0.991,0.907,-2.435,9.759,-0.061,-0.000,0.043,happy
6.81,0,0,0,0,0,0,0,0,2,1807,2505,2631,1723,0,3541,4071,5.198,8.423,7.149,-3.444,0.296,1.491,0.934,-2.464,9.773,-0.041,-0.004,0.042,happy
6.82,0,0,0,0,0,0,0,0,1,1812,2646,2601,1807,2,3535,4095,4.305,9.007,7.441,-3.323,0.226,1.958,0.869,-2.397,9.735,-0.069,0.010,0.051,happy
6.83,0,0,0,0,0,0,0,0,5,1863,2671,2645,1915,3,3497,4023,3.596,9.819,7.784,-3.186,0.054,2.321,0.881,-2.423,9.673,-0.067,0.016,0.062,happy
6.84,0,0,0,0,0,0,0,0,0,1937,2671,2611,2005,3,3519,3999,3.783,10.317,8.066,-3.062,0.009,2.582,0.905,-2.547,9.869,-0.051,0.022,0.058,happy
6.85,0,0,0,0,0,0,0,0,2,1983,2684,2727,2079,4,3509,3977,4.441,10.839,8.224,-2.948,0.188,2.768,0.840,-2.526,9.764,-0.046,0.030,0.068,happy
6.86,0,0,0,0,0,0,0,0,3,2020,2710,2781,2195,5,3615,3931,4.764,11.200,8.516,-2.832,0.423,2.885,0.960,-2.569,9.656,-0.025,0.030,0.059,happy
6.87,0,0,0,0,0,0,0,0,4,2079,2715,2869,2264,3,3518,3895,4.889,11.423,8.696,-2.757,0.610,2.946,0.749,-2.138,9.843,-0.029,0.027,0.056,happy
6.88,0,0,0,0,0,0,0,0,1,2217,2710,2862,2431,1,3517,3823,5.267,10.968,8.095,-2.681,0.652,3.015,0.790,-2.468,9.821,-0.026,0.037,0.063,happy
6.89,0,0,0,0,0,0,0,0,3,2239,2715,2911,2468,3,3516,3783,5.365,10.530,7.247,-2.504,0.560,3.055,0.840,-2.459,9.761,-0.009,0.034,0.059,happy
6.90,0,0,0,0,0,0,0,0,3,2315,2720,2943,2558,3,3511,3756,5.555,10.197,7.204,-2.267,0.334,3.042,0.900,-2.519,9.766,0.017,0.027,0.058,happy
6.91,0,0,0,0,0,0,0,0,3,2387,2720,2975,2635,0,3475,3736,5.258,10.166,8.550,-1.949,-0.104,3.008,0.936,-2.595,9.653,-0.005,0.029,0.055,happy
6.92,0,0,0,0,0,0,0,0,1,2463,2730,3005,2697,6,3469,3763,5.033,10.539,9.704,-1.842,-0.482,2.937,1.171,-2.624,9.579,0.012,0.035,0.054,happy
6.93,0,0,0,0,0,0,0,0,3,2507,2743,3037,2770,5,3425,3759,4.262,9.778,9.924,-1.842,-0.757,2.804,0.931,-2.442,9.900,-0.029,0.033,0.054,happy
6.94,0,0,0,0,0,0,0,0,4,2551,2751,3049,2808,5,3352,3740,3.414,8.835,9.165,-1.757,-1.017,2.633,0.816,-2.454,10.046,-0.031,0.028,0.041,happy
6.95,0,0,0,0,0,0,0,0,16,2601,2766,3077,2867,8,3225,3735,3.170,8.483,8.650,-1.569,-1.186,2.422,0.876,-2.648,9.713,-0.028,0.030,0.047,happy
6.96,0,0,0,0,0,0,0,0,21,2611,2782,3118,2909,10,3113,3710,3.120,8.557,8.760,-1.309,-1.297,2.241,0.864,-2.461,9.835,-0.032,0.027,0.040,happy
6.97,0,0,0,0,0,0,0,0,25,2634,2892,3157,2942,9,3077,3695,3.627,10.297,11.854,-1.153,-1.478,2.087,0.706,-2.236,9.859,-0.034,-0.010,0.028,happy
6.98,0,0,0,0,0,0,0,0,60,2663,2871,3199,2939,20,3023,3601,1.396,9.637,9.414,-1.442,-1.742,2.619,0.802,-2.579,9.847,-0.052,0.013,0.033,happy
6.99,0,0,0,0,0,0,0,0,125,2681,2884,3191,3080,0,3033,3652,3.280,9.783,6.055,-1.100,-1.378,2.877,0.840,-2.437,9.754,-0.084,0.006,0.019,happy
7.00,0,0,0,0,0,0,0,0,83,2727,2894,3205,3091,25,2963,3465,4.207,11.334,6.323,-0.774,-0.375,2.991,0.852,-2.588,9.704,-0.048,-0.008,0.029,happy
7.01,0,0,0,0,0,0,0,0,231,2745,2915,3244,3155,47,2855,3235,0.843,12.016,4.913,-0.728,0.950,2.874,0.924,-2.564,9.761,-0.085,0.015,0.019,happy
7.02,0,0,0,0,0,0,0,0,293,2773,2838,3271,3144,38,2811,3239,-3.960,11.246,4.140,-0.220,0.115,2.207,0.967,-2.545,9.855,-0.090,0.028,0.010,happy
7.03,0,0,0,0,0,0,0,0,557,2781,2930,3317,3187,53,2677,3022,-3.383,11.334,2.950,0.146,-0.688,1.466,0.955,-2.614,9.536,-0.123,0.003,0.006,happy
7.04,0,0,0,0,0,0,0,0,695,2851,2966,3412,3080,105,2508,2787,-0.268,12.074,-4.671,2.182,1.339,1.045,0.998,-2.670,9.692,-0.142,-0.006,0.000,happy
7.05,0,0,0,0,0,0,0,0,794,2835,2979,3451,3015,47,2269,2643,4.065,2.354,18.794,0.964,2.540,0.540,0.953,-2.610,9.694,-0.128,-0.019,0.005,happy
7.06,0,0,0,0,0,0,405,1887,999,2863,3017,3513,2857,47,2215,1919,-9.752,-8.973,6.249,1.949,0.621,0.578,0.886,-2.624,9.665,-0.143,-0.042,0.019,happy
7.07,0,0,0,0,0,0,366,2775,1213,2863,3027,3559,2605,44,1469,1321,-9.055,4.908,14.600,2.862,0.441,-1.122,1.101,-2.547,9.914,-0.094,-0.119,0.075,happy
7.08,0,0,0,0,0,0,657,3100,1354,2873,2920,3549,2339,52,670,1053,5.205,3.153,6.833,2.054,0.699,-0.781,1.336,-3.553,9.708,-0.010,-0.113,0.160,happy
7.09,0,0,0,0,113,0,1341,3189,1608,2709,3053,3563,1407,91,228,755,1.180,5.578,12.582,2.278,-0.327,-0.358,0.316,-0.373,9.601,-0.759,-0.035,-0.043,happy
7.10,0,0,0,0,896,0,2080,3238,1919,2792,3063,3577,657,27,103,559,3.869,1.966,1.803,-0.163,1.488,-0.374,1.113,-3.888,9.778,-0.658,-0.034,-0.120,happy
7.11,25,336,0,0,1168,0,2355,3335,2037,2859,3063,3601,587,19,46,491,-3.814,3.273,12.629,0.394,0.722,-0.302,0.917,-2.883,9.455,-0.732,-0.117,-0.170,happy
7.12,163,673,0,0,1456,0,2622,3386,2083,2836,2892,3596,315,12,38,332,0.946,3.627,9.553,0.041,0.265,-0.042,1.310,-3.158,9.519,-0.814,-0.229,-0.188,happy
7.13,213,1014,219,0,1497,0,2756,3415,2084,2700,3027,3468,215,5,20,263,0.974,3.354,9.189,0.083,0.181,-0.065,1.307,-3.208,9.692,-1.071,-0.268,-0.204,happy
7.14,208,1272,523,0,1596,0,2892,3494,2053,2539,3012,3501,265,3,3,170,0.771,3.496,9.448,0.035,0.219,-0.082,1.135,-3.299,9.395,-1.267,-0.114,-0.177,happy
7.15,261,1473,951,0,1889,0,3007,3564,1925,2246,2986,3347,81,2,2,105,0.330,3.412,9.629,0.035,0.047,-0.014,1.262,-3.072,10.712,-1.785,-0.057,0.035,happy
7.16,318,1645,1355,0,2134,0,3166,3623,1853,1805,2833,2623,210,0,0,0,0.230,3.132,9.203,0.044,0.088,-0.008,0.105,-2.382,10.669,-2.842,-0.348,0.493,happy
7.17,385,1830,1705,0,2333,0,3301,3719,1517,1689,2600,1431,211,0,1,0,0.560,3.371,9.414,0.107,0.023,-0.071,0.074,-2.492,11.782,-3.482,-0.792,0.909,happy
7.18,457,1948,2034,118,2627,0,3411,3786,696,1006,2,0,205,0,0,0,0.170,3.417,9.582,0.086,0.013,-0.051,-0.115,-5.545,14.930,-4.873,-2.362,1.439,happy
7.19,506,2098,2277,254,2917,195,3507,3824,340,137,0,0,0,0,0,0,0.433,3.524,9.483,0.078,0.001,-0.018,1.561,-9.160,9.263,-5.803,-4.589,1.489,happy
7.20,592,2144,2439,299,3006,443,3568,3851,55,25,2,0,0,0,0,0,0.457,3.433,9.404,0.078,0.024,-0.027,2.526,-9.699,9.256,-5.655,-5.837,1.409,happy
7.21,637,2207,2541,336,3094,535,3613,3863,0,0,0,25,0,0,0,0,0.584,3.436,9.369,0.120,0.044,-0.062,3.491,-8.736,6.455,-4.244,-4.692,2.401,happy
7.22,674,2307,2619,353,3168,489,3632,3845,0,0,0,8,0,0,0,0,0.536,3.381,9.321,0.107,0.062,-0.059,1.879,-6.026,8.313,-1.052,-0.683,3.724,happy
7.23,723,2367,2701,430,3211,458,3627,3853,0,0,0,0,0,0,0,0,0.500,3.378,9.328,0.139,0.067,-0.068,-4.367,-18.653,19.613,1.181,-0.846,2.753,happy
7.24,780,2441,2783,573,3217,448,3622,3824,0,0,0,0,0,20,0,0,0.563,3.505,9.354,0.150,0.078,-0.066,-0.275,-4.310,7.403,2.410,-1.962,2.179,happy
7.25,833,2474,2896,698,3218,437,3599,3766,2,0,0,0,0,0,0,0,0.414,3.421,9.282,0.148,0.080,-0.068,0.369,-2.744,4.707,2.955,-1.664,2.294,happy
7.26,879,2501,2925,848,3211,478,3579,3789,0,0,0,0,0,0,0,0,0.438,3.639,9.352,0.152,0.067,-0.060,1.475,-2.516,5.167,3.081,-1.391,2.048,happy
7.27,921,2545,2976,951,3229,431,3571,3771,0,0,0,0,0,0,0,0,0.503,3.591,9.318,0.150,0.077,-0.055,1.697,-3.220,6.474,3.259,-1.028,1.753,happy
7.28,970,2559,3025,1042,3198,437,3568,3742,0,0,71,0,0,0,0,0,0.484,3.697,9.419,0.131,0.083,-0.052,1.326,-3.666,6.737,3.351,-0.852,1.353,happy
7.29,1075,2586,3071,1217,3207,527,3554,3742,0,16,0,0,0,0,0,52,0.438,3.632,9.385,0.102,0.078,-0.047,0.510,-3.563,6.711,3.402,-0.790,1.107,happy
7.30,1179,2625,3150,1435,3238,637,3555,3740,0,0,0,0,0,0,0,0,0.412,3.642,9.261,0.105,0.069,-0.042,-1.401,-4.439,8.147,3.543,-1.191,0.749,happy
7.31,1241,2653,3193,1687,3255,782,3545,3728,0,0,0,0,0,0,0,0,0.364,3.725,9.258,0.089,0.066,-0.037,-1.954,-5.155,8.485,3.505,-1.324,0.629,happy
7.32,1296,2674,3244,1840,3262,915,3542,3722,0,0,0,0,0,0,0,0,0.321,3.654,9.301,0.068,0.067,-0.023,-2.289,-5.816,8.964,3.502,-1.172,0.699,happy
7.33,1360,2691,3275,1991,3269,1059,3547,3712,0,0,0,0,0,0,0,0,0.280,3.582,9.349,0.076,0.054,-0.016,-4.149,-6.302,10.896,3.504,-1.281,0.915,happy
7.34,1386,2731,3300,2071,3292,1158,3534,3681,0,0,0,0,0,0,0,0,0.347,3.654,9.309,0.073,0.054,-0.014,-4.846,-6.098,10.324,3.350,-1.508,1.320,happy
7.35,1483,2738,3329,2192,3281,1232,3519,3691,0,0,0,0,7,0,0,0,0.335,3.680,9.261,0.067,0.053,-0.022,-4.875,-6.172,10.590,3.247,-1.444,1.608,happy
7.36,1519,2747,3348,2273,3307,1361,3504,3687,0,38,2,0,0,0,0,25,0.335,3.692,9.285,0.078,0.055,-0.028,-5.069,-7.070,11.279,3.058,-1.354,2.163,happy
7.37,1616,2766,3371,2329,3313,1482,3498,3653,0,0,0,0,2,0,0,0,0.376,3.701,9.292,0.072,0.058,-0.023,-4.810,-7.254,10.987,2.733,-1.147,2.566,happy
7.38,1695,2779,3387,2403,3302,1631,3468,3666,0,0,0,0,0,0,0,0,0.383,3.687,9.361,0.060,0.072,-0.022,-5.622,-7.123,10.973,2.555,-1.066,2.746,happy
7.39,1712,2790,3408,2473,3304,1766,3447,3649,0,0,0,0,0,0,25,0,0.256,3.711,9.335,0.067,0.068,-0.021,-6.560,-6.735,9.682,2.075,-1.069,3.139,happy
7.40,1742,2799,3425,2528,3309,1840,3413,3598,0,0,0,0,56,0,0,0,0.297,3.651,9.189,0.064,0.074,-0.012,-7.889,-7.882,11.337,1.746,-0.816,3.695,happy
7.41,1845,2802,3441,2625,3275,1833,3355,3579,0,0,0,0,0,0,0,0,0.263,3.613,9.285,0.069,0.068,-0.006,-6.917,-8.143,9.744,1.645,-0.784,3.955,happy
7.42,1929,2821,3470,2693,3249,1605,3252,3510,0,0,0,0,0,0,0,0,0.215,3.654,9.234,0.080,0.077,-0.008,-2.729,-8.464,7.017,1.186,-0.683,3.919,happy
7.43,2021,2834,3551,2751,3198,1269,3149,3393,0,0,0,0,0,0,0,51,0.215,3.713,9.258,0.087,0.067,-0.010,0.072,-9.395,7.173,0.788,-0.038,2.839,happy
7.44,2091,2849,3526,2880,3149,846,2999,3289,0,0,0,0,0,0,0,0,0.206,3.677,9.311,0.092,0.082,-0.018,1.204,-8.492,5.672,0.563,0.598,2.088,happy
7.45,2159,2867,3567,2958,3056,405,2827,3070,0,0,0,0,0,0,0,0,0.168,3.649,9.361,0.120,0.095,-0.025,5.327,-4.314,8.437,-0.135,0.956,1.159,happy
7.46,2242,2901,3607,3027,2933,274,2489,2640,0,51,0,0,0,0,0,0,0.115,3.644,9.361,0.126,0.108,-0.028,9.172,3.203,8.109,-1.237,-0.279,-0.216,happy
7.47,2355,2918,3657,3119,2709,0,1931,1216,0,0,0,0,0,0,0,1170,0.278,3.728,9.414,0.175,0.134,-0.019,3.110,-0.678,6.426,-1.053,0.232,0.043,happy
7.48,2429,2919,3677,3188,2369,0,1043,0,0,0,0,0,0,0,112,2985,0.211,3.630,9.385,0.267,0.182,0.012,1.618,-2.586,10.616,-1.142,0.217,0.158,happy
7.49,2528,2928,3710,3216,1803,0,150,0,0,37,0,0,0,0,522,3499,0.481,3.110,9.632,0.376,0.182,0.059,-5.792,-16.108,19.613,-5.277,-3.307,-0.710,happy
7.50,2645,2906,3729,3323,1245,0,0,0,0,0,0,0,0,0,1096,3541,-0.941,-0.769,10.032,1.314,0.347,0.604,-0.287,-2.107,7.779,-1.002,-0.748,-0.303,happy
7.51,2766,2713,3754,3367,891,0,0,0,0,0,104,0,0,0,1305,3783,-0.388,4.417,8.885,1.092,0.301,0.462,0.306,-2.421,10.793,-0.417,-0.087,0.096,happy
7.52,2906,2150,3758,3347,176,0,0,0,0,0,0,0,0,0,1563,3849,-0.412,3.711,8.473,1.290,0.297,0.505,1.022,-2.131,9.783,-0.136,0.016,-0.005,happy
7.53,2992,2065,3750,3315,0,0,0,0,0,0,74,0,0,1,1757,3785,-0.136,3.005,9.311,1.595,0.347,0.585,1.085,-2.260,9.876,-0.166,0.044,0.028,happy
7.54,3043,2065,3715,3195,0,0,0,0,0,0,2,70,0,0,1900,3877,0.608,3.824,9.574,1.828,0.573,0.570,1.001,-2.308,9.852,-0.137,0.082,0.043,happy
7.55,3103,1731,3658,3029,0,0,0,0,0,0,2,157,0,0,2011,3914,0.742,4.053,9.309,2.185,0.904,0.693,1.085,-2.234,9.699,-0.146,0.104,0.076,happy
7.56,3101,1490,3513,2641,0,0,0,0,0,0,0,274,0,0,2036,3938,2.674,5.602,10.022,2.785,1.054,0.697,1.106,-2.562,10.003,-0.121,0.115,0.099,happy
7.57,3034,1280,3318,2267,0,0,0,0,0,0,2,380,0,0,2257,3996,1.008,3.833,9.136,3.186,1.427,0.700,1.207,-2.557,9.795,-0.074,0.092,0.099,happy
7.58,2800,930,2790,1766,0,0,0,0,0,0,0,372,0,0,2397,3999,0.261,3.388,10.669,3.404,1.683,0.319,0.931,-2.409,9.677,-0.054,0.117,0.110,happy
7.59,2367,405,2190,1319,0,0,0,0,0,0,2,524,0,0,2584,4025,1.369,7.202,9.902,3.859,1.598,-0.119,1.008,-2.512,9.787,-0.039,0.111,0.114,happy
7.60,2144,0,1525,813,0,0,0,0,0,0,2,874,175,0,2650,4053,-1.803,9.562,19.613,4.285,0.980,-0.744,0.939,-2.346,9.742,-0.021,0.115,0.107,happy
7.61,1874,0,490,128,0,0,0,0,0,0,5,1043,287,0,2794,4083,0.986,8.248,12.629,4.348,1.373,-1.751,0.883,-2.263,9.536,-0.026,0.112,0.127,happy
7.62,1312,0,0,0,0,0,0,0,0,0,7,1149,285,0,2878,4095,2.602,6.280,12.055,3.894,2.144,-1.910,0.931,-2.528,9.771,-0.025,0.108,0.125,happy
7.63,298,0,0,0,0,0,0,0,0,109,181,1214,405,0,2995,4095,-0.857,12.756,12.198,2.912,3.114,-1.529,0.972,-2.411,9.821,-0.000,0.105,0.115,happy
7.64,0,0,0,0,0,0,0,0,0,139,76,1503,461,0,3113,4095,3.955,5.279,16.185,1.243,3.052,-1.174,0.895,-2.339,9.996,-0.027,0.107,0.108,happy
7.65,0,0,0,0,0,0,0,0,1,165,1248,1641,486,3,3166,4095,7.254,12.254,14.945,-0.215,2.172,0.699,0.723,-2.320,10.094,-0.026,0.101,0.103,happy
7.66,0,0,0,0,0,0,0,0,1,237,1389,1644,543,4,3221,4095,6.867,0.907,10.542,-0.723,2.636,1.172,1.051,-2.483,9.857,-0.020,0.102,0.089,happy
7.67,0,0,0,0,0,0,0,0,4,280,1333,1739,525,4,3253,4095,5.059,2.306,8.291,-1.217,2.968,1.429,0.893,-2.418,9.914,-0.029,0.117,0.081,happy
7.68,0,0,0,0,0,0,0,0,7,255,1343,1882,505,3,3247,4095,2.600,1.463,7.956,-1.483,2.804,1.552,0.881,-2.342,9.658,-0.044,0.113,0.075,happy
7.69,0,0,0,0,0,0,0,0,1,264,1576,2026,595,18,3289,4095,2.607,1.975,7.068,-1.668,2.285,1.660,0.795,-2.387,9.886,-0.055,0.089,0.078,happy
7.70,0,0,0,0,0,0,0,0,1,317,1330,2063,595,0,3292,4095,3.263,2.071,6.991,-1.793,1.961,1.713,0.704,-2.444,9.682,-0.055,0.056,0.064,happy
7.71,0,0,0,0,0,0,0,0,2,365,1466,2167,615,3,3291,4095,3.819,3.065,7.104,-2.010,1.767,1.791,0.797,-2.521,9.764,-0.052,0.048,0.054,happy
7.72,0,0,0,0,0,0,0,0,2,359,1420,2246,600,7,3289,4095,4.343,4.408,7.776,-2.332,1.781,1.852,0.792,-2.478,9.732,-0.047,0.052,0.048,happy
7.73,0,0,0,0,0,0,0,0,2,373,1548,2287,598,2,3235,4095,4.575,5.459,7.956,-2.632,1.765,1.903,0.860,-2.480,9.816,-0.050,0.042,0.052,happy
7.74,0,0,0,0,0,0,0,0,3,413,1681,2277,637,4,3301,4095,5.243,6.472,7.307,-2.891,1.729,1.987,0.907,-2.514,9.780,-0.049,0.044,0.053,happy
7.75,0,0,0,0,0,0,0,0,4,428,1696,2325,663,3,3291,4095,5.717,6.778,6.481,-3.000,1.698,2.108,0.795,-2.543,9.883,-0.047,0.038,0.051,happy
7.76,0,0,0,0,0,0,0,0,2,469,1627,2379,761,5,3303,4095,6.337,7.570,6.697,-3.003,1.627,2.292,0.840,-2.502,9.787,-0.027,0.036,0.042,happy
7.77,0,0,0,0,0,0,0,0,0,467,1753,2405,681,5,3303,4093,6.637,8.361,7.034,-2.977,1.490,2.559,0.812,-2.533,9.771,-0.020,0.042,0.042,happy
7.78,0,0,0,0,0,0,0,0,3,445,2249,2416,727,5,3338,4095,7.336,9.266,7.106,-2.914,1.366,2.897,0.730,-2.538,9.835,-0.016,0.035,0.045,happy
7.79,0,0,0,0,0,0,0,0,3,457,2188,2428,747,4,3299,4095,8.722,9.902,6.582,-2.807,1.423,3.354,0.800,-2.485,9.835,-0.015,0.045,0.046,happy
7.80,0,0,0,0,0,0,0,0,3,429,2367,2445,756,4,3301,4095,8.686,10.477,6.900,-2.635,1.543,3.876,0.759,-2.571,9.780,0.003,0.053,0.045,happy
7.81,0,0,0,0,0,0,0,0,3,424,2403,2476,748,4,3321,4079,8.102,11.406,7.566,-2.495,1.570,4.321,0.795,-2.555,9.766,0.009,0.059,0.036,happy
7.82,0,0,0,0,0,0,0,0,1,457,2311,2476,701,0,3334,4089,8.104,11.705,7.683,-2.373,1.607,4.683,0.807,-2.502,9.809,0.016,0.048,0.033,happy
7.83,0,0,0,0,0,0,0,0,3,445,2393,2439,764,4,3347,4091,7.913,11.502,7.535,-2.229,1.717,4.964,0.790,-2.490,9.620,0.021,0.027,0.031,happy
7.84,0,0,0,0,0,0,0,0,3,482,2423,2423,756,2,3403,4089,7.350,11.480,7.688,-2.129,1.840,5.126,0.814,-2.468,9.725,0.025,0.041,0.029,happy
7.85,0,0,0,0,0,0,0,0,2,555,2439,2425,839,5,3369,4085,6.821,11.030,7.503,-2.033,1.957,5.168,0.792,-2.538,9.811,0.034,0.040,0.025,happy
7.86,0,0,0,0,0,0,0,0,2,565,2505,2394,983,3,3375,4072,6.431,10.642,7.233,-1.900,2.045,5.063,0.871,-2.471,9.744,0.010,0.046,0.042,happy
7.87,0,0,0,0,0,0,0,0,1,675,2454,2403,1084,3,3375,4059,6.093,10.281,7.870,-1.711,1.909,4.902,0.850,-2.480,9.761,-0.002,0.041,0.049,happy
7.88,0,0,0,0,0,0,0,0,0,796,2403,2405,1177,5,3303,4046,6.091,10.415,8.729,-1.566,1.609,4.715,0.838,-2.516,9.821,-0.007,0.039,0.046,happy
7.89,0,0,0,0,0,0,0,0,2,871,2477,2441,1295,4,3350,4023,5.902,9.665,8.286,-1.452,1.317,4.471,0.785,-2.521,9.852,-0.003,0.035,0.040,happy
7.90,0,0,0,0,0,0,0,0,2,1061,2526,2439,1391,4,3359,4045,5.193,8.499,7.554,-1.242,0.989,4.107,0.711,-2.131,9.859,0.065,-0.016,0.011,happy
7.91,0,0,0,0,0,0,0,0,3,1133,2574,2489,1485,6,3342,3995,4.602,7.640,6.366,-1.027,0.645,3.662,0.812,-2.454,9.723,-0.027,0.025,0.038,happy
7.92,0,0,0,0,0,0,0,0,3,1257,2577,2539,1589,5,3287,3887,4.547,6.462,5.744,-0.665,0.307,3.208,0.721,-2.555,10.005,-0.045,0.016,0.039,happy
7.93,0,0,0,0,0,0,0,0,17,1369,2597,2600,1671,10,3287,3846,5.313,6.285,6.598,-0.273,0.050,2.778,0.757,-2.519,9.819,-0.037,0.021,0.037,happy
7.94,0,0,0,0,0,0,0,0,19,1357,2613,2657,1781,8,3192,3833,6.649,8.643,10.487,-0.171,-0.068,2.425,0.821,-2.540,9.802,-0.039,0.025,0.035,happy
7.95,0,0,0,0,0,0,0,0,2,1407,2817,2616,1785,5,3161,3797,7.487,9.584,11.770,-0.495,-0.115,2.379,0.761,-2.461,9.776,-0.046,0.022,0.028,happy
7.96,0,0,0,0,0,0,0,0,9,1375,2689,2675,1890,7,3081,3832,7.336,9.850,11.516,-0.817,-0.113,2.439,0.769,-2.646,9.867,-0.028,-0.003,0.019,happy
7.97,0,0,0,0,0,0,0,0,19,1397,2751,2696,1967,0,2991,3832,6.469,9.902,11.219,-1.074,-0.242,2.500,0.651,-2.440,9.931,-0.039,0.013,0.017,happy
7.98,0,0,0,0,0,0,0,0,51,1407,2590,2729,2035,29,2939,3835,5.432,10.048,10.338,-1.361,-0.416,2.575,0.718,-2.516,9.840,-0.045,0.047,0.020,happy
7.99,0,0,0,0,0,0,0,0,85,1554,2720,2681,2083,16,2971,3797,5.042,9.000,7.369,-1.511,-0.578,2.506,0.632,-2.435,9.900,-0.056,0.009,0.014,happy
8.00,0,0,0,0,0,0,0,0,107,1593,2807,2727,2131,28,2943,3743,5.052,9.172,7.077,-1.425,-0.651,2.467,0.697,-2.497,9.730,-0.051,0.025,0.019,happy
8.01,0,0,0,0,0,0,0,0,149,1811,2733,2825,2277,31,2857,3755,-1.774,10.230,7.805,-1.149,-1.992,3.054,0.826,-2.686,9.934,-0.054,0.009,0.021,happy
8.02,0,0,0,0,0,0,0,0,74,1875,2764,2889,2365,31,2791,3689,2.399,11.698,3.508,-0.937,-0.288,2.779,0.704,-2.406,9.888,-0.081,0.016,0.013,happy
8.03,0,0,0,0,0,0,0,0,378,1927,2779,2903,2455,52,2745,3687,-2.241,13.477,1.508,-0.425,0.538,2.067,0.792,-2.478,9.893,-0.061,0.007,0.021,happy
8.04,0,0,0,0,0,0,0,0,503,1965,2853,3003,2553,51,2727,3613,-1.238,6.919,3.970,0.391,-0.744,1.612,0.864,-2.550,9.632,-0.101,-0.027,0.008,happy
8.05,0,0,0,0,0,0,0,0,793,1977,2892,3235,2602,46,2476,3464,2.337,6.208,-0.338,1.428,3.382,1.102,0.852,-2.500,9.412,-0.105,-0.035,-0.001,happy
8.06,0,0,0,0,0,0,563,1866,873,2035,2899,3189,2510,51,2463,3371,-17.052,-5.231,19.278,1.220,1.805,1.118,0.824,-2.830,9.986,-0.130,-0.060,-0.007,happy
8.07,50,48,56,48,49,57,866,3082,1129,2078,2920,3301,2365,13,2234,2980,-19.585,3.503,14.885,2.742,-0.177,-1.239,0.903,-2.710,9.512,-0.164,-0.085,-0.007,happy
8.08,0,0,0,0,0,0,1079,3216,1275,2220,2945,3349,2044,51,1432,1594,9.280,5.610,8.083,0.989,-0.043,-0.335,1.101,-3.036,9.510,-0.212,-0.098,0.032,happy
8.09,0,0,0,0,0,0,1654,3390,1349,2253,2963,3310,1817,49,1082,1225,0.450,3.900,10.822,1.403,-0.458,0.052,1.748,-3.496,10.034,-0.027,-0.140,0.143,happy
8.10,183,180,182,192,861,176,2513,3498,1577,2332,2884,3279,923,21,83,907,7.415,12.605,14.648,0.507,0.239,-0.067,0.570,-2.787,9.725,-0.389,-0.099,0.153,happy
8.11,192,215,197,133,1297,201,2887,3563,1853,2262,2802,3301,481,7,0,645,4.456,2.957,8.052,0.192,0.897,-0.287,0.725,-3.438,9.723,-0.713,-0.181,-0.076,happy
8.12,0,60,0,0,1457,0,3011,3551,1945,2195,2971,3273,220,17,47,621,-0.393,3.282,10.384,0.159,0.453,-0.180,0.632,-3.364,9.867,-0.897,-0.244,-0.045,happy
8.13,0,203,0,0,1627,0,3152,3603,1962,2145,2945,3171,149,10,27,537,0.850,3.141,9.917,0.123,0.489,-0.243,0.807,-2.648,9.596,-0.995,-0.300,0.072,happy
8.14,0,281,0,0,1935,0,3248,3620,1869,1751,2904,3092,347,5,5,415,2.267,3.637,8.464,0.000,0.429,-0.163,0.936,-3.096,9.852,-0.958,-0.463,0.682,happy
8.15,0,485,0,0,2130,0,3344,3717,1791,1615,2861,2906,348,4,5,372,-0.141,3.321,10.317,0.003,0.249,-0.046,0.218,-2.354,11.044,-1.128,-0.767,1.251,happy
8.16,0,614,0,0,2348,0,3435,3767,1241,1419,2812,1110,199,2,0,306,0.996,3.120,9.553,-0.004,0.161,-0.013,0.065,-0.654,10.762,-2.281,-1.890,2.802,happy
8.17,0,682,0,0,2507,0,3495,3773,397,994,1208,12,87,0,0,179,1.690,2.907,8.552,0.002,0.275,-0.083,1.439,-0.160,11.598,-4.052,-3.235,3.566,happy
8.18,0,891,21,0,2689,0,3542,3850,279,499,2,0,35,0,0,0,0.551,2.931,9.462,0.031,0.294,-0.085,1.760,-2.763,14.506,-4.685,-4.710,3.740,happy
8.19,0,1040,142,0,2838,0,3567,3867,265,141,2,0,7,0,0,0,0.421,3.352,10.156,0.053,0.222,-0.058,-0.148,-6.400,11.236,-4.850,-5.424,3.577,happy
8.20,0,1249,341,0,2939,0,3617,3888,23,0,2,0,0,0,0,0,0.749,3.163,9.579,0.032,0.155,-0.034,0.989,-10.783,10.072,-4.448,-8.172,3.239,happy
8.21,0,1296,471,0,2975,0,3638,3898,0,0,0,0,0,0,0,0,0.632,3.110,9.653,0.049,0.143,-0.042,2.404,-10.606,9.098,-3.091,-7.353,3.928,happy
8.22,0,1344,675,0,3015,0,3655,3893,0,0,0,0,0,0,0,0,0.649,3.165,9.606,0.061,0.128,-0.044,6.632,-8.655,6.754,-1.402,-4.999,4.411,happy
8.23,0,1393,778,0,3065,0,3662,3899,0,0,0,0,16,0,0,0,0.845,3.280,9.538,0.058,0.108,-0.029,4.913,-4.451,9.378,0.055,-1.845,5.201,happy
8.24,0,1430,862,0,3089,28,3670,3903,0,0,2,0,0,0,0,0,0.769,3.012,9.426,0.067,0.134,-0.041,-4.535,-10.051,18.648,1.379,-1.249,4.746,happy
8.25,0,1449,1073,0,3095,1,3681,3885,19,0,0,0,0,26,0,0,0.771,3.069,9.464,0.096,0.165,-0.070,0.359,-0.508,11.301,1.840,-2.042,3.926,happy
8.26,0,1487,1221,0,3106,26,3682,3890,0,0,0,0,0,0,55,0,0.737,2.933,9.254,0.110,0.197,-0.091,-0.393,-1.525,4.963,1.926,-2.031,3.744,happy
8.27,0,1535,1440,0,3101,51,3675,3879,0,0,0,0,0,0,0,0,0.821,3.060,9.196,0.133,0.235,-0.118,1.561,0.481,4.262,1.766,-2.139,3.370,happy
8.28,0,1602,1651,0,3129,188,3686,3881,26,0,0,0,0,0,0,9,0.345,3.129,9.720,0.154,0.233,-0.129,2.533,-0.690,5.945,1.532,-1.944,2.775,happy
8.29,22,1695,1799,0,3146,230,3685,3874,0,0,0,13,0,0,36,0,0.429,3.218,9.910,0.174,0.191,-0.117,3.519,-1.319,8.109,1.706,-1.575,2.006,happy
8.30,64,1710,1952,0,3106,383,3666,3851,0,0,2,0,0,0,0,0,0.565,3.330,9.725,0.142,0.205,-0.110,3.211,-1.362,9.258,1.989,-1.191,1.198,happy
8.31,126,1759,2112,0,3122,511,3687,3861,0,0,0,0,0,0,0,0,0.424,3.067,9.448,0.167,0.204,-0.133,1.944,-1.109,9.864,2.243,-0.932,0.470,happy
8.32,231,1787,2215,16,3101,630,3671,3853,0,0,40,0,0,0,0,0,0.551,2.978,9.364,0.227,0.222,-0.167,0.385,-1.192,10.580,2.457,-0.848,-0.001,happy
8.33,402,1858,2359,114,3035,657,3655,3820,0,0,0,0,0,0,0,0,0.661,3.199,9.345,0.328,0.278,-0.256,-2.799,-2.409,11.993,2.987,-1.039,-0.459,happy
8.34,624,1921,2587,325,3021,743,3627,3836,0,0,0,0,0,0,0,0,0.057,3.888,9.783,0.307,0.250,-0.232,-3.867,-2.507,11.116,3.158,-1.138,-0.461,happy
8.35,818,1990,2781,895,3041,944,3611,3822,0,0,0,0,0,0,0,0,0.323,3.577,9.443,0.244,0.200,-0.166,-5.133,-3.211,11.078,3.288,-1.033,0.061,happy
8.36,945,2069,2930,1229,3087,1207,3574,3737,0,0,0,0,0,0,0,0,0.417,3.757,9.493,0.182,0.144,-0.121,-4.013,-3.778,12.392,3.379,-0.893,0.773,happy
8.37,1104,2118,3041,1535,3105,1177,3545,3749,0,0,0,0,0,0,0,0,0.148,3.496,9.419,0.164,0.128,-0.092,-3.381,-4.161,12.752,3.455,-0.847,1.009,happy
8.38,1246,2159,3118,1953,3099,1269,3479,3702,0,0,10,0,0,0,0,20,0.120,3.567,9.354,0.173,0.125,-0.085,-2.021,-4.784,12.210,3.402,-1.017,1.265,happy
8.39,1393,2230,3184,2215,3115,1279,3406,3653,0,0,0,0,0,17,0,0,0.180,3.503,9.299,0.144,0.123,-0.071,-0.575,-5.595,12.833,3.223,-0.794,1.319,happy
8.40,1559,2272,3250,2416,3123,1343,3349,3602,0,0,0,0,18,0,0,0,0.045,3.584,9.232,0.120,0.106,-0.057,-0.570,-6.031,13.652,3.124,-0.800,1.307,happy
8.41,1713,2336,3305,2557,3121,1385,3280,3525,1,0,0,0,0,0,0,0,0.050,3.651,9.380,0.104,0.100,-0.050,-1.025,-7.535,14.523,2.937,-1.680,1.063,happy
8.42,1870,2433,3378,2702,3161,1478,3168,3411,0,0,0,0,0,0,0,0,0.067,3.637,9.407,0.098,0.119,-0.052,1.355,-9.182,12.321,2.506,-2.115,0.580,happy
8.43,2027,2509,3457,2875,3182,1335,3059,3266,0,0,0,0,0,0,25,0,-0.012,3.498,9.364,0.109,0.124,-0.043,2.942,-10.867,12.225,2.368,-2.017,0.304,happy
8.44,2188,2595,3534,3001,3184,946,2905,2992,13,0,0,0,0,0,0,0,-0.031,3.338,9.249,0.147,0.120,-0.025,5.399,-12.579,7.855,2.129,-1.268,-0.541,happy
8.45,2343,2688,3583,3099,3143,442,2508,1916,0,0,0,0,0,0,0,0,0.072,3.531,9.479,0.167,0.160,-0.029,3.120,-13.190,2.253,1.291,-0.973,-1.686,happy
8.46,2443,2778,3658,3219,3039,0,2061,523,0,0,0,0,0,0,0,0,0.017,3.618,9.392,0.199,0.123,-0.010,0.350,-13.084,-1.410,0.640,-1.043,-2.036,happy
8.47,2595,2821,3717,3312,2805,0,1418,0,0,0,0,0,0,0,0,0,-0.077,3.546,9.445,0.311,0.084,0.035,-2.440,-7.053,-3.129,-2.684,-0.940,-2.123,happy
8.48,2773,2898,3760,3386,2386,0,614,0,0,0,0,0,0,16,92,0,-0.031,3.551,9.256,0.341,0.081,0.062,9.005,-3.383,16.395,-1.604,2.509,-0.862,happy
8.49,2857,2930,3793,3432,2096,0,139,0,0,0,0,0,61,0,229,0,0.328,1.982,10.544,0.525,0.120,0.249,5.136,-1.492,14.408,-1.779,1.415,-1.833,happy
8.50,2960,2923,3822,3518,1622,0,0,0,0,0,0,0,0,0,280,0,-0.333,4.211,8.748,0.661,0.170,0.242,-4.343,5.088,4.724,-2.323,0.951,-1.662,happy
8.51,3011,2863,3839,3549,1507,0,0,0,0,0,0,0,0,6,297,1253,0.658,4.410,9.948,0.845,0.088,0.349,-15.907,3.498,14.353,-3.023,0.796,0.017,happy
8.52,3057,2736,3901,3563,1328,0,0,0,0,0,0,0,0,61,337,2552,0.436,3.218,9.675,0.959,0.041,0.434,-13.072,-2.806,14.631,-3.103,0.564,0.981,happy
