timestamp,L1,L2,L3,L4,L5,L6,L7,L8,R1,R2,R3,R4,R5,R6,R7,R8,acc_x_left,acc_y_left,acc_z_left,gyro_x_left,gyro_y_left,gyro_z_left,acc_x_right,acc_y_right,acc_z_right,gyro_x_right,gyro_y_right,gyro_z_right,mood
0.00,754,71,1645,1013,43,41,44,47,13,2167,2710,2583,2443,0,3325,3661,-0.079,3.898,9.182,0.168,0.031,0.056,0.797,-2.488,9.790,0.023,0.017,0.015,happy
0.01,825,91,1658,1020,39,48,45,41,1,2141,2684,2568,2423,3,3337,3669,-0.206,4.005,9.117,0.156,0.011,0.044,0.759,-2.531,9.821,0.021,0.021,0.010,happy
0.02,890,77,1699,905,44,44,43,41,2,2077,2615,2495,2440,3,3357,3687,-0.172,4.068,9.105,0.114,-0.015,0.031,0.804,-2.480,9.756,0.017,0.015,0.010,happy
0.03,913,114,1725,838,46,45,44,48,1,2171,2618,2467,2460,1,3383,3693,-0.036,4.051,9.187,0.092,-0.008,0.019,0.876,-2.514,9.819,-0.001,0.015,0.018,happy
0.04,930,128,1731,745,40,40,44,43,0,2137,2597,2488,2475,1,3385,3687,0.122,4.056,9.177,0.063,0.003,-0.003,0.788,-2.500,9.706,-0.002,0.015,0.019,happy
0.05,932,137,1747,745,41,36,46,41,2,2140,2505,2522,2490,3,3397,3700,0.074,4.005,9.117,0.028,-0.004,-0.022,0.781,-2.516,9.768,0.004,0.020,0.020,happy
0.06,906,183,1754,759,40,41,44,43,2,2195,2666,2542,2510,0,3404,3692,-0.022,4.039,9.134,-0.003,-0.017,-0.032,0.804,-2.456,9.783,0.001,0.021,0.017,happy
0.07,813,250,1759,700,31,27,18,29,0,2189,2664,2568,2509,9,3411,3687,-0.043,3.960,9.270,-0.042,-0.014,-0.037,0.788,-2.552,9.852,0.001,0.018,0.017,happy
0.08,862,336,1808,754,111,113,112,112,1,2201,2648,2567,2507,2,3412,3692,0.069,3.958,9.249,-0.061,-0.033,-0.043,0.781,-2.555,9.807,0.005,0.017,0.018,happy
0.09,759,339,1776,707,44,39,43,41,3,2213,2648,2589,2506,1,3461,3710,0.134,3.955,9.230,-0.074,-0.042,-0.051,0.797,-2.502,9.907,0.007,0.021,0.016,happy
0.10,667,413,1779,668,193,41,46,42,1,2201,2646,2599,2521,2,3449,3704,0.081,3.915,9.292,-0.087,-0.034,-0.060,0.828,-2.488,9.747,0.003,0.019,0.014,happy
0.11,689,473,1771,690,176,40,45,44,2,2200,2641,2599,2510,2,3407,3723,0.110,3.869,9.237,-0.106,-0.035,-0.052,0.759,-2.519,9.826,0.002,0.023,0.014,happy
0.12,690,498,1779,703,288,49,49,51,3,2173,2715,2604,2495,6,3429,3741,0.194,3.644,9.249,-0.088,-0.019,-0.044,0.785,-2.514,9.768,0.004,0.020,0.012,happy
0.13,714,474,1760,656,284,25,25,24,0,2170,2654,2617,2485,3,3410,3723,0.120,3.749,9.335,-0.039,-0.001,-0.033,0.809,-2.552,9.756,0.006,0.025,0.016,happy
0.14,722,483,1746,656,342,19,26,22,6,2121,2602,2615,2475,1,3435,3734,0.086,3.666,9.352,-0.014,0.001,-0.018,0.821,-2.514,9.838,0.007,0.026,0.013,happy
0.15,793,491,1745,642,368,16,46,23,2,1981,2556,2611,2411,2,3416,3748,0.172,3.704,9.258,0.006,0.013,-0.012,0.848,-2.523,9.756,-0.003,0.043,0.026,happy
0.16,798,501,1746,664,338,21,23,21,1,1880,2556,2590,2360,2,3405,3757,0.146,3.778,9.337,0.030,0.010,-0.017,0.809,-2.552,9.809,-0.003,0.046,0.018,happy
0.17,811,511,1753,656,382,19,23,21,1,1668,2413,2551,2147,3,3435,3768,0.098,3.747,9.239,0.019,0.018,-0.006,0.711,-2.574,9.852,0.006,0.036,0.007,happy
0.18,827,548,1758,653,400,23,21,21,1,1557,2398,2439,1885,2,3353,3853,0.177,3.677,9.227,0.023,0.025,-0.009,0.711,-2.559,9.809,0.024,0.030,-0.001,happy
0.19,834,547,1751,656,432,23,24,23,2,1507,2341,2266,1719,6,3347,3800,0.177,3.668,9.292,0.055,0.026,-0.008,0.776,-2.574,9.802,0.041,0.027,-0.006,happy
0.20,874,587,1751,645,432,22,24,22,29,1237,2265,1816,1639,3,3336,3829,0.108,3.680,9.244,0.076,0.030,-0.006,0.773,-2.588,9.869,0.048,0.030,-0.009,happy
0.21,875,606,1766,619,400,22,27,21,0,1061,2201,1643,1500,0,3324,3855,0.117,3.737,9.323,0.096,0.050,0.008,0.778,-2.507,9.831,0.054,0.027,-0.010,happy
0.22,784,569,1757,592,262,32,35,38,2,1011,2078,1595,1461,1,3320,3864,0.259,3.488,9.294,0.159,0.056,0.039,0.761,-2.492,9.802,0.065,0.025,-0.004,happy
0.23,757,477,1638,448,224,83,81,80,1,967,1983,1645,1447,2,3301,3885,0.335,3.261,9.620,0.367,0.056,0.114,0.776,-2.456,9.780,0.052,0.023,0.001,happy
0.24,454,150,677,179,46,38,38,45,37,893,1957,1377,1421,2,3311,3915,0.247,3.424,10.161,0.536,0.092,0.045,0.761,-2.449,9.778,0.042,0.028,0.001,happy
0.25,322,39,290,48,41,41,42,43,0,853,1937,1422,1421,1,3314,3927,-0.259,3.850,9.608,0.710,0.058,-0.078,0.713,-2.401,9.744,0.044,0.030,0.007,happy
0.26,117,37,41,39,38,41,41,42,1,726,1911,1382,1469,3,3327,3941,0.048,3.361,9.907,0.786,-0.267,-0.358,0.833,-2.332,9.720,0.023,0.039,0.022,happy
0.27,39,38,40,16,34,39,39,38,1,409,1686,1319,1397,0,3353,3955,2.100,2.840,11.293,0.625,0.013,-0.570,0.857,-2.490,9.632,-0.006,0.064,0.040,happy
0.28,38,32,35,36,37,37,44,39,0,354,1689,1373,1391,2,3358,3963,1.856,2.935,12.835,0.066,0.270,-0.327,0.680,-2.509,9.814,0.005,0.038,0.024,happy
0.29,47,38,37,35,36,36,38,37,7,367,2034,1439,1495,2,3373,3945,1.053,0.448,9.170,0.039,0.142,-0.161,0.759,-2.416,9.828,-0.005,0.030,0.026,happy
0.30,39,38,45,31,38,40,41,37,1,541,2073,1639,1596,3,3399,3979,0.948,0.773,10.130,0.035,-0.088,-0.053,0.709,-2.461,9.807,-0.015,0.026,0.026,happy
0.31,40,25,36,38,38,38,39,36,0,591,2111,1815,1625,2,3420,3965,0.496,0.828,10.178,-0.190,-0.086,-0.039,0.735,-2.430,9.776,-0.018,0.027,0.024,happy
0.32,39,32,37,38,38,37,38,46,1,658,2147,1907,1675,1,3414,4024,0.146,1.106,11.277,-0.389,-0.242,-0.097,0.761,-2.483,9.883,-0.011,0.030,0.025,happy
0.33,37,38,39,38,38,40,36,34,3,743,2162,1918,1773,3,3421,3977,-0.141,1.322,10.508,-0.712,-0.278,-0.179,0.711,-2.464,9.843,-0.003,0.022,0.017,happy
0.34,35,32,37,35,38,33,38,38,1,765,2142,2013,1771,2,3467,3979,-0.424,1.585,10.127,-0.808,-0.358,-0.349,0.776,-2.449,9.732,-0.007,0.026,0.017,happy
0.35,39,31,37,35,37,36,35,37,0,861,2188,2079,1881,2,3433,3977,0.110,2.303,9.744,-0.895,-0.422,-0.488,0.771,-2.440,9.744,-0.021,0.022,0.029,happy
0.36,37,33,36,36,41,34,36,36,1,851,2224,2141,1929,2,3443,3977,0.845,2.282,9.589,-0.884,-0.336,-0.522,0.754,-2.459,9.747,-0.005,0.019,0.023,happy
0.37,35,35,36,34,34,37,35,35,1,891,2234,2175,1933,3,3439,3977,0.826,3.962,11.281,-0.925,-0.464,-0.428,0.754,-2.504,9.847,-0.002,0.027,0.020,happy
0.38,33,33,32,34,34,32,38,35,22,951,2267,2235,1957,2,3449,3975,1.640,3.285,9.392,-1.057,-0.458,-0.300,0.740,-2.430,9.790,-0.020,0.026,0.021,happy
0.39,45,31,27,37,29,27,28,32,5,1045,2313,2339,2008,2,3466,3965,1.087,3.268,9.273,-0.946,-0.453,-0.154,0.742,-2.547,9.938,-0.038,0.036,0.042,happy
0.40,34,33,35,33,34,32,35,37,1,1054,2433,2438,2043,2,3467,3960,1.176,3.199,8.648,-0.853,-0.408,-0.057,0.702,-2.497,9.814,-0.037,0.039,0.037,happy
0.41,34,36,35,35,34,35,36,35,0,1163,2436,2529,2099,3,3462,3947,0.986,2.495,7.300,-0.593,-0.096,-0.013,0.697,-2.327,9.649,-0.052,0.035,0.043,happy
0.42,29,39,33,39,34,32,37,32,11,1349,2551,2637,2159,63,3491,3894,0.196,4.717,12.122,-0.507,-0.399,0.147,0.723,-2.689,9.850,-0.122,0.046,0.071,happy
0.43,34,32,37,33,34,33,23,36,21,1451,2556,2759,2232,97,3431,3869,1.348,3.479,9.862,-0.886,-0.289,0.371,0.742,-2.713,9.740,-0.093,0.044,0.057,happy
0.44,47,41,55,41,29,39,51,42,1,1481,2669,2894,2248,3,3352,3783,0.127,2.552,8.045,-0.700,0.009,0.512,0.728,-2.629,9.797,-0.051,0.039,0.036,happy
0.45,45,36,39,36,41,36,39,39,1,1623,2766,2984,2247,2,3359,3729,0.280,2.653,7.254,-0.433,0.266,0.630,0.704,-2.660,9.759,-0.048,0.037,0.027,happy
0.46,89,89,93,94,92,89,93,93,18,1781,2779,2996,2301,7,3379,3659,-0.285,2.753,7.475,-0.175,0.767,0.641,0.716,-2.614,9.785,-0.030,0.043,0.031,happy
0.47,112,112,112,111,110,108,110,111,75,1723,2802,3068,2329,20,3306,3519,-1.329,4.274,9.179,0.066,0.778,0.454,0.709,-2.670,9.773,-0.039,0.040,0.034,happy
0.48,113,112,114,113,112,115,112,115,33,1779,2815,3101,2344,10,3258,3464,-1.243,4.776,9.117,-0.080,0.512,0.203,0.654,-2.643,9.752,-0.025,0.042,0.032,happy
0.49,128,127,128,129,128,126,129,128,99,1803,2779,3159,2359,25,3197,3439,-0.512,4.774,7.539,-0.061,0.620,-0.062,0.622,-2.581,9.764,-0.011,0.046,0.033,happy
0.50,129,128,133,129,129,129,129,129,105,1844,2802,3179,2355,29,3113,3367,-0.709,5.069,6.464,0.216,0.550,-0.196,0.639,-2.595,9.907,-0.019,0.044,0.034,happy
0.51,132,131,130,137,129,129,132,133,157,1877,2886,3225,2421,43,3068,3236,-1.472,6.670,9.158,0.277,0.174,-0.321,0.668,-2.672,9.713,-0.011,0.042,0.028,happy
0.52,128,125,128,128,127,126,128,128,220,1855,2835,3257,2445,44,3037,3163,-1.125,5.638,6.893,0.169,-0.032,-0.510,0.685,-2.737,9.783,0.001,0.042,0.030,happy
0.53,128,122,128,127,126,123,128,126,366,1769,2830,3289,2455,51,2909,2871,2.576,0.036,11.157,0.434,1.508,-0.677,0.807,-2.691,9.543,-0.013,0.024,0.032,happy
0.54,133,128,130,133,128,125,133,837,557,1893,2853,3347,2423,47,2601,2387,0.180,-0.278,9.117,1.233,-0.072,0.150,0.639,-2.624,9.790,-0.039,0.025,0.023,happy
0.55,121,136,133,132,133,128,134,1805,600,1865,2858,3388,2401,46,2425,2315,-2.126,2.976,10.429,1.441,0.250,-0.104,0.668,-2.655,9.668,-0.041,0.011,0.022,happy
0.56,135,142,143,137,138,135,141,2507,659,1999,2863,3470,2328,48,2201,1893,-1.422,3.546,10.879,1.304,-0.415,0.064,0.711,-2.538,9.682,-0.091,-0.002,0.012,happy
0.57,144,144,144,144,144,144,634,2906,941,1998,2966,3509,2058,47,1624,920,0.453,4.190,10.269,1.187,-0.651,0.107,0.632,-2.535,9.766,-0.172,-0.014,-0.007,happy
0.58,145,140,128,143,144,155,1326,3131,1077,1983,3007,3530,1945,47,1565,503,0.821,3.994,9.419,1.041,-0.640,0.133,0.816,-2.701,9.673,-0.181,-0.019,-0.007,happy
0.59,150,146,151,153,356,147,1929,3234,1380,1973,3022,3576,1555,35,229,165,3.632,2.274,6.606,0.151,0.164,-0.108,0.903,-1.223,9.620,-0.183,-0.029,-0.013,happy
0.60,146,122,125,118,590,129,2193,3330,1523,2095,3025,3644,441,27,142,121,0.081,2.873,8.926,0.220,-0.030,-0.067,1.022,-1.607,10.384,-0.754,0.011,-0.087,happy
0.61,117,33,37,38,843,35,2334,3398,1617,2117,3045,3635,236,3,35,123,-1.235,3.062,10.262,0.130,-0.003,-0.072,1.434,-4.700,9.304,-0.937,0.038,-0.183,happy
0.62,272,128,34,33,1101,38,2481,3455,2023,2056,3043,3645,16,0,0,101,0.120,3.591,9.663,0.086,-0.048,-0.022,1.235,-3.658,10.132,-1.073,-0.229,-0.359,happy
0.63,358,149,173,32,1120,34,2613,3504,2169,1875,2986,3599,0,0,0,11,0.335,3.419,9.488,0.103,-0.015,-0.038,1.240,-3.139,9.515,-1.224,-0.144,-0.430,happy
0.64,483,144,329,34,1295,35,2825,3530,2293,1830,2925,3588,10,0,0,17,0.290,3.436,9.498,0.123,0.032,-0.042,1.068,-3.768,9.555,-1.439,-0.185,-0.424,happy
0.65,496,227,627,32,1258,40,2933,3565,2359,1657,2943,3512,0,0,9,0,0.249,3.436,9.364,0.095,0.092,-0.043,2.277,-4.424,9.996,-1.850,0.135,-0.417,happy
0.66,593,416,1111,199,1458,33,3025,3571,2275,972,2879,3411,0,0,0,0,0.256,3.519,9.292,0.070,0.119,-0.044,1.358,-4.195,9.797,-2.219,0.595,-0.443,happy
0.67,546,586,1794,236,1599,32,3191,3677,2152,779,2556,3340,0,0,0,0,0.124,3.522,9.438,0.008,0.070,-0.008,1.721,-3.673,9.809,-2.581,0.992,-0.358,happy
0.68,656,792,2285,464,1880,39,3350,3725,1751,200,1850,2719,0,0,0,0,0.194,3.587,9.503,0.071,0.020,-0.015,1.532,-4.164,10.554,-4.025,1.201,0.532,happy
0.69,685,1098,2610,747,2027,73,3463,3761,1080,0,0,1079,0,0,0,0,0.096,3.424,9.380,0.039,0.009,-0.011,1.288,-6.393,13.362,-4.232,0.675,2.168,happy
0.70,688,1424,2827,1054,2327,115,3552,3785,562,0,2,227,0,0,0,0,0.165,3.290,9.373,0.100,-0.019,-0.007,-0.426,-10.908,12.455,-4.718,0.605,2.225,happy
0.71,744,1645,2987,1278,2483,145,3616,3792,0,0,0,0,0,0,0,0,0.156,3.469,9.505,0.104,-0.008,-0.011,1.642,-8.181,8.689,-4.118,0.483,2.376,happy
0.72,778,1818,3107,1498,2697,393,3691,3776,0,0,0,0,0,0,0,0,0.211,3.486,9.395,0.113,-0.001,-0.016,4.949,-0.742,15.301,-0.430,0.995,2.548,happy
0.73,895,1983,3210,1733,2832,350,3666,3753,0,0,0,25,0,0,0,0,0.239,3.496,9.416,0.116,0.003,-0.013,7.379,-4.695,14.653,0.142,0.268,0.775,happy
0.74,1056,2139,3290,1946,2955,240,3662,3707,0,0,0,0,0,0,0,0,0.189,3.433,9.335,0.115,-0.007,-0.012,6.867,-1.401,8.950,1.414,0.731,-0.033,happy
0.75,1120,2244,3373,2135,3054,99,3663,3664,0,0,0,0,0,0,0,0,0.168,3.488,9.421,0.117,-0.014,-0.007,4.879,-0.733,6.266,1.673,0.475,-0.867,happy
0.76,1264,2327,3428,2270,3140,44,3642,3603,0,0,0,0,10,0,0,5,0.251,3.505,9.352,0.147,-0.027,-0.009,4.532,-1.161,6.747,1.783,0.372,-1.133,happy
0.77,1463,2431,3488,2408,3237,44,3608,3538,0,0,0,0,0,0,0,0,0.345,3.637,9.378,0.133,-0.011,-0.009,3.354,-2.514,9.364,2.290,0.232,-1.401,happy
0.78,1579,2512,3522,2491,3309,46,3578,3483,0,0,0,0,0,0,0,0,0.254,3.639,9.476,0.120,-0.014,-0.010,2.363,-3.960,9.785,2.968,-0.167,-1.428,happy
0.79,1686,2587,3571,2621,3361,48,3527,3413,0,0,0,0,0,0,0,0,0.354,3.591,9.380,0.133,-0.011,-0.012,2.387,-3.950,8.564,3.089,-0.310,-1.406,happy
0.80,1781,2640,3599,2736,3421,42,3442,3334,0,0,0,0,0,0,0,0,0.187,3.618,9.349,0.120,0.023,-0.021,2.088,-5.109,9.888,3.151,-0.530,-1.394,happy
0.81,1936,2721,3659,2851,3472,48,3349,3218,36,0,0,0,0,0,0,0,0.213,3.608,9.436,0.104,0.024,-0.024,2.808,-5.693,10.886,3.187,-0.762,-1.494,happy
0.82,2068,2772,3690,2919,3501,47,3210,3105,0,0,0,0,0,0,0,0,0.330,3.567,9.495,0.118,0.035,-0.026,2.550,-5.684,10.647,3.182,-0.759,-1.545,happy
0.83,2128,2852,3713,2992,3519,48,3043,2943,0,0,0,0,0,0,0,0,0.213,3.749,9.304,0.107,0.060,-0.034,1.551,-5.660,11.349,3.105,-0.807,-1.445,happy
0.84,2247,2897,3746,3051,3535,44,2924,2694,0,0,0,0,0,0,0,0,0.182,3.596,9.304,0.115,0.059,-0.031,-0.077,-5.780,12.256,2.905,-1.172,-1.150,happy
0.85,2353,2946,3759,3088,3535,43,2802,2107,1,4,0,0,0,0,0,0,0.132,3.663,9.364,0.128,0.068,-0.032,-0.275,-6.024,11.909,2.839,-1.205,-0.909,happy
0.86,2403,2975,3792,3158,3551,43,2686,1251,0,0,0,0,0,0,2,0,0.237,3.816,9.177,0.119,0.061,-0.034,-0.352,-6.680,13.561,2.667,-1.042,-0.400,happy
0.87,2421,3023,3823,3187,3525,24,2479,774,0,11,28,0,0,0,0,0,0.206,3.745,9.246,0.140,0.088,-0.031,-0.297,-7.554,13.312,2.462,-1.508,-0.330,happy
0.88,2607,3069,3840,3265,3504,38,2304,300,0,0,0,0,0,0,0,0,0.254,3.723,9.246,0.119,0.093,-0.029,0.093,-7.867,11.710,2.271,-1.729,-0.454,happy
0.89,2657,3120,3861,3309,3473,36,1986,32,0,0,23,0,0,0,0,0,0.141,3.797,9.222,0.153,0.090,-0.012,1.255,-10.563,12.546,1.941,-1.536,-1.111,happy
0.90,2758,3167,3894,3374,3379,35,1486,36,0,0,0,0,0,0,0,0,0.136,3.749,9.232,0.161,0.115,-0.011,1.250,-12.318,7.788,1.612,-0.470,-2.061,happy
0.91,2879,3194,3910,3438,3007,34,1139,37,0,0,0,0,0,0,0,0,0.237,3.790,9.285,0.180,0.102,-0.016,-0.481,-12.479,5.013,1.261,0.035,-2.237,happy
0.92,3008,3263,3933,3490,2690,31,635,41,0,0,0,0,0,0,0,6,0.163,3.790,9.400,0.202,0.112,-0.015,-7.585,-12.833,1.520,0.318,-0.222,-1.525,happy
0.93,3154,3310,3947,3529,2335,37,246,38,0,0,0,0,1,0,45,0,0.299,3.795,9.323,0.305,0.095,0.024,-3.910,-12.957,-4.389,-2.199,0.490,-0.723,happy
0.94,3305,3331,3952,3564,1798,31,287,43,0,0,0,0,0,0,138,0,0.378,3.883,9.270,0.536,0.181,0.181,2.749,-6.766,14.815,-0.436,2.711,0.588,happy
0.95,3377,3319,3975,3583,1530,37,48,39,0,0,0,0,0,0,0,0,0.249,3.742,9.172,0.654,0.196,0.229,-0.517,4.029,18.591,-0.475,2.247,0.539,happy
0.96,3489,3289,3971,3600,1400,34,34,35,17,0,0,0,0,0,0,115,0.369,3.761,9.328,0.790,0.197,0.308,0.989,6.953,5.662,-2.284,0.600,-0.084,happy
0.97,3570,3242,3968,3613,1102,31,33,36,0,0,0,0,0,0,0,627,0.464,4.025,9.689,0.966,0.197,0.361,0.874,-0.110,3.342,-2.543,1.186,0.757,happy
0.98,3639,3138,3965,3622,774,35,35,31,0,0,23,0,0,0,16,1498,0.096,4.096,8.911,1.242,0.200,0.439,-2.057,-3.488,13.975,-1.934,0.944,0.919,happy
0.99,3737,2446,3953,3635,363,25,29,26,0,0,0,0,0,0,663,2887,-0.287,3.926,8.301,1.506,0.415,0.552,-1.037,-0.814,10.487,-2.819,-1.172,0.346,happy
1.00,3791,2331,3907,3635,27,22,34,23,0,0,0,0,0,0,1126,3321,0.395,4.003,8.820,1.750,0.532,0.590,2.375,-5.717,13.628,-2.382,-1.340,0.271,happy
1.01,3817,2148,3858,3583,23,16,23,23,0,0,0,0,0,0,1716,3439,-0.113,4.338,9.218,2.090,0.752,0.595,1.171,-12.728,19.613,-1.499,1.015,0.284,happy
1.02,3807,1818,3757,3440,19,19,19,17,0,0,0,0,0,9,2461,3545,0.345,5.365,8.669,2.467,0.933,0.521,0.649,-3.213,12.538,-0.076,1.026,0.300,happy
1.03,3757,1499,3539,2519,16,16,16,17,0,0,0,0,119,0,2678,3627,-0.311,5.483,8.212,2.840,0.757,0.276,1.437,-2.452,10.513,-0.039,0.588,0.186,happy
1.04,3613,1121,2963,1891,4,5,10,5,0,0,0,0,100,0,2797,3659,-1.089,5.483,9.131,3.799,-0.277,-0.378,1.070,-1.805,10.096,-0.058,0.540,0.206,happy
1.05,3280,688,2096,903,241,228,235,256,0,1,0,0,349,0,2967,3704,-1.207,8.492,10.276,4.669,-1.464,-0.833,1.532,-2.272,9.838,0.017,0.421,0.216,happy
1.06,2298,405,667,307,355,434,384,291,0,564,1650,0,598,0,3209,3700,-1.434,7.958,10.956,5.771,-2.080,-1.513,1.271,-2.495,9.740,0.016,0.245,0.115,happy
1.07,1296,65,93,64,71,109,81,64,0,815,1686,81,1048,0,3275,3725,-0.716,11.554,10.197,5.782,-1.737,-1.067,1.077,-2.421,9.895,-0.002,0.173,0.098,happy
1.08,86,45,48,48,48,48,49,48,0,1244,2001,857,1747,5,3415,3738,-0.553,8.128,19.360,2.879,-1.281,-1.625,1.156,-2.073,9.649,0.020,0.228,0.113,happy
1.09,47,46,49,51,48,48,48,52,2,1462,2515,1519,2130,0,3614,3739,-1.786,5.895,19.613,-0.131,-1.359,-1.970,1.077,-2.133,9.759,-0.065,0.269,0.146,happy
1.10,85,89,81,102,90,83,87,93,0,1599,2495,1595,2189,2,3564,3731,1.369,2.112,11.528,-1.177,-1.314,-2.382,0.809,-1.542,9.620,-0.038,0.216,0.145,happy
1.11,144,147,151,147,146,147,148,151,1,1607,2641,2167,2293,0,3627,3675,3.335,2.488,8.892,-1.987,-1.010,-2.190,0.735,-2.219,10.099,-0.084,0.133,0.139,happy
1.12,162,159,160,159,166,162,162,165,1,1751,2718,2438,2462,3,3627,3545,3.479,1.824,6.160,-2.392,-0.833,-1.707,0.910,-2.459,9.869,-0.094,0.116,0.107,happy
1.13,166,160,162,164,162,165,163,160,1,1863,2741,2509,2489,2,3615,3482,3.259,2.792,7.302,-2.552,-0.870,-1.159,0.781,-2.236,9.823,-0.102,0.086,0.094,happy
1.14,142,142,144,144,142,142,141,144,1,2065,2771,2715,2633,3,3575,3416,2.756,4.805,8.880,-3.040,-1.047,-0.582,0.888,-2.504,9.804,-0.137,0.051,0.094,happy
1.15,143,142,145,144,144,144,145,144,1,2230,2820,2729,2716,3,3509,3411,2.547,5.286,7.140,-3.209,-1.126,-0.137,0.749,-2.377,9.821,-0.114,0.046,0.073,happy
1.16,144,142,143,139,144,146,145,141,0,2327,2807,2828,2793,0,3467,3251,2.344,6.563,8.557,-3.168,-1.231,0.406,0.601,-2.485,9.840,-0.098,0.017,0.057,happy
1.17,143,144,144,143,141,141,144,139,0,2395,2853,3015,2875,3,3468,3047,1.609,7.657,9.658,-3.245,-1.210,0.999,0.678,-2.279,9.936,-0.099,0.009,0.040,happy
1.18,310,311,313,319,306,313,313,307,1,2491,2904,3135,2932,0,3119,2917,1.398,8.049,9.072,-3.235,-0.999,1.389,0.757,-2.516,9.543,-0.053,-0.007,0.033,happy
1.19,272,271,270,270,266,270,270,272,5,2494,2915,3187,2988,3,2957,2843,0.843,8.420,10.281,-3.096,-0.872,1.628,0.819,-2.476,9.752,-0.047,0.005,0.032,happy
1.20,242,243,248,247,245,247,249,245,37,2504,2940,3262,3049,11,2807,2709,0.855,8.356,9.883,-2.987,-0.780,1.707,0.826,-2.555,9.787,-0.052,0.007,0.033,happy
1.21,298,297,293,298,298,286,296,303,87,2521,2925,3357,3100,23,2734,2535,1.041,8.890,10.647,-2.764,-0.790,1.700,0.723,-2.559,9.845,-0.069,0.031,0.029,happy
1.22,511,511,511,527,525,511,526,511,91,2573,2976,3353,3113,40,2713,2385,1.367,8.152,9.859,-2.536,-0.483,1.645,0.850,-2.605,9.850,-0.070,0.034,0.028,happy
1.23,283,282,287,283,279,285,289,282,165,2597,3002,3451,3143,39,2631,2137,0.165,7.439,9.902,-2.062,-0.094,1.419,0.678,-2.547,9.807,-0.067,-0.014,0.027,happy
1.24,224,215,214,157,196,211,196,192,270,2661,3009,3480,3129,46,2439,1625,-3.110,8.648,13.544,-1.800,-0.709,1.268,0.804,-2.583,9.697,-0.105,0.009,0.013,happy
1.25,193,189,201,192,193,201,198,193,231,2667,3012,3513,3101,44,2377,1286,-3.330,10.350,14.720,-1.909,-1.636,1.026,0.850,-2.641,9.821,-0.106,0.023,0.015,happy
1.26,137,137,135,144,138,139,143,144,779,2700,3043,3564,2871,48,2041,427,-1.516,13.561,12.752,-2.220,-0.808,0.673,0.876,-2.722,9.634,-0.137,0.022,0.001,happy
1.27,107,103,106,112,107,105,107,105,965,2695,3053,3631,2759,38,1819,157,-2.078,10.314,7.381,-2.406,-0.866,0.623,0.871,-2.722,9.651,-0.115,0.012,0.018,happy
1.28,94,93,97,98,95,97,98,96,890,2684,2920,3683,2709,48,1439,265,-2.974,11.351,1.044,-1.388,-0.970,0.316,0.857,-2.626,9.689,-0.106,0.008,0.019,happy
1.29,96,89,98,95,95,95,98,99,1293,2702,3078,3710,2567,43,775,265,-2.840,14.056,0.939,-0.567,-1.240,0.334,1.068,-2.579,9.543,0.030,-0.050,0.065,happy
1.30,115,113,116,118,119,114,118,118,1487,2804,3104,3755,2275,61,255,116,3.177,13.609,-7.513,0.613,0.172,0.946,0.759,-2.461,9.778,-0.118,0.000,0.038,happy
1.31,118,117,118,128,117,119,122,117,1613,2921,3165,3772,2151,5,333,45,0.567,3.658,6.261,1.386,3.289,0.571,0.426,-2.227,10.130,-0.463,0.072,-0.104,happy
1.32,117,114,118,96,112,115,394,2037,1839,2927,3145,3813,1308,8,121,29,-12.328,-11.301,15.282,1.738,1.435,0.984,1.111,-2.935,9.538,-0.462,0.034,-0.064,happy
1.33,106,105,106,101,103,105,298,2907,2156,2952,3255,3803,664,3,102,0,-14.583,4.472,12.524,3.244,0.524,-0.742,1.132,-2.739,9.531,-0.559,-0.022,-0.142,happy
1.34,389,360,370,339,379,363,860,3430,2221,2901,3145,3849,356,2,159,0,4.738,4.290,11.147,2.584,-0.566,-0.167,1.415,-2.868,9.840,-0.600,-0.163,-0.111,happy
1.35,460,498,436,461,475,415,1805,3570,2442,2875,3145,3766,150,0,17,0,0.852,5.816,12.146,2.226,-0.215,-0.135,1.271,-3.871,9.917,-0.970,-0.427,-0.240,happy
1.36,119,112,134,109,400,124,2291,3524,2535,2741,3148,3820,18,0,5,0,-9.050,15.723,19.613,2.070,0.851,-0.903,1.484,-2.799,9.749,-1.220,-0.327,-0.362,happy
1.37,356,307,315,262,1043,303,2727,3572,2468,2660,3224,3786,45,0,1,0,-0.642,1.609,10.585,0.527,1.334,-0.634,0.857,-2.734,9.883,-1.603,-0.064,-0.395,happy
1.38,554,362,278,247,1392,220,2928,3613,2138,2279,3155,3693,7,0,0,0,1.856,2.124,8.035,0.585,0.554,-0.324,1.894,-3.347,9.874,-2.270,0.377,-0.427,happy
1.39,631,458,848,82,1494,82,3038,3654,1500,1917,3130,3509,13,0,0,0,-0.263,3.567,9.969,0.269,0.315,-0.215,1.889,-4.544,9.529,-2.926,0.450,-0.315,happy
1.40,851,766,1861,345,1535,110,3223,3680,1173,1712,3135,3372,1,0,0,0,0.338,3.752,9.534,0.207,0.194,-0.158,1.101,-3.838,10.822,-3.182,0.466,-0.164,happy
1.41,1094,1279,2459,854,1811,231,3350,3748,727,657,2121,2085,0,0,0,0,0.345,3.527,9.335,0.154,0.097,-0.063,0.702,-4.254,12.548,-4.449,0.170,0.376,happy
1.42,1104,1503,2803,1225,2157,237,3445,3763,395,39,2,689,0,0,0,0,0.445,3.402,9.378,0.211,0.028,-0.031,1.381,-11.035,15.093,-5.687,-0.691,1.259,happy
1.43,1312,1904,3059,1639,2377,205,3518,3749,267,0,0,47,0,0,39,0,0.417,3.802,9.234,0.238,-0.025,-0.053,0.953,-7.072,13.091,-6.218,-0.789,2.044,happy
1.44,1445,2090,3265,2113,2650,179,3569,3744,3,0,0,0,0,0,0,0,0.429,3.673,9.364,0.131,0.026,-0.029,1.410,-11.408,11.011,-5.763,-1.898,1.987,happy
1.45,1689,2206,3391,2416,2911,239,3609,3718,0,0,0,0,0,0,0,0,0.338,3.481,9.280,0.143,0.023,-0.018,5.459,-5.241,14.210,-1.486,0.027,3.165,happy
1.46,1905,2356,3475,2654,3131,420,3631,3667,0,0,0,0,0,0,0,0,0.352,3.431,9.179,0.150,0.023,-0.010,-0.077,-14.617,19.613,0.761,0.697,2.199,happy
1.47,2064,2485,3567,2780,3251,225,3603,3577,0,0,0,0,0,0,0,0,0.352,3.735,9.404,0.133,0.017,-0.007,4.980,-1.118,8.334,2.062,0.103,1.355,happy
1.48,2225,2624,3632,2944,3285,145,3521,3431,0,0,0,0,0,0,0,0,0.359,3.759,9.486,0.132,0.024,-0.018,3.725,-0.867,6.926,2.664,0.532,1.006,happy
1.49,2381,2735,3686,3053,3306,147,3377,3219,0,0,0,0,0,0,0,0,0.350,3.737,9.301,0.141,0.022,-0.014,3.237,-1.022,7.549,2.995,0.359,0.802,happy
1.50,2474,2796,3731,3152,3312,147,3216,2930,0,0,28,0,0,0,0,0,0.419,3.797,9.345,0.149,0.028,-0.017,3.634,-2.521,7.293,3.407,-0.169,0.293,happy
1.51,2599,2867,3767,3218,3308,146,3007,2443,11,0,0,0,0,0,0,0,0.184,3.871,9.189,0.142,0.023,-0.009,3.546,-4.386,8.440,3.695,-0.382,-0.074,happy
1.52,2676,2917,3798,3293,3282,144,2771,1857,0,0,0,0,0,0,0,0,0.364,3.864,9.213,0.130,0.060,-0.005,3.802,-5.100,8.497,3.791,-0.496,-0.316,happy
1.53,2749,2978,3833,3367,3255,144,2474,1373,0,0,0,0,0,0,0,0,0.357,3.761,9.261,0.131,0.081,0.007,4.302,-6.239,9.249,3.746,-0.607,-1.046,happy
1.54,2785,3024,3854,3418,3227,138,2237,566,0,0,0,0,0,0,0,0,0.297,3.859,9.290,0.119,0.101,0.010,2.579,-7.173,10.590,3.714,-0.877,-1.673,happy
1.55,2865,3062,3882,3456,3197,138,2068,146,0,0,0,0,0,31,0,0,0.302,3.893,9.148,0.122,0.096,0.010,2.394,-7.379,10.633,3.664,-0.901,-1.814,happy
1.56,2917,3106,3899,3501,3171,135,1806,135,0,1,0,0,0,0,25,0,0.280,3.891,9.187,0.119,0.097,0.005,1.774,-6.761,10.357,3.474,-0.841,-1.809,happy
1.57,2943,3149,3914,3536,3062,129,1442,138,0,0,0,0,0,0,0,19,0.306,3.898,9.311,0.124,0.103,0.001,0.948,-5.760,11.344,3.230,-0.919,-1.555,happy
1.58,2992,3183,3920,3564,2928,131,1163,132,0,0,7,0,0,0,0,0,0.223,3.924,9.194,0.122,0.107,0.005,0.397,-5.607,11.669,3.079,-1.186,-1.383,happy
1.59,3038,3212,3938,3603,2655,132,815,131,0,0,0,0,0,5,0,0,0.251,3.826,9.029,0.145,0.090,0.014,-0.010,-5.760,13.551,2.886,-1.605,-1.048,happy
1.60,3095,3245,3952,3623,2527,128,416,130,0,0,20,0,0,0,0,0,0.160,3.941,9.237,0.135,0.106,0.006,-0.800,-6.235,14.674,2.885,-1.497,-0.686,happy
1.61,3109,3279,3968,3654,2368,128,206,128,0,0,25,0,0,0,0,0,0.261,4.008,9.225,0.172,0.126,0.010,-1.195,-7.568,16.307,2.838,-1.428,-0.551,happy
1.62,3136,3298,3975,3682,1998,127,129,129,0,0,2,0,0,0,0,0,0.239,4.032,9.191,0.198,0.127,0.011,-2.035,-10.613,14.348,2.678,-1.923,-0.418,happy
1.63,3169,3302,3981,3701,1715,127,128,128,0,0,0,0,0,0,0,0,0.103,3.857,9.151,0.294,0.151,0.055,1.994,-14.890,10.697,2.343,-1.838,-0.398,happy
1.64,3239,3334,3985,3718,1602,123,128,126,0,5,0,0,3,0,0,1,0.148,4.147,9.074,0.308,0.123,0.070,1.980,-15.907,7.544,2.144,-1.208,-0.762,happy
1.65,3311,3366,4011,3741,1656,128,128,128,0,0,0,0,0,0,0,0,0.227,3.962,9.110,0.357,0.130,0.096,-4.669,-15.864,-1.099,0.672,-0.438,-1.259,happy
1.66,3389,3379,4024,3767,1407,127,128,128,1,0,0,0,0,0,0,0,0.292,3.979,9.172,0.480,0.130,0.136,-7.199,-16.774,1.120,-0.638,0.039,-0.291,happy
1.67,3485,3371,4095,3779,1220,127,125,130,0,0,0,0,0,0,0,0,0.244,4.207,9.072,0.577,0.106,0.182,-5.763,-15.107,0.783,-1.093,0.243,0.190,happy
1.68,3606,3297,4035,3792,1040,125,127,127,0,0,0,0,0,0,0,0,0.316,4.104,9.060,0.709,0.080,0.233,11.384,6.223,19.613,0.612,3.676,0.800,happy
1.69,3675,3162,4041,3803,711,122,128,122,0,0,0,0,0,0,103,0,0.213,4.278,8.894,0.906,0.133,0.289,1.369,7.889,4.168,-2.887,-0.918,-1.460,happy
1.70,3766,2672,4033,3805,597,119,124,119,0,7,0,0,0,0,21,1385,0.424,4.348,8.873,1.198,0.298,0.411,-2.892,-6.452,14.262,-2.444,1.108,1.043,happy
1.71,3827,2554,4007,3792,203,122,121,119,0,0,0,0,0,0,83,2375,0.670,4.745,8.780,1.467,0.452,0.468,-1.992,1.796,11.456,-2.817,0.321,0.586,happy
1.72,3862,2502,3971,3787,119,126,123,103,0,29,2,0,0,0,594,3259,0.268,4.566,8.384,1.821,0.626,0.559,-3.553,-5.167,13.379,-3.564,-1.026,0.888,happy
1.73,3888,2406,3894,3733,119,119,122,120,0,0,0,0,0,0,1613,3531,0.622,5.468,9.002,2.095,0.837,0.569,10.913,-4.544,11.428,-1.973,-0.739,0.671,happy
1.74,3889,2273,3793,3635,155,156,153,156,0,0,0,0,0,0,2155,3610,0.067,5.272,7.702,2.496,1.028,0.632,-2.083,-17.480,14.083,-1.000,1.382,0.408,happy
1.75,3837,2159,3669,3391,152,155,156,155,0,0,0,0,0,0,2565,3693,0.393,6.177,8.231,3.035,0.953,0.493,1.494,-3.065,11.612,-0.198,1.491,0.431,happy
1.76,3682,1949,3405,2395,208,205,208,208,29,0,0,0,119,0,2825,3735,-0.749,6.479,9.294,3.922,-0.031,-0.042,1.432,-2.801,10.556,0.013,1.018,0.280,happy
1.77,3223,1233,2913,1670,328,389,357,304,0,11,0,0,154,0,2856,3799,-0.486,7.848,14.597,5.285,-1.302,-0.895,1.566,-2.358,9.962,-0.057,1.048,0.375,happy
1.78,1997,465,1221,734,410,404,409,413,0,307,99,0,315,0,2903,3883,-1.798,7.314,12.311,6.558,-1.328,-1.754,1.956,-2.531,9.536,-0.029,0.802,0.357,happy
1.79,1226,337,358,336,345,351,352,334,1,637,230,341,415,2,3063,3917,-2.277,11.638,14.408,6.720,-1.179,-1.887,0.917,-2.964,10.185,0.000,0.337,0.126,happy
1.80,262,256,261,261,262,257,257,257,0,909,1236,810,445,13,3145,3937,2.437,6.699,19.613,2.853,-0.497,-2.356,0.917,-2.512,9.838,0.058,0.231,0.047,happy
1.81,203,201,199,198,199,203,202,205,3,1299,2203,1631,1129,3,3295,3957,-0.826,6.486,19.613,-0.598,-0.839,-1.570,1.173,-2.222,9.567,0.041,0.188,0.052,happy
1.82,198,194,202,199,197,198,201,193,2,1439,2446,1994,1512,1,3367,3959,2.851,2.885,9.910,-1.715,-1.210,-1.745,0.826,-2.399,10.096,-0.034,0.151,0.102,happy
1.83,273,274,271,281,277,272,272,276,0,1566,2454,2157,1661,3,3443,3953,1.925,2.152,8.497,-2.422,-1.160,-1.658,0.891,-2.607,9.840,-0.042,0.143,0.115,happy
1.84,262,259,263,262,260,259,263,267,0,1656,2500,2391,1775,2,3512,3919,2.203,2.899,7.513,-3.107,-1.298,-1.392,0.795,-2.459,9.804,-0.084,0.082,0.082,happy
1.85,299,292,291,291,293,290,297,291,1,1779,2602,2570,1963,1,3501,3863,2.500,3.606,6.665,-3.479,-1.257,-0.970,0.907,-2.401,9.591,-0.096,0.066,0.079,happy
1.86,248,245,247,254,249,250,246,246,3,1803,2664,2599,1916,2,3484,3821,1.757,5.205,7.080,-3.676,-1.336,-0.470,0.800,-2.473,9.780,-0.132,0.051,0.090,happy
1.87,294,285,287,290,291,288,291,293,25,1773,2679,2771,1976,2,3416,3699,1.822,6.876,7.482,-3.741,-1.464,0.059,0.838,-2.693,9.819,-0.109,0.049,0.072,happy
1.88,144,145,142,163,144,141,145,155,1,1957,2720,2937,2011,8,3337,3610,1.346,8.296,9.115,-3.726,-1.411,0.739,0.682,-2.349,9.752,-0.082,0.029,0.042,happy
1.89,454,449,447,438,449,441,451,450,1,2007,2730,3013,2077,0,3303,3556,0.328,9.313,9.301,-3.782,-1.285,1.331,0.625,-2.497,9.953,-0.071,0.029,0.036,happy
1.90,408,409,409,404,406,407,408,408,1,2195,2751,3053,2222,3,3235,3413,0.378,9.335,8.720,-3.596,-1.035,1.670,0.649,-2.591,9.823,-0.026,0.034,0.037,happy
1.91,401,411,414,413,411,406,406,413,1,2335,2812,3177,2341,0,3129,3226,0.287,9.548,10.403,-3.423,-0.816,1.853,0.788,-2.761,9.962,-0.038,0.040,0.029,happy
1.92,386,381,390,384,384,387,390,384,1,2409,2848,3205,2355,1,3028,3157,0.927,9.529,10.324,-3.344,-0.674,1.955,1.140,-2.931,9.182,0.022,0.039,0.032,happy
1.93,0,0,0,0,0,0,0,0,19,2503,2889,3311,2507,14,2748,2921,0.764,8.926,10.566,-3.006,-0.705,2.033,0.742,-2.581,9.867,-0.017,0.029,0.033,happy
1.94,311,298,305,304,294,294,290,299,20,2544,2935,3423,2575,12,2604,2667,0.206,10.013,13.161,-2.930,-0.893,2.073,0.929,-2.691,9.740,-0.039,0.021,0.030,happy
1.95,157,156,158,164,146,156,157,156,89,2571,2940,3419,2603,24,2662,2580,-1.377,9.658,12.246,-2.941,-0.658,1.944,0.778,-2.528,9.773,-0.066,0.002,0.025,happy
1.96,150,151,151,155,151,149,156,151,147,2585,2945,3444,2589,31,2554,2355,-2.923,9.230,11.703,-2.593,-0.622,1.537,0.831,-2.437,9.914,-0.126,-0.021,0.015,happy
1.97,143,141,144,141,143,143,143,144,503,2631,2971,3525,2530,47,2315,2008,-1.982,10.599,11.516,-2.268,-0.851,1.178,0.721,-2.629,9.991,-0.127,-0.040,0.013,happy
1.98,138,137,138,144,135,137,138,141,500,2675,2986,3563,2453,47,2237,1655,-3.309,10.482,6.675,-1.845,-0.891,0.606,0.785,-2.634,9.771,-0.155,-0.017,0.007,happy
1.99,133,130,135,137,132,133,135,132,873,2681,3025,3621,2393,47,1715,375,-3.651,11.708,5.456,-1.228,-1.401,-0.045,0.845,-2.787,9.706,-0.184,-0.047,0.002,happy
2.00,132,128,137,144,135,135,138,133,1297,2717,3061,3685,2283,5,1235,48,-2.567,11.296,0.960,-0.868,-1.228,-0.286,0.771,-2.677,9.627,-0.145,-0.002,0.005,happy
2.01,122,115,123,122,119,118,123,118,1371,2747,3140,3737,2285,26,749,105,-1.549,11.796,-1.494,0.127,-0.398,-0.443,0.943,-2.705,9.704,-0.068,0.017,0.031,happy
2.02,117,115,117,114,117,118,115,124,1719,2857,3084,3835,1976,29,243,99,-0.613,12.328,0.498,0.836,-0.054,-0.437,0.723,-2.643,9.483,-0.187,0.015,0.008,happy
2.03,125,122,118,123,119,121,122,118,1951,2892,3101,3759,1292,18,142,78,11.768,2.397,10.805,1.220,4.139,-0.012,0.527,-2.143,9.890,-0.585,0.059,-0.123,happy
2.04,9,17,0,16,24,16,88,1490,2084,2879,3135,3921,931,5,119,10,-0.340,-7.669,9.790,2.163,1.037,1.712,0.958,-2.370,9.500,-0.492,-0.005,-0.115,happy
2.05,11,22,6,32,16,6,176,2801,2378,2985,3130,3947,345,1,39,0,-15.376,1.999,11.978,3.336,0.650,0.008,1.027,-3.608,9.661,-0.544,-0.074,-0.136,happy
2.06,244,14,308,0,114,305,483,3261,2707,3044,3145,3949,168,0,26,0,-3.124,-0.352,8.310,3.295,0.119,-0.602,1.233,-2.926,9.716,-0.782,-0.284,-0.211,happy
2.07,0,0,0,0,0,0,1264,3391,2799,3045,3142,3941,191,0,13,0,2.643,7.896,10.894,3.399,-0.910,-0.103,1.662,-3.014,9.761,-0.857,-0.389,-0.290,happy
2.08,202,147,128,158,834,110,2419,3420,2833,2987,3101,3759,45,0,20,0,14.933,19.613,11.284,0.670,1.957,-0.650,1.408,-3.541,9.728,-1.182,-0.392,-0.314,happy
2.09,729,269,178,107,1215,190,2688,3437,2713,2809,3160,3781,3,0,2,0,-0.919,12.517,19.613,0.499,0.587,-0.207,1.525,-3.122,9.948,-1.679,0.014,-0.395,happy
2.10,968,529,752,118,1267,65,2813,3508,2471,2569,3186,3727,0,0,0,0,-0.721,4.877,9.687,0.284,0.378,-0.141,1.697,-3.084,9.850,-2.127,0.288,-0.462,happy
2.11,1152,923,1762,348,1535,70,3002,3570,1863,2254,3142,3557,17,0,0,0,-0.043,3.821,9.191,0.191,0.279,-0.150,1.693,-3.543,9.967,-3.018,0.686,-0.322,happy
2.12,1231,1232,2323,805,1486,64,3133,3607,1325,1427,2976,3101,0,0,0,0,0.498,3.625,9.263,0.135,0.170,-0.145,1.243,-2.638,11.830,-4.132,0.604,0.165,happy
2.13,1439,1637,2699,1359,1799,161,3250,3659,921,663,2183,2165,0,0,0,0,-0.017,3.934,9.548,0.080,0.118,-0.078,1.760,-4.690,12.957,-4.962,0.263,0.692,happy
2.14,1507,1822,2859,1673,2001,129,3324,3696,391,0,0,613,0,0,39,0,0.168,3.390,9.395,0.112,0.019,0.011,0.895,-6.038,13.769,-6.420,-0.886,1.757,happy
2.15,1640,2083,3033,2064,2247,191,3427,3725,0,0,0,0,0,0,0,0,0.634,3.519,9.893,0.110,0.143,0.012,1.152,-11.835,10.693,-6.783,-1.827,2.469,happy
2.16,1775,2219,3169,2320,2512,220,3487,3717,0,0,0,0,0,0,0,0,0.481,4.058,9.804,0.071,0.047,0.001,1.532,-8.674,11.468,-5.590,-1.928,2.344,happy
2.17,1877,2337,3263,2505,2686,257,3516,3715,0,0,0,0,0,0,0,0,0.146,3.955,9.443,0.046,0.072,-0.025,3.428,-1.915,19.613,0.414,0.418,3.598,happy
2.18,1968,2446,3344,2634,2883,644,3543,3685,0,0,0,0,0,2,0,0,0.072,3.608,9.713,0.071,0.046,-0.009,5.751,0.227,12.651,1.842,-0.408,1.946,happy
2.19,2096,2533,3413,2752,2958,556,3533,3632,0,0,0,0,0,0,0,0,0.196,3.551,9.383,0.082,0.021,0.000,5.473,-1.132,9.115,2.489,0.048,1.630,happy
2.20,2150,2559,3447,2809,3024,192,3504,3573,0,0,0,0,0,0,0,0,0.189,3.563,9.287,0.100,0.011,-0.003,4.865,-0.771,6.850,2.673,0.100,1.166,happy
2.21,2279,2666,3503,2897,3088,137,3419,3473,0,57,0,0,0,0,0,0,0.254,3.675,9.170,0.101,0.017,-0.013,4.034,-1.233,7.183,3.035,-0.168,0.551,happy
2.22,2349,2699,3554,2976,3117,136,3341,3347,0,0,0,0,0,0,0,0,0.323,3.577,9.227,0.112,0.021,-0.010,3.797,-3.424,9.108,3.624,-0.776,-0.254,happy
2.23,2417,2750,3601,3069,3133,133,3219,3196,0,0,63,0,0,0,0,0,0.227,3.711,9.369,0.126,0.031,-0.013,3.371,-3.701,7.424,3.765,-0.735,-0.495,happy
2.24,2497,2806,3655,3135,3133,131,3031,2963,0,0,0,0,0,0,0,0,0.294,3.847,9.254,0.115,0.052,-0.014,1.618,-5.250,9.737,3.739,-0.966,-0.751,happy
2.25,2555,2866,3687,3218,3121,129,2865,2751,0,1,0,0,0,0,0,0,0.199,3.859,9.392,0.090,0.074,-0.016,1.602,-5.923,10.178,3.765,-1.336,-1.210,happy
2.26,2644,2923,3726,3265,3083,125,2623,2318,0,0,0,0,0,0,0,0,0.211,3.850,9.323,0.082,0.093,-0.009,1.908,-5.909,10.089,3.667,-1.197,-1.409,happy
2.27,2661,2943,3760,3323,3050,125,2322,1911,0,0,0,0,0,0,0,0,0.170,3.816,9.301,0.092,0.086,-0.004,1.420,-6.505,12.565,3.692,-1.120,-1.698,happy
2.28,2707,2992,3770,3364,3033,133,2073,1457,0,0,0,0,0,0,0,0,0.213,3.766,9.249,0.106,0.092,0.003,-0.055,-5.394,10.728,3.545,-1.184,-1.629,happy
2.29,2803,3029,3803,3411,2960,127,1898,702,0,0,0,0,0,0,0,0,0.223,3.867,9.266,0.107,0.093,0.005,-0.311,-5.143,11.557,3.383,-1.180,-1.354,happy
2.30,2896,3056,3837,3456,2864,117,1535,114,0,0,0,0,18,0,5,0,0.182,3.780,9.273,0.108,0.097,0.005,0.017,-6.024,14.494,3.222,-1.373,-0.890,happy
2.31,2919,3103,3858,3493,2608,112,1227,114,0,0,0,0,0,0,0,0,0.177,3.836,9.323,0.138,0.105,0.003,-0.532,-6.572,14.224,3.086,-1.409,-0.480,happy
2.32,2963,3131,3876,3538,2418,112,890,112,0,0,0,0,0,0,0,0,0.134,3.795,9.244,0.170,0.135,0.017,-1.358,-7.149,13.903,2.880,-1.345,-0.248,happy
2.33,2983,3169,3898,3583,2273,112,353,112,0,0,0,0,0,0,0,0,0.189,3.972,9.268,0.182,0.165,0.017,-2.167,-11.246,15.670,2.415,-2.053,0.021,happy
2.34,3024,3209,3920,3631,2002,112,165,112,0,0,0,0,0,0,0,0,0.204,3.869,9.313,0.282,0.158,0.036,1.178,-15.486,12.254,2.449,-1.662,-0.021,happy
2.35,3112,3229,3945,3675,1734,109,109,108,0,0,0,0,0,0,0,0,0.223,3.874,9.287,0.357,0.141,0.072,0.759,-16.053,7.547,2.148,-1.555,-0.368,happy
2.36,3159,3251,3967,3714,1642,109,110,110,0,0,0,0,0,0,0,20,-0.053,3.263,8.863,0.412,0.111,0.127,-2.473,-17.324,-0.285,1.044,-1.076,-1.211,happy
2.37,3260,3249,3952,3739,1472,95,121,112,0,0,94,0,0,71,0,0,0.031,3.919,9.201,0.537,0.142,0.175,-4.786,-17.217,-3.886,-0.649,0.292,-1.216,happy
2.38,3370,3147,3974,3760,1237,99,112,107,0,0,0,0,0,0,18,0,-0.053,4.295,9.139,0.597,0.102,0.215,-6.663,-16.836,0.486,-1.401,0.354,-0.792,happy
2.39,3498,2880,4005,3792,887,105,112,107,0,0,0,0,0,0,0,0,0.570,3.931,9.194,0.784,0.122,0.292,-1.939,4.178,16.139,-0.190,2.709,-0.867,happy
2.40,3570,2794,4016,3797,566,104,108,106,0,0,0,0,0,0,27,92,0.371,4.130,9.029,1.007,0.141,0.341,-0.529,10.324,3.936,-3.074,0.585,-1.283,happy
2.41,3665,2667,4004,3799,271,103,106,103,0,0,0,0,0,0,73,2287,0.553,4.312,9.036,1.384,0.330,0.493,-8.497,-2.986,14.143,-3.038,1.128,1.221,happy
2.42,3754,2586,3981,3774,102,108,107,102,0,0,0,33,0,0,346,3119,0.156,4.187,8.878,1.721,0.587,0.536,-2.765,-0.869,8.820,-3.349,0.705,1.072,happy
2.43,3798,2453,3920,3729,113,112,113,119,0,0,0,0,0,0,1201,3577,0.225,4.836,8.645,2.050,0.775,0.608,0.256,-4.966,11.679,-3.470,-0.125,0.943,happy
2.44,3803,2439,3792,3629,97,98,99,98,0,0,0,0,0,0,2168,3726,-0.134,5.076,8.119,2.366,1.018,0.622,12.450,1.793,7.681,0.534,2.862,0.238,happy
2.45,3783,2326,3710,3539,144,141,143,144,0,0,0,0,0,0,2394,3893,0.187,5.016,8.260,2.752,1.155,0.670,-3.802,-1.879,19.580,-0.232,0.850,0.396,happy
2.46,3575,2343,3625,2917,91,91,94,92,0,0,2,0,3,0,2595,3813,0.153,5.234,7.872,3.089,0.787,0.443,1.223,-3.955,11.468,-0.036,0.531,0.116,happy
2.47,2925,2258,3423,2244,327,309,316,320,0,47,5,26,135,0,2793,3861,-0.062,6.024,11.880,4.548,-1.070,-0.169,0.886,-2.195,10.312,0.055,0.200,0.053,happy
2.48,1786,1133,2507,1254,400,355,464,327,0,325,2,237,367,4,2959,3893,-1.049,9.905,14.964,5.840,-2.166,-1.375,0.891,-1.949,9.048,0.092,0.272,0.137,happy
2.49,593,102,390,144,67,23,50,80,0,421,79,540,379,0,3049,3908,0.084,11.878,12.962,7.638,-1.244,-1.928,0.747,-2.349,9.177,0.045,0.133,0.187,happy
2.50,412,243,246,245,243,247,249,242,1,721,1891,1463,421,4,3164,3973,0.879,10.259,13.063,6.490,-0.894,-2.523,0.895,-2.557,10.302,0.004,0.039,0.050,happy
2.51,156,165,158,166,156,154,153,165,1,1105,2290,1591,867,0,3369,3979,5.684,6.043,17.166,0.771,1.346,-3.257,0.862,-2.081,9.986,0.033,0.088,0.046,happy
2.52,417,418,421,423,420,419,421,425,1,1235,2444,1691,1160,3,3445,3991,2.128,0.259,13.166,-1.159,-0.756,-0.758,0.883,-2.210,9.941,0.039,0.108,0.025,happy
2.53,0,0,0,0,0,0,0,0,0,1423,2482,1957,1582,0,3535,3990,2.193,0.400,8.090,-1.909,-0.199,-0.991,1.041,-2.490,9.917,-0.037,0.108,0.088,happy
2.54,0,0,0,0,0,0,0,0,1,1480,2492,1977,1682,2,3566,3993,1.772,1.640,8.152,-2.224,-0.276,-0.978,0.819,-2.025,9.749,-0.068,0.079,0.087,happy
2.55,0,0,0,0,0,0,0,0,1,1485,2477,2145,1773,0,3607,3987,1.867,2.322,8.844,-2.691,-0.423,-0.962,0.874,-2.444,9.816,-0.093,0.084,0.092,happy
2.56,0,0,0,0,0,0,0,0,2,1555,2503,2300,1764,3,3619,3965,1.867,2.959,8.502,-3.144,-0.584,-0.908,0.790,-2.406,9.814,-0.096,0.071,0.094,happy
2.57,0,0,0,0,0,0,0,0,0,1574,2546,2399,1836,2,3623,4039,1.954,3.989,7.796,-3.524,-0.716,-0.811,0.862,-2.377,9.843,-0.089,0.072,0.096,happy
2.58,0,0,0,0,0,0,0,0,1,1611,2608,2463,1891,3,3619,3899,1.930,4.717,7.185,-3.787,-0.798,-0.668,0.891,-2.251,9.704,-0.108,0.074,0.105,happy
2.59,0,0,0,0,0,0,0,0,1,1643,2651,2515,1959,3,3609,3867,1.590,5.564,7.101,-3.942,-0.912,-0.495,0.917,-2.399,9.823,-0.126,0.050,0.109,happy
2.60,0,0,0,0,0,0,0,0,3,1692,2684,2568,1989,0,3573,3815,1.891,6.586,6.905,-3.997,-1.006,-0.299,0.922,-2.447,9.785,-0.110,0.055,0.100,happy
2.61,0,0,0,0,0,0,0,0,3,1705,2618,2637,2067,7,3559,3758,2.179,7.508,7.290,-4.008,-1.038,-0.041,0.852,-2.576,9.914,-0.102,0.055,0.095,happy
2.62,0,0,0,0,0,0,0,0,0,1741,2700,2715,2105,3,3501,3709,2.246,8.135,7.645,-3.985,-1.023,0.320,0.809,-2.476,9.785,-0.100,0.043,0.080,happy
2.63,272,290,273,329,281,272,275,305,0,1751,2700,2783,2123,3,3508,3641,1.870,8.724,8.131,-3.930,-1.018,0.707,0.790,-2.557,9.845,-0.087,0.047,0.062,happy
2.64,268,257,262,249,262,261,272,250,1,1871,2735,2941,2245,3,3369,3487,1.257,9.838,9.586,-3.795,-1.018,1.281,0.749,-2.557,9.833,-0.075,0.029,0.079,happy
2.65,557,551,560,541,555,563,561,549,3,2056,2766,2995,2323,3,3379,3351,0.441,10.278,9.565,-3.724,-1.002,1.680,0.833,-2.638,9.747,-0.044,0.053,0.075,happy
2.66,368,364,364,366,362,362,362,361,1,2167,2797,3083,2503,0,3248,3104,0.582,9.598,9.258,-3.487,-0.828,1.797,0.886,-2.631,9.893,-0.043,0.055,0.048,happy
2.67,352,351,349,351,351,347,339,350,1,2263,2807,3157,2629,3,2989,3067,0.637,9.237,10.245,-3.259,-0.674,1.792,0.910,-2.715,9.682,-0.003,0.037,0.044,happy
2.68,215,215,213,211,213,208,215,214,8,2335,2838,3205,2723,5,2969,3023,0.225,9.342,11.413,-3.029,-0.946,1.866,0.769,-2.413,10.151,-0.061,0.034,0.042,happy
2.69,202,235,231,240,231,230,248,230,52,2389,2889,3155,2840,26,2924,2899,0.115,9.172,11.662,-2.769,-1.096,1.931,0.783,-2.569,9.766,-0.052,0.003,0.033,happy
2.70,213,208,209,210,208,208,209,211,71,2488,2935,3323,2952,18,2837,2813,-1.664,9.783,13.058,-2.546,-0.996,1.866,0.903,-2.571,9.783,-0.059,0.009,0.035,happy
2.71,229,223,229,225,228,224,225,227,103,2459,2925,3409,2943,27,2729,2757,-5.404,11.349,15.364,-2.583,-1.228,1.684,0.982,-2.595,9.445,-0.064,0.009,0.031,happy
2.72,302,307,300,295,302,292,299,299,268,2523,2981,3461,3015,69,2511,2373,-2.679,11.212,10.178,-2.603,-0.583,1.212,0.773,-2.605,9.819,-0.136,-0.013,0.006,happy
2.73,209,211,211,211,210,214,214,209,683,2619,2945,3543,2840,47,2340,1611,-7.302,12.155,4.178,-1.908,-0.553,0.035,0.816,-2.634,9.704,-0.166,-0.020,0.001,happy
2.74,34,48,47,80,39,54,39,65,853,2676,3227,3592,2724,51,2132,857,-6.400,15.320,0.792,-1.177,-2.206,-0.940,0.821,-2.581,9.776,-0.184,-0.018,-0.005,happy
2.75,171,162,162,176,165,160,166,168,999,2703,3048,3690,2634,41,1779,203,-1.003,13.958,-5.356,-0.115,-1.461,-0.939,0.840,-2.753,9.790,-0.152,0.011,0.004,happy
2.76,129,130,128,135,128,128,129,133,1286,2758,3078,3758,2487,1,1061,171,-0.680,14.844,-1.853,1.078,0.089,-0.548,0.927,-2.610,9.637,-0.099,0.012,0.014,happy
2.77,415,414,400,416,413,415,414,416,1417,2797,3084,3800,2407,39,343,139,19.613,-3.280,9.352,1.601,2.615,0.752,1.166,-2.717,9.787,-0.101,-0.026,0.037,happy
2.78,0,0,496,0,0,496,304,1046,1654,2837,3101,3860,1791,37,199,135,-3.424,-11.739,12.093,2.077,0.286,2.279,0.630,-1.240,9.840,-0.505,0.026,-0.126,happy
2.79,31,26,21,0,41,25,161,2466,1943,2804,3132,3835,735,3,133,0,-18.019,2.222,12.634,3.373,0.768,-0.187,0.972,-3.172,9.589,-0.609,0.018,-0.075,happy
2.80,255,270,249,297,269,239,642,3280,2040,2797,3135,3877,523,18,158,0,-5.547,1.844,12.663,2.622,-0.050,-0.606,1.075,-2.253,9.371,-0.599,-0.086,-0.100,happy
2.81,238,247,240,254,240,241,1280,3477,2230,2715,3132,3916,123,0,23,0,6.122,6.800,9.515,2.703,-0.203,-0.293,1.532,-3.481,9.663,-0.829,-0.384,-0.237,happy
2.82,87,91,82,86,279,74,2066,3504,2390,2607,3137,3881,3,0,11,0,0.656,5.928,11.791,2.200,-0.143,-0.313,0.977,-3.055,9.419,-1.152,-0.383,-0.315,happy
2.83,309,134,143,108,863,149,2515,3504,2406,2555,3140,3861,17,0,0,0,3.615,1.820,4.068,0.068,2.163,-0.672,1.286,-3.041,10.080,-1.319,-0.190,-0.354,happy
2.84,757,363,185,176,1248,200,2704,3555,2335,2389,3140,3781,0,0,0,0,-3.297,3.038,7.132,0.424,0.944,-0.220,1.429,-3.361,10.036,-1.690,0.123,-0.362,happy
2.85,993,627,827,128,1290,64,2863,3579,2041,2039,3140,3683,0,0,0,0,-0.776,3.254,10.063,0.400,0.406,-0.230,1.820,-3.529,9.407,-2.544,0.524,-0.332,happy
2.86,1099,995,1712,468,1503,61,2975,3611,1772,1963,3132,3555,0,0,2,0,-0.010,3.651,9.290,0.151,0.213,-0.154,1.559,-4.135,9.618,-2.832,0.612,-0.248,happy
2.87,1417,1463,2375,1216,1674,256,3165,3677,981,1085,2976,3087,4,0,0,0,0.421,3.460,9.234,0.118,0.192,-0.116,0.991,-3.266,10.961,-3.665,0.389,0.112,happy
2.88,1467,1666,2678,1619,1843,180,3232,3687,509,374,1983,1647,0,0,0,0,0.041,3.677,9.378,0.123,0.064,-0.025,0.754,-5.114,13.340,-4.991,-0.434,0.948,happy
2.89,1643,1906,2931,2124,2180,314,3342,3723,373,85,737,867,3,0,0,0,0.120,3.857,9.163,0.111,0.062,0.034,0.239,-10.676,13.740,-6.049,-1.035,1.075,happy
2.90,1662,2091,3042,2323,2272,84,3381,3689,31,0,0,0,0,24,9,0,0.335,3.694,9.455,0.084,0.014,0.010,0.809,-8.054,10.642,-6.621,-1.555,2.022,happy
2.91,1827,2211,3206,2542,2633,275,3452,3687,0,0,7,0,0,0,0,0,0.357,3.620,9.416,0.086,0.037,-0.008,1.575,-8.935,11.056,-5.358,-1.863,2.502,happy
2.92,1984,2289,3272,2705,2815,979,3475,3664,0,0,0,0,0,0,0,0,0.101,3.529,9.282,0.091,0.031,-0.008,5.569,-9.400,12.038,-2.736,-0.563,3.258,happy
2.93,2135,2428,3381,2817,3007,886,3505,3640,0,0,0,0,0,0,0,0,0.148,3.644,9.340,0.094,0.026,-0.007,1.135,-6.735,19.613,0.686,-0.228,1.900,happy
2.94,2197,2559,3451,2923,3067,289,3460,3550,0,0,0,0,0,0,0,0,0.223,3.680,9.378,0.101,0.026,-0.015,4.520,-0.225,8.308,2.421,-0.364,1.417,happy
2.95,2232,2640,3504,3023,3089,119,3347,3414,0,0,0,0,0,0,0,0,0.350,3.749,9.373,0.100,0.047,-0.013,4.527,-0.989,6.776,2.746,-0.107,1.131,happy
2.96,2299,2722,3565,3083,3095,100,3209,3225,0,0,2,0,0,0,0,0,0.294,3.553,9.220,0.129,0.037,-0.019,3.445,-2.045,8.665,3.393,0.095,0.476,happy
2.97,2393,2775,3611,3151,3115,96,3031,2998,0,0,0,0,0,0,0,0,0.342,3.668,9.191,0.112,0.051,-0.018,2.919,-3.294,7.920,3.877,-0.280,-0.054,happy
2.98,2463,2837,3663,3199,3139,130,2911,2798,0,0,0,0,0,0,0,0,0.237,3.689,9.318,0.097,0.061,-0.018,2.662,-4.492,8.490,4.025,-0.428,-0.264,happy
2.99,2559,2890,3705,3265,3153,134,2733,2519,0,0,0,0,0,0,0,0,0.330,3.745,9.239,0.097,0.066,-0.014,2.339,-5.318,7.752,4.081,-0.557,-0.519,happy
3.00,2592,2927,3735,3313,3161,129,2475,2128,0,0,0,0,0,0,0,0,0.251,3.797,9.376,0.126,0.084,-0.002,2.528,-6.800,10.127,3.976,-0.899,-0.879,happy
3.01,2650,2949,3768,3350,3148,128,2229,1791,0,0,0,0,0,0,0,0,0.263,3.735,9.275,0.102,0.078,-0.003,2.725,-7.305,10.482,3.965,-1.044,-1.157,happy
3.02,2703,2992,3790,3401,3149,128,2101,1377,0,0,12,0,0,0,0,0,0.189,3.809,9.321,0.104,0.087,0.003,2.914,-6.603,9.352,3.684,-1.028,-1.628,happy
3.03,2768,3041,3823,3439,3132,124,1965,704,0,0,0,0,0,2,11,0,0.201,3.800,9.261,0.100,0.083,-0.001,1.628,-6.263,11.179,3.473,-0.886,-1.771,happy
3.04,2803,3069,3834,3479,3082,119,1680,176,1,0,0,0,0,0,0,0,0.194,3.788,9.278,0.112,0.088,-0.001,0.445,-5.777,11.293,3.359,-0.901,-1.636,happy
3.05,2842,3115,3856,3514,2973,113,1328,121,0,0,12,0,0,0,0,0,0.141,3.819,9.270,0.128,0.089,0.001,-1.008,-6.199,14.313,3.149,-1.635,-1.067,happy
3.06,2885,3142,3873,3536,2754,116,1119,117,0,0,0,0,0,0,0,0,0.115,3.754,9.215,0.126,0.091,0.002,-0.771,-6.883,14.262,3.095,-2.040,-0.643,happy
3.07,2943,3184,3893,3569,2631,129,795,126,0,0,0,20,0,0,0,0,0.151,3.804,9.242,0.129,0.095,0.004,-1.164,-7.439,13.199,2.845,-2.299,-0.491,happy
3.08,2994,3228,3908,3604,2432,128,413,129,0,0,0,0,0,0,0,0,0.089,3.888,9.280,0.153,0.089,0.001,-0.819,-11.325,13.168,2.010,-3.563,-0.472,happy
3.09,3024,3255,3923,3631,2262,122,246,119,0,0,0,0,22,0,0,0,0.189,3.828,9.297,0.181,0.119,0.007,2.617,-15.598,11.018,1.926,-3.400,-0.762,happy
3.10,3045,3264,3935,3655,1967,59,62,62,0,0,0,0,0,0,0,0,0.117,3.938,9.196,0.265,0.116,0.035,2.174,-15.900,7.123,1.774,-2.616,-1.072,happy
3.11,3071,3294,3945,3664,1823,45,48,48,0,0,0,0,0,0,0,0,0.017,3.986,9.146,0.313,0.129,0.065,1.669,-15.553,3.127,1.237,-1.706,-1.411,happy
3.12,3127,3326,3952,3682,1741,59,59,60,0,0,0,0,0,0,0,0,0.328,3.677,9.290,0.353,0.114,0.092,-1.853,-16.135,1.961,0.636,-0.904,-1.480,happy
3.13,3168,3334,3964,3696,1603,76,76,76,0,0,0,0,0,0,0,0,0.134,3.931,9.196,0.381,0.109,0.107,-4.171,-16.970,-0.409,0.075,-0.398,-1.349,happy
3.14,3185,3351,3974,3695,1621,69,77,63,0,0,0,0,0,83,0,0,0.182,3.924,9.237,0.420,0.096,0.130,-5.734,-16.166,-1.697,-0.639,-0.050,-0.899,happy
3.15,3298,3376,3989,3754,1258,107,110,107,0,0,0,0,0,0,250,0,0.086,4.075,9.098,0.504,0.080,0.171,9.922,1.377,11.988,-0.984,3.709,-0.362,happy
3.16,3403,3345,4007,3787,1233,183,190,204,0,0,181,0,0,0,312,0,0.263,3.807,9.117,0.694,0.035,0.261,-0.757,5.930,3.472,-2.512,1.202,-1.084,happy
3.17,3503,3170,4005,3780,919,127,132,119,0,0,0,0,0,0,147,346,0.189,4.137,8.861,0.963,0.064,0.349,-6.443,2.799,9.816,-2.884,1.630,0.410,happy
3.18,3568,2757,3995,3765,385,83,82,80,0,0,33,0,10,0,206,2513,0.251,3.840,8.940,1.296,0.282,0.484,-5.279,0.275,8.272,-3.000,0.907,1.218,happy
3.19,3643,2607,3978,3741,404,66,73,70,0,0,0,0,0,0,856,3399,0.271,4.537,8.734,1.620,0.438,0.484,3.567,-6.026,10.963,-2.849,-0.078,1.070,happy
3.20,3677,2501,3934,3688,74,75,77,75,0,0,0,12,0,0,1363,3516,0.251,4.439,8.528,1.918,0.697,0.598,19.613,-0.998,17.018,-2.074,-0.813,0.924,happy
3.21,3679,2426,3842,3583,79,78,80,80,0,303,0,0,0,0,2264,3676,0.893,5.375,8.729,2.344,0.892,0.627,-0.943,1.211,10.860,0.288,2.909,0.687,happy
3.22,3577,2221,3729,3335,21,16,18,24,0,949,0,0,2,0,2285,3750,0.457,5.598,7.580,2.604,1.040,0.652,1.460,-3.436,9.857,0.035,1.174,0.234,happy
3.23,3271,2256,3664,2742,83,80,80,84,0,1117,0,0,59,0,2477,3774,0.381,5.976,9.208,3.053,0.604,0.475,0.821,-2.416,9.562,-0.033,0.493,0.060,happy
3.24,2355,2128,3415,2275,267,285,272,273,0,1421,0,6,276,0,2812,3831,0.735,6.625,12.969,4.477,-0.652,-0.102,1.281,-2.789,9.828,0.082,0.359,0.159,happy
3.25,1900,963,2615,1375,398,399,479,305,0,1705,2,291,395,0,2930,3887,-1.279,11.224,14.605,5.848,-2.066,-1.229,1.674,-2.181,9.333,0.052,0.361,0.168,happy
3.26,646,272,656,326,246,256,240,241,0,1589,0,658,473,0,3029,3919,-3.163,12.433,13.321,7.859,-1.894,-1.823,1.173,-2.679,9.912,0.060,0.245,0.118,happy
3.27,384,298,311,302,304,317,306,298,1,1684,309,1307,525,0,3191,3977,-0.350,11.466,10.743,6.034,-2.511,-2.105,1.020,-2.756,10.163,0.067,0.164,0.071,happy
3.28,321,331,307,346,320,305,315,336,1,1763,2149,1727,823,3,3327,4059,3.510,7.056,15.500,0.890,0.051,-2.798,1.051,-2.078,9.708,0.053,0.152,0.079,happy
3.29,357,354,358,352,356,354,358,355,2,1813,2198,1853,984,5,3401,4024,1.781,0.893,13.944,-1.423,-0.612,-1.440,0.943,-2.152,9.701,0.005,0.147,0.087,happy
3.30,123,114,123,122,120,123,123,120,2,1973,2290,2105,1267,1,3488,4028,1.118,0.397,7.487,-2.265,-0.287,-1.555,0.982,-2.325,9.833,-0.044,0.108,0.099,happy
3.31,75,68,74,75,72,75,76,66,6,2066,2446,2285,1377,4,3557,4015,0.611,1.164,6.689,-2.537,-0.767,-1.556,0.895,-2.219,9.723,-0.079,0.090,0.084,happy
3.32,48,43,48,43,44,64,48,43,1,2028,2505,2258,1368,2,3559,3901,1.654,2.931,7.420,-2.943,-1.162,-1.363,0.886,-2.332,9.821,-0.089,0.076,0.093,happy
3.33,26,23,25,26,24,22,24,25,0,2053,2433,2388,1365,0,3532,3963,1.879,4.360,7.250,-3.463,-1.125,-0.962,1.001,-2.507,9.761,-0.113,0.076,0.103,happy
3.34,0,0,0,0,0,0,0,0,1,2071,2480,2459,1485,1,3502,3916,1.240,5.981,7.441,-3.713,-1.262,-0.484,0.905,-2.579,9.780,-0.086,0.067,0.078,happy
3.35,0,0,0,0,0,0,0,0,1,2104,2551,2519,1499,0,3479,3887,1.369,6.634,7.582,-3.765,-1.351,-0.123,0.905,-2.461,9.761,-0.079,0.066,0.073,happy
3.36,0,0,0,0,0,0,0,0,2,2071,2567,2579,1513,3,3448,3865,1.295,7.585,8.274,-3.751,-1.333,0.298,0.879,-2.504,9.742,-0.070,0.078,0.079,happy
3.37,353,414,304,456,386,286,323,433,1,2075,2577,2611,1582,2,3465,3839,0.917,8.590,8.657,-3.782,-1.208,0.704,0.931,-2.547,9.740,-0.071,0.080,0.084,happy
3.38,359,374,321,401,372,317,345,395,35,2105,2613,2681,1638,1,3429,3831,0.091,9.349,8.250,-3.667,-1.041,1.242,0.800,-2.545,9.749,-0.062,0.091,0.089,happy
3.39,432,432,432,436,433,431,434,438,1,2165,2654,2824,1741,2,3411,3801,0.314,9.929,9.203,-3.420,-0.904,1.621,0.867,-2.954,9.752,-0.014,0.083,0.049,happy
3.40,400,399,401,401,400,400,400,399,1,2235,2659,2891,1805,2,3399,3795,0.227,9.869,9.649,-3.329,-0.631,1.802,0.778,-2.588,9.723,-0.021,0.082,0.054,happy
3.41,394,390,391,394,395,393,394,397,1,2310,2684,2943,1927,2,3421,3794,0.395,9.086,9.029,-3.024,-0.596,1.823,0.886,-2.679,9.615,0.011,0.063,0.032,happy
3.42,430,417,441,422,427,448,437,419,2,2420,2697,3046,2040,1,3357,3743,0.467,8.993,10.269,-2.643,-0.779,1.827,0.797,-2.447,9.742,-0.006,0.062,0.045,happy
3.43,0,0,0,0,0,0,0,0,0,2469,2702,3087,2131,2,3247,3689,0.378,8.643,10.760,-2.379,-0.750,1.777,0.804,-2.533,9.483,-0.011,0.040,0.042,happy
3.44,0,2,0,6,16,0,0,0,3,2460,2710,3128,2171,72,3183,3648,-1.504,9.594,12.412,-2.261,-0.790,1.713,0.606,-2.392,9.869,-0.048,0.022,0.033,happy
3.45,75,80,72,75,77,72,65,78,1,2511,2718,3159,2163,0,3051,3609,-4.305,9.182,11.710,-2.087,-1.119,1.393,0.757,-2.533,9.759,-0.029,0.031,0.037,happy
3.46,252,253,257,252,255,258,258,252,39,2485,2751,3213,2260,13,2807,3323,-5.169,8.918,9.699,-1.584,-1.473,0.639,0.864,-2.468,9.524,-0.038,0.015,0.030,happy
3.47,27,19,17,31,25,16,17,26,117,2547,2843,3319,2239,10,2623,2997,-4.298,12.000,11.768,-1.537,-1.708,-0.118,0.950,-2.792,9.390,-0.056,0.005,0.029,happy
3.48,122,116,123,123,122,120,123,128,233,2572,2874,3299,2251,43,2461,2783,-4.494,13.221,7.008,-2.061,-1.479,-0.979,0.986,-2.801,9.256,-0.067,-0.010,0.033,happy
3.49,107,112,109,96,103,108,110,107,445,2535,2927,3445,2287,51,2156,2470,-4.336,11.372,-2.136,-1.319,-1.516,-1.415,0.879,-2.650,9.527,-0.086,-0.014,0.018,happy
3.50,101,91,96,103,100,101,103,104,702,2618,2991,3516,2294,51,2168,1971,-2.583,13.154,-2.377,-0.102,-1.173,-1.393,0.673,-2.607,9.912,-0.146,-0.040,0.006,happy
3.51,104,100,103,111,105,98,103,102,935,2578,2984,3567,2325,47,1955,1429,19.613,19.613,-2.840,1.756,1.079,0.864,0.728,-2.634,9.914,-0.139,-0.041,0.011,happy
3.52,134,114,150,106,122,160,182,166,1229,2637,3002,3759,2315,47,1501,362,-2.454,-2.421,17.523,0.589,2.248,0.089,0.816,-2.715,9.586,-0.145,-0.023,0.016,happy
3.53,0,0,0,0,0,0,244,2147,1633,2572,3037,3701,1967,39,731,181,-5.066,-3.701,4.717,2.353,0.686,0.106,0.824,-2.550,9.675,-0.180,-0.042,0.017,happy
3.54,438,398,403,377,432,390,688,3202,1654,2550,3053,3689,1599,40,445,111,-8.595,4.341,12.874,2.730,0.108,-0.674,1.147,-2.583,9.780,-0.292,-0.061,-0.002,happy
3.55,382,368,377,349,368,379,1287,3501,2073,2412,3063,3801,597,7,29,137,5.049,5.368,9.230,2.498,-0.193,-0.400,0.594,0.536,9.941,-0.799,-0.131,-0.078,happy
3.56,387,379,385,390,385,382,2128,3569,2389,2259,2997,3795,153,3,39,41,0.603,6.675,12.706,1.885,-0.164,-0.230,1.037,-2.655,9.493,-1.108,-0.346,-0.303,happy
3.57,149,86,126,85,654,147,2609,3535,2617,2343,3160,3798,46,0,8,8,2.203,6.414,10.441,-0.119,0.698,-0.050,1.824,-3.060,9.725,-1.070,-0.339,-0.371,happy
3.58,255,186,123,72,1281,117,2795,3559,2791,2207,3066,3807,8,0,1,0,-1.233,5.243,12.617,0.257,0.605,-0.209,1.219,-2.830,9.792,-1.463,-0.175,-0.467,happy
3.59,408,377,135,137,1296,133,3009,3622,2876,1752,2904,3708,0,0,0,0,0.539,5.018,11.851,0.309,0.263,-0.098,2.054,-3.974,9.742,-1.852,0.277,-0.458,happy
3.60,326,591,462,94,1149,91,3174,3664,2797,1579,2999,3657,0,0,0,0,0.634,3.977,10.329,0.172,0.393,-0.133,1.566,-3.194,8.990,-2.114,0.474,-0.474,happy
3.61,481,1045,1419,254,1709,223,3374,3728,2339,1274,2940,3551,0,0,0,0,0.517,3.472,9.517,0.147,0.185,-0.063,1.020,-3.405,9.675,-2.716,0.669,-0.282,happy
3.62,566,1503,2192,462,2143,301,3504,3767,1239,777,2039,2696,0,0,8,20,0.476,3.603,9.507,0.168,0.124,-0.033,0.019,-2.416,12.503,-4.202,-0.142,0.938,happy
3.63,526,1776,2707,656,2495,301,3614,3782,762,233,1620,1634,0,5,0,0,0.551,3.706,9.737,0.155,0.047,0.010,-0.134,-6.483,17.803,-4.760,-0.918,1.401,happy
3.64,539,1952,2991,896,2945,303,3701,3803,229,0,0,19,0,0,0,0,0.627,3.500,9.615,0.084,-0.097,0.054,1.310,-9.167,13.542,-5.682,-1.392,2.204,happy
3.65,449,2121,3120,1072,3237,285,3750,3809,0,0,0,0,0,0,0,0,0.828,3.603,9.498,0.102,-0.122,0.039,1.116,-7.798,9.486,-4.417,-1.756,1.900,happy
3.66,420,2185,3215,1299,3451,240,3779,3792,29,0,2,0,2,0,0,0,0.769,3.661,9.445,0.103,-0.119,0.028,4.487,-6.529,13.123,-2.674,-0.743,2.401,happy
3.67,439,2302,3275,1382,3558,208,3801,3761,0,0,0,0,0,0,3,0,0.711,3.663,9.457,0.095,-0.129,0.017,1.511,-2.808,18.160,0.480,0.320,1.767,happy
3.68,494,2429,3336,1319,3645,203,3817,3710,0,0,0,0,0,0,0,0,0.797,3.529,9.443,0.071,-0.118,0.019,5.152,-0.572,8.200,1.743,0.208,1.009,happy
3.69,441,2499,3324,1172,3703,139,3810,3667,0,0,0,0,0,0,0,0,0.804,3.579,9.474,0.070,-0.106,0.011,5.291,-0.105,6.328,2.000,0.296,0.487,happy
3.70,639,2621,3389,1277,3778,347,3845,3665,0,0,0,0,0,0,0,0,0.668,3.220,9.275,0.133,-0.091,-0.012,5.289,-1.008,5.849,2.160,0.479,-0.068,happy
3.71,459,2594,3382,1191,3792,70,3783,3534,39,0,0,0,0,0,0,0,0.955,3.472,9.287,0.140,-0.069,-0.025,5.085,-2.200,7.400,2.419,0.521,-0.621,happy
3.72,458,2655,3424,1202,3828,0,3760,3450,0,0,0,0,0,0,0,0,1.001,3.505,9.222,0.153,-0.004,-0.044,3.268,-3.251,5.243,2.816,0.559,-1.475,happy
3.73,629,2694,3456,1391,3856,41,3766,3421,0,0,0,0,0,0,0,0,0.970,3.642,9.182,0.145,0.015,-0.047,2.495,-3.759,5.100,2.720,0.480,-1.630,happy
3.74,734,2751,3479,1526,3889,48,3759,3382,0,13,0,0,0,0,0,0,0.876,3.766,9.452,0.149,-0.011,-0.041,2.784,-4.973,7.518,2.692,0.307,-1.775,happy
3.75,816,2803,3531,1699,3925,70,3758,3328,0,0,0,0,0,0,0,0,0.934,3.606,9.345,0.122,-0.009,-0.033,4.269,-7.319,8.461,3.085,0.447,-2.432,happy
3.76,945,2915,3583,1850,3963,120,3755,3264,0,0,0,0,0,0,0,0,1.044,3.484,9.148,0.144,0.029,-0.055,3.764,-6.895,7.326,2.977,0.520,-2.753,happy
3.77,1238,3021,3655,2054,4005,320,3773,3212,0,0,0,0,0,0,0,0,0.790,3.807,9.357,0.134,0.061,-0.055,4.128,-8.396,10.465,2.789,0.229,-3.350,happy
3.78,1358,3094,3685,2214,4021,317,3752,3118,0,0,0,0,0,0,0,0,0.776,3.675,9.330,0.121,0.060,-0.054,4.626,-8.456,8.717,2.846,0.997,-3.881,happy
3.79,1511,3123,3723,2403,4029,311,3731,3011,9,0,2,5,25,0,0,0,0.907,3.575,9.100,0.146,0.104,-0.067,5.090,-8.871,8.384,2.600,1.163,-3.959,happy
3.80,1612,3157,3747,2588,4039,281,3687,2886,0,0,56,0,16,0,0,0,0.821,3.776,9.227,0.146,0.135,-0.060,11.368,-10.992,6.438,2.172,1.651,-4.821,happy
3.81,1765,3213,3774,2783,4037,255,3629,2678,0,0,0,0,0,0,0,16,0.783,3.783,9.230,0.115,0.187,-0.050,11.224,-12.134,4.187,0.974,1.559,-6.460,happy
3.82,1886,3267,3805,2961,4041,255,3526,2322,0,0,0,0,0,0,0,0,0.754,3.874,9.383,0.127,0.199,-0.051,9.912,-12.594,4.104,0.370,1.264,-7.039,happy
3.83,2028,3312,3828,3071,4033,241,3402,1813,0,0,0,0,0,0,0,0,0.752,3.795,9.448,0.146,0.161,-0.046,7.477,-12.799,5.930,-0.608,0.895,-7.160,happy
3.84,2098,3359,3856,3171,4029,239,3197,848,0,0,0,0,0,0,0,0,0.532,3.824,9.316,0.137,0.101,-0.040,3.598,-9.280,5.827,-0.593,1.195,-5.905,happy
3.85,2202,3405,3873,3230,4016,235,3045,342,0,0,0,0,0,0,0,0,0.687,3.845,9.311,0.128,0.084,-0.029,6.503,-8.313,5.011,-0.694,0.903,-5.161,happy
3.86,2278,3456,3891,3271,4003,236,2930,237,0,0,0,0,0,0,0,0,0.575,3.826,9.239,0.158,0.046,-0.030,9.507,-10.587,6.917,-0.744,0.571,-4.798,happy
3.87,2338,3504,3902,3259,3983,226,2736,236,0,0,0,0,0,0,0,0,0.608,3.931,9.210,0.188,0.034,-0.024,3.316,-8.464,7.183,-0.492,-0.140,-4.240,happy
3.88,2365,3540,3910,3235,3951,227,2479,235,0,0,0,0,0,0,0,0,0.584,3.982,9.187,0.183,0.025,-0.027,0.706,-6.349,6.268,-0.688,-0.636,-3.510,happy
3.89,2431,3582,3921,3214,3918,259,2214,251,0,0,0,0,0,0,16,10,0.680,4.032,9.179,0.152,0.027,-0.025,1.683,-4.939,5.808,-0.975,-0.192,-2.193,happy
3.90,2559,3651,3953,3268,3907,457,2085,465,0,0,0,0,0,0,0,0,0.654,3.915,9.098,0.145,0.036,-0.041,0.091,-2.071,1.525,-1.286,0.957,-0.959,happy
3.91,2559,3637,3943,3207,3803,438,1865,382,0,0,0,0,0,0,0,0,0.711,3.967,9.220,0.174,0.001,-0.042,-1.511,-19.613,-19.613,0.955,4.930,2.298,happy
3.92,2557,3664,3941,3151,3494,295,1478,313,0,0,0,0,564,0,345,0,0.649,4.128,9.258,0.202,0.013,-0.050,1.128,-19.613,19.613,-1.449,-0.617,-0.213,happy
3.93,2587,3662,3927,3039,3271,239,1142,240,0,799,58,0,349,0,583,0,0.596,4.254,9.187,0.152,0.017,-0.083,-9.957,3.445,19.051,-2.026,-0.907,1.052,happy
3.94,2662,3641,3914,2993,2973,229,762,231,0,1316,12,117,473,0,787,0,0.821,4.202,9.330,0.133,0.027,-0.054,5.933,-9.433,6.347,-0.446,0.312,0.832,happy
3.95,2726,3609,3887,2864,2657,307,645,346,0,1359,2559,1484,487,0,989,0,0.833,3.244,9.251,0.318,0.013,-0.033,1.219,-3.941,9.615,0.099,-0.038,0.120,happy
3.96,2736,3554,3865,2729,2380,473,754,475,52,1365,2684,1785,787,9,1873,151,0.792,4.116,9.201,0.439,0.066,-0.009,0.812,-2.449,9.857,0.233,0.113,0.034,happy
3.97,2627,3383,3715,2481,1991,352,452,352,72,1389,2689,1823,1182,21,2084,722,0.484,4.398,8.954,0.400,0.092,-0.006,1.326,-2.073,10.293,0.125,0.155,0.034,happy
3.98,2522,3179,3516,2122,1627,371,377,374,117,1545,2725,1951,1609,27,2359,1977,0.194,3.886,9.337,0.387,0.095,-0.222,0.814,-2.634,9.503,0.064,0.055,0.042,happy
3.99,2325,2960,3259,1266,1420,337,421,311,213,1496,2735,2189,1721,41,2583,2547,-3.010,1.666,10.882,0.419,-0.926,-1.923,0.725,-2.734,9.768,0.082,0.108,0.057,happy
4.00,1274,2585,2815,268,1235,271,539,270,362,1300,2735,2227,1637,51,2629,2778,-2.528,2.770,10.719,0.190,-2.539,-4.630,0.912,-2.806,9.819,0.068,0.123,0.043,happy
4.01,627,1991,1041,255,873,251,358,247,510,1071,2725,2517,1453,56,2741,3116,-4.724,5.152,11.353,0.099,-4.386,-6.745,0.749,-2.504,9.833,0.077,0.206,0.039,happy
4.02,267,1018,220,224,698,221,221,220,987,1068,2720,2642,1533,54,2905,3341,-1.547,11.159,6.357,-0.378,-5.063,-8.040,1.190,-3.668,9.522,-0.014,0.098,-0.108,happy
4.03,375,380,375,387,663,378,374,384,1191,1131,2725,2709,1597,56,2969,3407,-2.418,15.974,3.041,-0.645,-5.154,-8.722,1.302,-3.390,9.857,0.052,0.118,-0.010,happy
4.04,306,307,306,304,448,304,306,305,1491,1107,2725,2843,1785,43,3053,3485,5.748,15.692,3.958,-1.312,-3.968,-8.072,0.675,-2.715,9.883,0.017,0.087,-0.008,happy
4.05,286,284,284,291,308,283,285,288,1574,895,2915,3021,1799,47,3093,3508,7.367,9.328,4.168,-0.218,-2.696,-5.701,0.565,-2.531,9.850,-0.005,0.068,-0.017,happy
4.06,289,282,287,287,281,279,286,287,1608,905,2710,3039,1763,51,2963,3503,4.101,5.535,8.772,0.346,-2.062,-3.322,0.642,-2.478,9.754,-0.004,0.079,-0.010,happy
4.07,290,281,287,283,286,288,285,285,1644,991,2720,3117,1725,33,2827,3497,-1.906,2.495,10.367,0.579,-1.689,-2.086,0.512,-2.538,9.692,0.021,0.064,0.005,happy
4.08,278,282,279,281,279,278,280,283,1689,1151,2638,3166,1655,47,2643,3527,-6.879,0.936,11.097,0.471,-1.823,-1.998,0.697,-2.729,9.452,0.026,0.037,0.006,happy
4.09,271,272,272,272,272,272,274,272,1695,1109,2695,3197,1567,46,2541,3493,-8.279,0.354,11.159,0.296,-1.694,-2.690,0.558,-2.559,9.732,-0.001,0.043,0.003,happy
4.10,272,265,272,268,268,266,269,271,1626,1126,2682,3221,1560,58,2540,3478,-7.072,0.627,11.217,-0.067,-1.313,-3.445,0.591,-2.600,9.855,0.009,0.051,0.013,happy
4.11,266,267,265,265,264,268,265,265,1433,1182,2684,3223,1564,47,2571,3485,-4.180,0.443,11.049,-0.442,-0.885,-3.694,0.582,-2.602,9.668,0.027,0.064,0.023,happy
4.12,261,260,269,269,269,266,267,270,1405,1199,2697,3294,1619,49,2597,3575,-1.980,0.534,11.322,-0.849,-0.546,-3.449,0.529,-2.461,9.802,0.033,0.053,0.023,happy
4.13,263,264,268,271,259,259,262,263,1365,1056,2682,3350,1575,47,2633,3500,-0.838,0.642,10.994,-1.199,-0.475,-3.098,0.570,-2.478,9.740,0.017,0.048,0.023,happy
4.14,261,259,266,264,262,262,261,263,1469,1131,2679,3423,1588,51,2639,3527,0.098,0.690,10.434,-1.492,-0.441,-2.720,0.498,-2.552,9.823,-0.045,0.029,0.012,happy
4.15,261,257,266,255,261,269,266,256,1431,1181,2682,3307,1433,45,2540,3517,0.239,0.943,9.345,-1.620,-0.207,-2.446,0.594,-2.571,9.862,-0.050,0.026,0.013,happy
4.16,554,565,539,575,560,528,543,566,1445,1191,2643,3303,1199,47,2345,3447,-0.792,1.635,9.615,-1.361,0.213,-2.430,0.558,-2.591,9.689,-0.057,0.041,0.012,happy
4.17,12,9,26,11,12,30,17,7,1499,1195,2597,3356,967,47,2261,3351,-3.745,5.808,14.463,-1.481,-0.270,-2.374,0.510,-2.583,9.697,-0.046,0.025,0.005,happy
4.18,48,48,48,52,47,48,48,52,1674,1244,2602,3321,800,46,2259,3276,-2.813,5.289,10.975,-1.825,-0.602,-2.451,0.491,-2.576,9.890,-0.046,0.019,0.005,happy
4.19,259,258,246,268,257,255,256,261,1689,1321,2674,3371,627,47,2123,2999,-3.201,4.669,8.231,-1.500,-0.162,-2.751,0.522,-2.686,9.737,-0.040,0.025,0.011,happy
4.20,320,320,335,322,323,323,327,321,1719,1365,2720,3403,555,47,2118,2742,-4.104,7.922,12.625,-0.977,-0.844,-2.919,0.496,-2.607,9.883,-0.026,0.037,0.011,happy
4.21,62,63,64,61,59,64,63,60,1766,1437,2725,3438,627,46,2186,2635,-2.260,10.240,11.088,-1.598,-0.868,-3.155,0.524,-2.612,9.850,-0.033,0.051,0.010,happy
4.22,192,189,193,192,193,193,191,192,1721,1575,2733,3481,548,47,1997,2535,-2.701,8.619,4.104,-1.322,-0.584,-3.407,0.541,-2.569,9.823,-0.019,0.055,0.013,happy
4.23,186,185,191,193,187,183,186,189,1851,1611,2741,3500,659,47,2135,2419,-2.018,11.035,3.922,-0.473,-1.279,-3.356,0.570,-2.454,9.756,-0.026,0.080,0.015,happy
4.24,222,219,219,233,225,219,222,227,1871,1707,2784,3497,689,51,2072,2317,0.402,12.627,-0.821,0.233,-1.674,-2.580,0.455,-2.653,9.761,-0.018,0.078,0.025,happy
4.25,368,358,365,367,364,362,363,641,2063,1828,2802,3471,556,47,1915,2045,5.418,-1.111,-0.682,1.593,-1.498,-2.001,0.493,-2.698,9.984,-0.022,0.093,0.027,happy
4.26,335,335,339,326,333,338,337,2559,2221,1901,2805,3510,349,47,1687,1772,18.476,0.318,13.774,2.527,-2.138,-0.133,0.455,-2.598,9.819,-0.065,0.085,0.016,happy
4.27,0,0,0,0,0,0,503,3185,2205,1944,2812,3519,339,45,1445,1524,7.697,7.187,10.470,2.236,-0.427,-0.070,0.385,-2.574,10.139,-0.106,0.078,0.011,happy
4.28,0,0,0,0,0,0,1594,3522,2398,1907,2766,3508,283,47,603,791,-2.619,2.962,11.119,1.379,0.705,-0.431,0.558,-2.835,9.828,-0.208,0.083,-0.023,happy
4.29,185,192,165,194,811,145,2405,3739,2547,1325,2567,3479,11,0,0,275,-17.887,-4.231,11.696,1.306,-0.184,-0.565,1.164,-2.569,10.250,-0.687,0.107,-0.216,happy
4.30,176,208,132,121,1065,122,3041,3803,2615,1055,2439,3477,0,0,0,121,5.842,5.126,13.171,0.876,-0.330,-0.054,2.770,-2.579,9.998,-1.135,-0.160,-0.107,happy
4.31,721,676,543,388,1395,352,3303,3869,2648,115,2165,3465,0,0,0,27,-0.381,2.933,9.780,0.303,0.019,0.013,0.141,-4.022,9.340,-0.979,0.239,-0.246,happy
4.32,842,861,1071,320,1744,324,3419,3872,2787,0,1502,3298,0,0,0,0,0.457,3.546,10.003,0.264,0.085,-0.062,1.614,-3.883,9.912,-1.372,0.780,0.074,happy
4.33,1040,1017,1639,450,1984,337,3504,3882,2604,17,4095,2943,0,3,2938,1,0.663,3.699,9.682,0.229,0.120,-0.091,3.136,-5.423,11.068,-1.374,1.386,0.652,happy
4.34,1265,1360,2097,746,2227,467,3583,3921,40,0,17,1094,11,13,997,0,0.637,3.345,9.299,0.233,0.207,-0.165,3.759,-3.958,11.571,-1.019,2.645,3.106,happy
4.35,1257,1425,2406,854,2256,294,3583,3905,0,0,0,0,0,0,0,0,0.251,3.658,9.246,0.187,0.169,-0.140,17.303,-14.205,7.444,1.123,6.680,3.475,happy
4.36,1355,1553,2641,1147,2345,266,3583,3885,0,0,0,0,0,0,0,0,0.242,3.606,9.448,0.161,0.165,-0.100,11.507,-12.186,19.613,-0.277,6.161,0.000,happy
4.37,1489,1648,2789,1491,2391,711,3606,3888,0,8,0,0,0,0,0,0,0.306,3.670,9.448,0.145,0.151,-0.063,8.954,-7.046,5.083,0.639,2.243,-4.075,happy
4.38,1614,1795,2934,1846,2453,801,3583,3875,0,0,0,0,0,0,0,0,0.225,3.608,9.455,0.125,0.119,-0.043,3.886,-6.584,5.148,-0.485,2.426,-5.039,happy
4.39,1671,1890,3017,2197,2523,941,3568,3855,0,0,0,0,0,0,0,0,0.311,3.546,9.213,0.127,0.087,-0.045,2.037,-6.902,8.480,-0.342,2.194,-5.184,happy
4.40,1740,1997,3150,2389,2527,678,3494,3801,0,0,0,0,0,0,0,0,0.220,3.757,9.416,0.107,0.055,-0.030,0.354,-4.848,7.223,-0.018,1.473,-5.156,happy
4.41,1905,2101,3237,2532,2629,585,3451,3758,0,0,0,0,0,0,0,0,0.110,3.582,9.349,0.105,0.034,-0.025,-1.532,-3.572,7.592,0.010,0.981,-4.750,happy
4.42,2010,2180,3311,2649,2695,438,3417,3722,0,0,0,0,0,0,5,0,0.335,3.709,9.316,0.088,0.032,-0.024,-1.743,-3.280,8.765,0.265,0.900,-4.362,happy
4.43,2148,2278,3383,2762,2773,272,3389,3680,0,0,0,0,1,1,0,0,0.232,3.654,9.318,0.099,0.004,-0.024,-2.583,-2.646,10.582,0.879,1.046,-3.255,happy
4.44,2223,2346,3433,2816,2854,239,3360,3642,0,0,28,0,0,0,0,0,0.306,3.642,9.301,0.092,0.004,-0.011,-1.008,-2.270,10.652,1.510,0.695,-2.157,happy
4.45,2320,2453,3482,2896,2925,323,3342,3612,3,0,0,0,0,0,0,0,0.247,3.680,9.258,0.099,-0.004,-0.014,1.147,-2.816,10.465,1.792,0.555,-1.865,happy
4.46,2435,2559,3537,2966,3014,258,3325,3559,0,0,0,0,0,0,0,0,0.302,3.778,9.313,0.080,-0.009,-0.001,4.130,-3.888,9.797,2.222,0.520,-1.892,happy
4.47,2497,2640,3583,3041,3101,242,3282,3502,0,1,0,0,0,0,0,0,0.220,3.596,9.203,0.091,-0.010,0.005,5.138,-4.841,8.756,2.312,0.131,-2.421,happy
4.48,2550,2704,3631,3114,3161,256,3184,3429,0,0,0,0,0,0,0,0,0.311,3.670,9.347,0.093,-0.000,-0.003,4.882,-5.411,8.626,2.259,-0.085,-2.664,happy
4.49,2586,2783,3669,3145,3210,272,2991,3322,0,0,0,0,9,0,0,0,0.326,3.757,9.364,0.110,0.009,-0.012,4.307,-6.337,9.620,2.136,-0.397,-2.953,happy
4.50,2642,2859,3697,3189,3230,304,2851,3188,0,0,0,0,0,0,0,6,0.297,3.721,9.256,0.119,0.013,-0.009,3.670,-6.895,11.430,2.216,-0.665,-3.064,happy
4.51,2706,2911,3729,3227,3248,304,2704,3006,0,0,0,0,3,0,0,0,0.294,3.701,9.340,0.119,0.026,-0.008,3.165,-6.936,11.602,2.292,-0.758,-3.057,happy
4.52,2704,2930,3751,3260,3232,306,2615,2746,0,0,0,0,0,0,0,0,0.314,3.764,9.232,0.124,0.044,-0.009,1.767,-6.958,11.554,2.418,-0.680,-2.796,happy
4.53,2735,2975,3771,3294,3223,304,2457,2207,0,0,0,0,0,0,0,0,0.318,3.821,9.230,0.132,0.050,-0.003,-0.692,-6.275,11.253,2.305,-0.548,-2.123,happy
4.54,2720,3007,3794,3327,3183,295,2283,1559,0,0,0,0,0,3,0,0,0.309,3.953,9.254,0.117,0.075,-0.002,-2.169,-6.902,12.383,2.186,-0.852,-1.713,happy
4.55,2785,3024,3820,3361,3167,291,2079,1154,0,6,0,0,0,0,0,0,0.287,3.910,9.392,0.135,0.093,0.009,-0.879,-7.321,9.862,1.752,-1.173,-0.973,happy
4.56,2853,3031,3840,3396,3026,289,1840,755,0,0,74,0,0,0,0,0,0.244,3.869,9.294,0.138,0.118,0.018,0.160,-10.628,12.081,1.113,-1.496,-0.734,happy
4.57,2896,3086,3858,3449,2815,282,1563,283,0,0,0,0,18,0,0,0,0.177,3.802,9.215,0.180,0.132,0.035,1.044,-14.143,15.780,1.426,-1.808,-0.842,happy
4.58,2962,3123,3888,3511,2704,277,1072,277,0,0,2,0,0,0,0,0,0.273,3.800,9.261,0.208,0.157,0.050,1.274,-11.576,2.880,1.378,-0.697,-1.600,happy
4.59,3088,3172,3917,3569,2554,272,653,273,0,0,5,0,0,0,0,0,0.261,3.979,9.325,0.256,0.187,0.052,-4.973,-13.285,1.094,-0.071,0.014,-1.623,happy
4.60,3168,3181,3933,3632,2293,273,404,272,0,22,0,0,0,0,0,0,0.364,4.056,9.347,0.355,0.183,0.072,-6.479,-13.800,1.970,-0.657,-0.386,-1.216,happy
4.61,3210,3168,3957,3698,2114,270,272,270,0,0,0,0,0,1,0,11,0.462,3.548,9.232,0.378,0.113,0.043,9.878,-7.815,10.975,-4.735,0.104,-2.199,happy
4.62,3312,3109,3981,3730,1759,267,270,270,53,0,0,0,0,0,0,0,-0.254,3.663,9.029,0.623,0.155,0.193,-1.932,7.604,12.323,-1.549,1.256,-1.102,happy
4.63,3456,3008,3979,3761,1383,266,266,266,0,0,0,16,0,25,0,83,0.314,3.970,8.997,0.775,0.115,0.278,-4.731,5.562,4.266,-1.989,0.707,-0.269,happy
4.64,3600,2948,3994,3802,1152,261,267,261,0,0,0,0,0,0,0,1928,0.373,3.881,8.988,0.996,0.167,0.377,-5.986,-1.896,11.763,-3.606,-0.699,0.821,happy
4.65,3708,2730,3990,3770,1121,261,266,264,0,0,0,0,0,0,871,3095,0.302,4.539,8.961,1.237,0.317,0.458,3.958,-5.241,9.706,-2.978,-0.609,0.827,happy
4.66,3779,2550,3981,3758,817,258,261,256,0,0,0,0,0,0,1213,3273,-0.017,4.156,8.614,1.506,0.399,0.474,4.520,-5.796,12.318,-2.532,-0.534,0.757,happy
4.67,3823,2583,3930,3710,550,262,256,258,0,0,0,0,0,0,1948,3466,0.170,4.544,8.902,1.804,0.521,0.506,0.740,-1.070,9.340,0.299,1.938,0.394,happy
4.68,3826,2463,3856,3633,257,253,257,261,60,0,10,0,0,0,2143,3542,0.917,5.717,8.746,2.232,0.589,0.491,-2.116,-1.209,11.542,-0.152,1.207,0.378,happy
4.69,3776,2288,3717,3472,251,255,257,255,0,0,0,0,0,0,2311,3577,0.122,5.605,8.109,2.431,0.738,0.434,0.508,-2.492,10.561,0.043,0.789,0.211,happy
4.70,3605,2272,3647,2550,242,245,249,228,0,0,2,0,47,0,2455,3671,-0.369,5.217,9.567,2.871,0.265,0.292,1.788,-2.863,9.337,0.003,0.540,0.279,happy
4.71,3231,2017,3255,2103,290,303,302,306,0,0,74,0,201,0,2792,3740,-0.014,8.112,12.057,3.809,-1.077,-0.067,1.824,-2.468,9.981,0.046,0.478,0.212,happy
4.72,2352,1245,2657,958,421,421,419,412,0,288,5,125,303,0,2891,3766,-1.089,7.659,12.627,5.283,-2.465,-0.975,0.613,-2.818,10.422,0.039,0.263,0.151,happy
4.73,886,23,296,0,0,0,0,0,1,722,263,355,394,2,3111,3807,-2.617,8.892,12.929,6.703,-2.204,-1.657,0.826,-2.837,9.979,0.036,0.124,0.049,happy
4.74,576,0,0,0,0,0,0,0,5,941,1492,874,663,3,3173,3832,-1.178,15.038,10.558,6.385,-3.003,-1.141,0.790,-2.638,9.795,0.024,0.122,-0.002,happy
4.75,33,0,0,0,0,0,0,0,2,1140,1586,1096,981,1,3231,3835,1.173,10.436,8.569,4.804,-2.672,-1.629,0.778,-2.370,9.718,0.047,0.126,0.056,happy
4.76,0,0,0,0,0,0,0,0,55,1397,1696,1379,1179,3,3310,3868,2.820,7.803,17.032,1.647,-1.435,-2.710,0.733,-2.437,9.548,0.014,0.111,0.083,happy
4.77,0,0,0,0,0,0,0,0,5,1500,2116,1751,1513,1,3389,3882,-5.200,11.712,19.613,-0.321,-0.871,-2.541,0.936,-2.574,9.716,0.017,0.139,0.051,happy
4.78,0,0,0,0,0,0,0,0,2,1641,2203,1932,1803,22,3499,3895,0.900,0.639,9.560,-1.423,-1.092,-2.628,0.668,-2.356,9.955,-0.001,0.082,0.039,happy
4.79,0,0,0,0,0,0,0,0,1,1643,2208,2027,1918,2,3547,3887,0.912,1.281,9.385,-1.899,-1.118,-2.679,0.690,-2.428,9.859,-0.015,0.070,0.039,happy
4.80,0,0,0,0,0,0,0,0,1,1663,2331,2175,1977,3,3575,3880,1.585,1.178,7.913,-2.194,-1.234,-2.593,0.615,-2.241,9.840,-0.029,0.079,0.048,happy
4.81,0,0,0,0,0,0,0,0,1,1627,2428,2237,2069,5,3591,3838,2.210,1.549,6.699,-2.495,-1.292,-2.411,0.582,-2.188,9.797,-0.063,0.067,0.059,happy
4.82,0,0,0,0,0,0,0,0,1,1686,2556,2293,2059,0,3573,3803,2.514,1.721,5.895,-2.552,-1.300,-2.185,0.627,-2.394,9.735,-0.087,0.052,0.057,happy
4.83,0,0,0,0,0,0,0,0,2,1704,2651,2363,2099,3,3560,3752,2.354,2.356,6.682,-2.625,-1.397,-1.874,0.670,-2.370,9.838,-0.092,0.041,0.042,happy
4.84,0,0,0,0,0,0,0,0,11,1734,2674,2443,2127,1,3549,3699,2.071,3.840,8.444,-2.780,-1.567,-1.520,0.785,-2.377,9.622,-0.100,0.042,0.042,happy
4.85,0,0,0,0,0,0,0,0,2,1743,2697,2533,2085,2,3503,3639,1.882,4.867,9.385,-3.057,-1.715,-1.170,0.713,-2.504,9.783,-0.093,0.042,0.041,happy
4.86,0,0,0,0,0,0,0,0,0,1799,2695,2601,2101,2,3483,3558,1.647,5.672,9.019,-3.282,-1.862,-0.746,0.630,-2.528,9.625,-0.085,0.039,0.044,happy
4.87,0,0,0,0,0,0,0,0,0,1792,2531,2661,2094,3,3453,3515,1.757,5.578,7.714,-3.340,-1.882,-0.280,0.608,-2.500,9.828,-0.082,0.040,0.037,happy
4.88,0,0,0,0,0,0,0,0,1,1867,2712,2771,2095,0,3435,3482,1.401,6.132,8.272,-3.187,-1.834,0.206,0.646,-2.519,9.907,-0.075,0.041,0.034,happy
4.89,0,0,0,0,0,0,0,0,0,1845,2700,2844,2187,1,3411,3371,0.639,7.412,10.238,-3.145,-1.702,0.650,0.642,-2.598,9.912,-0.082,0.035,0.029,happy
4.90,0,0,0,0,0,0,0,0,19,1913,2692,2924,2183,3,3387,3427,-0.383,8.418,11.044,-3.264,-1.566,1.013,0.704,-2.911,9.792,-0.052,0.042,0.026,happy
4.91,0,0,0,0,0,0,0,0,2,2013,2715,2923,2246,3,3368,3402,-1.271,7.875,9.017,-3.212,-1.328,1.354,0.536,-2.514,9.778,-0.045,0.030,0.027,happy
4.92,0,0,0,0,0,0,0,0,1,2035,2874,3087,2263,3,3353,3366,-1.290,7.671,9.122,-3.041,-1.176,1.438,0.575,-2.533,9.816,-0.031,0.038,0.029,happy
4.93,0,0,0,0,0,0,0,0,7,2055,2735,3028,2293,3,3339,3327,-1.350,7.592,9.996,-2.901,-1.058,1.485,0.517,-2.492,9.804,-0.017,0.030,0.033,happy
4.94,0,0,0,0,0,0,0,0,19,2125,2751,3123,2323,8,3371,3253,-1.235,7.817,10.214,-2.803,-1.006,1.500,0.527,-2.538,9.814,-0.002,0.014,0.033,happy
4.95,0,0,0,0,0,0,0,0,43,2311,2782,3160,2447,11,3134,3140,-0.611,8.028,10.726,-2.681,-0.829,1.514,0.539,-2.437,9.814,-0.017,0.009,0.030,happy
4.96,0,0,0,0,0,0,0,0,89,2358,2838,3253,2520,21,2888,2889,-0.316,7.633,10.041,-2.505,-0.431,1.533,0.606,-2.569,9.919,-0.042,0.003,0.033,happy
4.97,0,0,0,0,0,0,0,0,169,2431,2886,3320,2571,27,2854,2767,-2.320,6.902,9.141,-2.111,-0.141,1.450,0.637,-2.562,9.713,-0.060,0.006,0.030,happy
4.98,0,0,0,0,0,0,0,0,157,2449,2899,3434,2639,37,2623,2645,-4.276,8.739,13.012,-1.613,-0.693,1.174,0.599,-2.591,9.845,-0.071,0.003,0.032,happy
4.99,0,0,0,0,0,0,0,0,505,2464,2966,3499,2602,57,2445,2281,-2.569,10.278,12.548,-1.711,-1.271,0.943,0.663,-2.509,9.871,-0.120,-0.018,0.026,happy
5.00,0,0,0,0,0,0,0,0,613,2577,2971,3539,2568,82,2311,2089,0.237,11.514,10.338,-1.574,-1.082,0.727,0.737,-2.552,9.742,-0.111,-0.022,0.021,happy
5.01,0,0,0,0,0,0,0,0,1062,2611,3007,3635,2491,48,1955,811,0.900,14.231,9.543,-1.865,-0.675,0.677,0.625,-2.665,9.689,-0.152,-0.031,0.016,happy
5.02,0,0,0,0,0,0,0,0,1192,2621,3027,3719,2322,37,1495,159,-0.728,12.601,0.304,-1.822,-0.682,0.718,0.615,-2.744,9.644,-0.172,0.004,-0.002,happy
5.03,0,0,0,0,0,0,0,0,1332,2653,3058,3771,2185,39,1162,120,-2.643,13.144,-4.063,-0.389,-0.877,0.517,0.716,-2.866,9.639,-0.132,0.009,0.010,happy
5.04,0,0,0,0,0,0,0,0,1829,2713,3089,3887,1919,31,264,121,7.228,12.524,-13.051,2.488,-0.030,1.910,0.488,-2.648,9.725,-0.151,0.018,0.003,happy
5.05,0,0,0,0,0,0,0,443,2055,2779,3099,3928,1099,30,157,152,2.265,0.515,17.942,0.667,3.520,0.794,0.259,-1.894,9.610,-0.654,0.060,-0.205,happy
5.06,0,0,0,0,0,0,227,2592,2173,2873,3127,4015,691,9,90,33,-19.613,-6.029,6.072,3.269,-0.773,0.931,1.104,-2.909,9.586,-0.590,-0.005,-0.162,happy
5.07,449,469,432,497,464,418,751,3334,2383,2861,3140,3983,251,0,5,0,-7.058,7.805,14.001,3.028,-0.330,-0.861,1.276,-2.624,9.359,-0.776,-0.185,-0.157,happy
5.08,49,45,55,42,48,57,1437,3483,2584,2796,3137,3979,71,0,0,0,7.630,5.078,5.997,2.736,-0.227,-0.461,1.295,-2.856,9.876,-1.044,-0.497,-0.372,happy
5.09,242,240,234,245,912,242,2368,3558,2605,2761,3135,3946,7,0,0,0,9.359,19.613,14.360,0.729,1.495,-0.476,1.097,-2.626,9.498,-1.240,-0.542,-0.381,happy
5.10,557,350,202,171,1122,208,2653,3568,2683,2555,3140,3859,0,0,0,0,0.304,5.856,14.274,0.739,1.272,-0.635,1.298,-3.134,9.323,-1.868,-0.265,-0.502,happy
5.11,841,679,405,96,1344,142,2857,3567,2410,2222,3142,3752,0,0,0,0,1.810,5.399,11.210,0.365,0.511,-0.198,2.219,-3.838,9.203,-2.498,0.318,-0.592,happy
5.12,1138,1191,1429,335,1611,384,3023,3632,2173,2055,3053,3679,0,0,0,0,0.812,3.903,9.905,0.280,0.378,-0.184,1.537,-3.903,9.493,-2.576,0.660,-0.495,happy
5.13,1153,1326,2102,588,1648,86,3104,3654,1575,909,2894,3247,0,14,0,0,0.879,4.003,9.515,0.177,0.301,-0.207,1.190,-1.824,12.438,-3.835,1.044,0.142,happy
5.14,1257,1559,2610,1136,1939,87,3174,3685,712,173,1604,1959,13,0,0,0,0.103,3.780,9.400,0.183,0.152,-0.145,1.903,-8.025,14.799,-5.570,0.543,1.438,happy
5.15,1407,1889,2879,1569,2181,128,3282,3709,475,0,5,1141,0,0,0,0,0.093,4.228,9.713,0.073,0.048,-0.011,0.929,-8.495,13.949,-6.087,0.102,2.233,happy
5.16,1646,2127,3064,2089,2499,222,3402,3741,63,0,0,0,0,0,0,0,0.330,3.536,9.096,0.122,-0.026,0.014,1.214,-9.546,11.753,-6.379,-0.461,2.752,happy
5.17,1677,2187,3184,2256,2685,96,3429,3714,0,0,0,0,0,0,0,0,0.443,3.711,9.416,0.087,0.035,-0.021,3.225,-9.711,12.043,-4.030,-0.471,2.884,happy
5.18,1854,2320,3299,2483,2827,550,3474,3711,0,0,0,0,0,0,1,0,0.364,3.637,9.431,0.106,0.066,-0.032,5.480,-4.092,18.076,-0.418,0.779,3.614,happy
5.19,2013,2462,3376,2628,2943,908,3489,3671,0,0,0,0,0,0,0,0,0.304,3.768,9.397,0.075,0.047,-0.019,7.094,3.043,13.451,0.979,-0.997,1.406,happy
5.20,2151,2546,3440,2764,3037,208,3441,3618,0,0,0,0,0,0,0,0,0.297,3.711,9.309,0.096,0.041,-0.019,4.736,-0.429,8.746,2.220,0.189,0.691,happy
5.21,2224,2627,3499,2848,3095,135,3359,3506,0,0,0,0,0,0,0,0,0.345,3.697,9.290,0.106,0.029,-0.016,3.862,-0.474,7.578,2.534,0.034,0.293,happy
5.22,2301,2672,3554,2912,3115,137,3251,3383,0,0,0,0,0,0,0,0,0.385,3.692,9.172,0.127,0.022,-0.015,3.158,-1.350,7.616,2.975,-0.386,-0.220,happy
5.23,2353,2767,3601,3013,3132,112,3123,3248,0,0,0,0,0,0,0,0,0.362,3.749,9.237,0.116,0.035,-0.013,2.186,-3.797,9.744,3.658,-0.831,-0.681,happy
5.24,2417,2823,3648,3095,3146,137,2997,3099,0,0,0,0,0,0,0,0,0.445,3.713,9.246,0.115,0.046,-0.021,1.860,-4.240,8.547,3.878,-0.807,-0.775,happy
5.25,2512,2875,3678,3179,3152,139,2832,2881,0,0,0,0,0,0,0,0,0.254,3.778,9.249,0.127,0.064,-0.017,0.778,-4.982,8.866,3.875,-0.943,-0.911,happy
5.26,2602,2919,3726,3248,3135,131,2519,2530,0,0,0,0,4,0,0,0,0.352,3.723,9.036,0.114,0.087,-0.018,1.214,-6.208,11.021,3.908,-1.351,-1.184,happy
5.27,2674,2960,3755,3301,3113,128,2234,2031,0,0,0,0,0,0,0,0,0.213,3.864,9.292,0.106,0.094,-0.012,1.908,-6.005,10.707,3.912,-1.295,-1.389,happy
5.28,2758,3008,3783,3360,3083,129,2083,1597,0,0,0,0,0,0,0,33,0.261,3.919,9.354,0.111,0.092,-0.007,0.532,-5.636,11.471,3.775,-1.121,-1.651,happy
5.29,2845,3042,3807,3399,3022,124,1742,830,0,0,0,29,0,0,0,0,0.220,3.881,9.306,0.139,0.091,0.003,-0.728,-4.851,11.313,3.564,-1.118,-1.389,happy
5.30,2871,3092,3837,3440,2905,120,1374,118,0,0,0,0,0,0,0,0,0.304,3.895,9.206,0.153,0.103,0.001,-0.864,-4.829,12.148,3.357,-1.214,-1.142,happy
5.31,2899,3133,3858,3483,2764,116,1043,119,0,0,0,0,51,0,0,0,0.192,3.915,9.268,0.156,0.124,0.004,0.086,-6.510,16.889,3.363,-1.408,-0.643,happy
5.32,2966,3184,3881,3531,2614,117,654,117,0,0,0,0,0,0,0,0,0.268,3.852,9.175,0.159,0.133,0.002,-0.457,-8.095,14.858,3.102,-1.554,-0.556,happy
5.33,3024,3218,3897,3568,2512,115,398,114,0,0,0,0,0,0,0,0,0.227,3.802,9.354,0.237,0.145,0.017,-1.267,-9.572,11.298,2.543,-1.677,-0.544,happy
5.34,3085,3257,3931,3618,2303,113,197,113,0,0,0,0,69,0,0,0,0.223,4.082,9.148,0.264,0.126,0.029,-0.500,-16.817,13.939,1.154,-3.673,-0.732,happy
5.35,3154,3292,3952,3671,2033,113,113,113,0,0,5,0,0,59,0,0,0.180,4.015,8.921,0.301,0.121,0.043,2.004,-19.613,7.791,2.143,-2.257,-1.096,happy
5.36,3237,3333,3965,3707,1623,112,112,113,3,0,0,0,0,11,0,0,-0.002,3.436,8.985,0.387,0.116,0.115,-2.868,-17.245,-1.089,1.670,-1.083,-1.484,happy
5.37,3349,3343,3985,3743,1585,131,132,133,0,0,0,0,0,9,0,0,0.148,3.917,9.048,0.545,0.127,0.174,-8.224,-19.266,-5.315,-0.405,0.470,-0.814,happy
5.38,3450,3344,3999,3776,1328,130,135,131,0,25,0,0,0,0,0,12,0.208,4.144,9.041,0.665,0.129,0.231,14.514,-1.120,2.837,-2.223,2.763,-0.319,happy
5.39,3575,3245,4009,3791,1136,128,130,129,0,0,0,0,0,0,11,0,0.292,4.120,9.179,0.850,0.175,0.324,8.155,1.499,19.613,-0.748,3.588,-0.440,happy
5.40,3671,2835,4016,3799,621,144,144,143,0,0,2,0,0,12,155,665,0.735,3.931,9.120,1.192,0.244,0.421,-9.893,3.814,3.745,-4.695,-0.497,-0.280,happy
5.41,3749,2712,4005,3788,404,145,141,144,0,0,0,30,0,0,428,2925,0.354,4.257,8.789,1.674,0.470,0.499,-7.906,-7.417,17.044,-3.541,-0.390,1.629,happy
5.42,3789,2559,3965,3743,145,144,144,147,0,3381,40,0,0,1,0,3351,0.359,4.774,8.655,2.032,0.637,0.564,5.425,-2.866,5.090,-2.911,-0.227,1.118,happy
5.43,3822,2599,3915,3699,320,321,322,330,0,0,0,21,0,0,2107,3641,0.218,5.021,8.432,2.338,0.785,0.636,4.530,-8.667,17.957,0.560,3.159,0.060,happy
5.44,3790,2442,3807,3583,346,337,342,345,0,253,0,0,0,0,2361,3871,0.824,5.490,8.124,2.718,1.063,0.673,-0.912,-3.294,12.345,0.166,1.401,0.275,happy
5.45,3519,2103,3632,2941,37,48,42,43,0,567,0,0,0,0,2519,3804,0.694,5.648,9.230,3.269,0.712,0.475,0.278,-3.144,15.476,-0.209,0.538,0.143,happy
5.46,2846,1805,3289,2081,150,144,151,123,0,519,2,0,153,0,2787,3868,-0.596,5.480,12.268,4.646,-0.932,-0.099,1.166,-2.708,11.617,-0.061,0.546,0.125,happy
5.47,1507,620,2428,955,163,197,170,179,0,975,0,341,329,0,2973,3927,-0.503,8.392,13.920,6.146,-1.191,-1.402,0.855,-2.447,10.266,-0.020,0.396,0.247,happy
5.48,626,205,362,238,158,153,158,158,0,1072,17,943,362,0,3014,3945,-3.692,9.488,12.922,7.976,-1.737,-2.083,2.385,-2.351,9.507,-0.048,0.516,0.220,happy
5.49,63,39,45,45,40,43,45,43,1,1524,1374,1740,616,4,3187,3975,2.334,11.293,18.598,4.743,-1.483,-2.140,0.694,-2.423,9.749,0.034,0.104,0.035,happy
5.50,23,26,23,49,27,25,7,22,1,1734,2236,2013,1241,1,3335,3991,-3.682,12.840,19.613,0.302,-0.283,-1.841,0.871,-2.471,10.075,0.008,0.147,0.080,happy
5.51,83,101,65,119,87,60,74,112,0,1818,2229,2245,1331,0,3401,3987,2.808,1.444,10.817,-1.255,-0.595,-1.554,1.013,-2.660,9.991,-0.008,0.148,0.077,happy
5.52,0,0,0,0,0,0,0,0,29,1915,2372,2459,1685,3,3449,3981,1.207,0.122,8.849,-2.074,-0.639,-1.496,0.790,-2.579,10.020,-0.020,0.163,0.101,happy
5.53,0,0,0,0,0,0,0,0,43,2042,2546,2660,1726,0,3474,3947,1.173,1.341,8.645,-2.647,-1.096,-1.420,0.651,-2.344,9.972,-0.028,0.113,0.033,happy
5.54,0,0,0,0,0,0,0,0,2,2053,2554,2695,1753,3,3444,3983,1.362,2.339,8.236,-3.020,-1.313,-1.330,0.742,-2.638,9.811,-0.054,0.124,0.050,happy
5.55,0,0,0,0,0,0,0,0,1,2056,2567,2733,1695,3,3413,3911,1.520,2.512,7.714,-3.339,-1.422,-1.155,0.757,-2.540,9.852,-0.072,0.103,0.052,happy
5.56,0,0,0,0,0,0,0,0,0,2123,2569,2800,1699,2,3373,3857,1.573,3.428,7.532,-3.532,-1.428,-0.967,0.778,-2.598,9.673,-0.069,0.097,0.038,happy
5.57,0,0,0,0,0,0,0,0,0,2131,2556,2861,1675,3,3301,3799,1.322,4.623,8.497,-3.684,-1.461,-0.771,0.649,-2.516,9.756,-0.098,0.076,0.036,happy
5.58,0,0,0,0,0,0,0,0,1,2137,2597,2939,1684,3,3245,3651,1.068,5.832,8.973,-3.844,-1.573,-0.494,0.555,-2.535,9.809,-0.072,0.047,0.010,happy
5.59,80,86,64,114,77,53,67,101,7,2172,2643,2984,1655,5,3183,3723,0.998,6.325,8.576,-3.947,-1.686,-0.141,0.702,-2.401,9.663,-0.080,0.070,0.018,happy
5.60,187,219,164,263,203,151,176,240,25,2148,2720,3064,1613,8,3094,3679,0.187,7.669,9.857,-3.888,-1.803,0.495,0.615,-2.471,9.807,-0.068,0.068,0.021,happy
5.61,100,100,95,101,97,93,99,99,72,2217,2741,3193,1605,21,2811,3568,0.182,8.756,9.979,-3.858,-1.710,1.115,0.615,-2.521,9.704,-0.079,0.009,0.020,happy
5.62,129,123,140,128,128,128,133,128,85,2239,2851,3303,1639,21,2490,3392,1.051,8.655,9.100,-3.591,-1.229,1.583,0.728,-2.813,9.488,-0.066,0.040,0.022,happy
5.63,130,122,126,127,128,127,127,126,141,2247,2869,3373,1595,33,2415,3272,1.022,8.899,10.482,-3.296,-0.994,1.979,0.656,-2.655,9.814,-0.074,0.034,0.027,happy
5.64,128,126,126,128,127,128,128,128,373,2303,2915,3423,1590,46,2183,2933,1.283,9.165,11.377,-3.111,-0.751,2.237,0.577,-2.660,9.802,-0.072,0.009,0.027,happy
5.65,135,135,131,120,128,128,128,94,476,2457,2961,3527,1608,49,1973,2536,0.500,9.141,11.502,-2.925,-0.356,2.299,0.634,-2.713,9.728,-0.039,-0.000,0.031,happy
5.66,396,397,396,396,398,393,397,396,581,2491,2971,3567,1581,47,1945,2393,-2.102,9.723,13.068,-2.693,-0.563,2.208,0.680,-2.562,9.744,-0.062,-0.019,0.024,happy
5.67,321,317,321,316,319,321,321,317,813,2501,2999,3672,1565,59,1628,1914,-3.012,10.391,12.230,-2.362,-1.120,2.051,0.749,-2.849,9.749,-0.093,-0.026,0.015,happy
5.68,278,259,295,241,271,302,288,252,1012,2552,3012,3764,1595,51,1371,723,-1.460,14.284,13.745,-2.042,-1.054,1.609,0.639,-2.684,9.610,-0.104,-0.042,0.017,happy
5.69,489,491,485,482,485,489,492,483,1341,2586,3022,3804,1568,47,1101,380,0.512,15.577,7.556,-2.352,-0.589,1.455,0.747,-2.892,9.816,-0.121,-0.038,0.008,happy
5.70,427,423,426,423,427,429,429,431,1529,2654,3053,3879,1589,36,396,147,-3.539,16.570,-1.137,-1.738,-0.662,0.991,0.706,-2.703,9.773,-0.097,-0.034,0.023,happy
5.71,189,205,209,208,208,207,208,208,1807,2695,3068,3959,1133,29,163,169,-4.915,16.841,-5.274,-0.414,-1.173,0.541,0.864,-2.887,9.809,-0.191,-0.002,-0.017,happy
5.72,218,209,214,210,210,209,211,209,1907,2697,3089,3995,827,19,71,139,3.318,15.256,-14.499,2.527,-0.159,1.300,0.946,-2.725,9.802,-0.312,-0.039,-0.075,happy
5.73,187,180,183,185,183,180,275,1244,2040,2675,3094,4041,348,2,9,57,1.645,1.815,19.613,0.310,3.266,-0.488,1.085,-2.672,9.668,-0.617,-0.047,-0.128,happy
5.74,0,0,0,0,0,0,368,2993,2398,2607,3124,4067,163,0,1,7,-12.433,-2.322,2.667,4.140,-1.725,0.737,1.223,-2.485,9.009,-0.822,-0.244,-0.146,happy
5.75,37,21,39,33,26,40,735,3513,2536,2596,3109,4069,51,0,7,0,-0.287,10.053,15.538,2.983,-0.262,-0.750,1.231,-2.842,9.783,-0.944,-0.381,-0.324,happy
5.76,169,167,167,162,161,163,1873,3706,2729,2470,3124,4061,0,35,0,0,4.805,4.798,8.689,2.759,-0.129,-0.233,1.578,-3.247,10.384,-1.403,-0.309,-0.575,happy
5.77,272,272,309,234,1153,331,2848,3715,2830,1943,3124,3989,0,0,0,0,12.756,19.613,19.613,1.189,1.808,-0.749,2.363,-4.118,10.238,-1.993,0.045,-0.532,happy
5.78,430,638,267,260,1304,268,3187,3710,2843,1735,3137,3898,0,0,0,30,0.737,4.149,12.057,0.480,1.200,-0.551,1.401,-3.594,9.627,-2.318,0.457,-0.600,happy
5.79,918,1354,786,771,1927,673,3407,3821,2443,1171,3058,3783,0,0,0,0,1.937,4.453,10.044,0.260,0.676,-0.264,1.597,-3.759,9.287,-2.897,1.171,-0.644,happy
5.80,650,1625,867,321,1881,316,3440,3771,1767,615,2797,3399,0,0,0,0,1.041,3.376,9.165,0.262,0.582,-0.302,0.237,-1.846,11.681,-4.216,1.130,0.310,happy
5.81,749,1869,2067,415,2233,220,3510,3794,1183,215,2024,2760,0,0,0,0,0.512,4.039,9.802,0.184,0.406,-0.207,1.463,-5.270,12.143,-5.130,0.319,1.475,happy
5.82,817,2141,2667,619,2445,235,3577,3810,483,0,2,1085,1,25,0,0,0.589,3.795,9.680,0.168,0.198,-0.096,-0.558,-6.905,17.700,-5.776,-0.629,3.089,happy
5.83,625,2135,2875,618,2773,0,3571,3765,7,0,28,0,0,0,0,0,0.678,3.579,9.601,0.199,0.075,-0.039,0.970,-8.619,12.194,-6.482,-0.846,3.097,happy
5.84,1243,2513,3171,1445,3110,319,3709,3856,0,0,0,0,0,0,0,0,0.668,3.680,9.400,0.196,0.108,-0.091,2.780,-10.819,15.316,-4.381,-0.345,3.039,happy
5.85,1119,2427,3216,1456,3139,0,3648,3750,0,0,46,0,0,0,0,0,0.555,4.216,9.773,0.195,0.116,-0.090,-0.558,-10.405,19.613,0.171,-0.080,2.531,happy
5.86,1477,2559,3376,2034,3305,178,3696,3767,0,0,0,0,0,0,0,0,0.362,3.826,9.498,0.161,0.086,-0.051,7.178,-0.517,8.404,1.447,-0.912,1.768,happy
5.87,1670,2685,3443,2322,3370,197,3683,3707,0,0,0,0,0,0,0,0,0.570,3.685,9.313,0.137,0.056,-0.028,6.780,-0.017,7.827,1.918,-0.492,1.269,happy
5.88,1699,2703,3482,2453,3386,56,3617,3583,0,10,0,0,0,3,0,0,0.388,3.692,9.325,0.129,0.047,-0.025,4.204,-0.967,7.357,2.579,-0.459,0.270,happy
5.89,1825,2753,3547,2587,3414,82,3554,3479,0,0,0,0,0,0,0,0,0.484,3.783,9.290,0.117,0.034,-0.019,3.021,-1.908,6.910,2.976,-0.959,-0.468,happy
5.90,2023,2864,3616,2742,3473,199,3532,3413,0,0,0,0,0,0,0,0,0.462,3.730,9.280,0.114,0.030,-0.026,2.260,-2.650,7.441,3.129,-1.078,-0.718,happy
5.91,2077,2893,3646,2815,3515,131,3457,3297,0,0,0,7,19,0,0,0,0.520,3.730,9.323,0.104,0.027,-0.027,1.281,-4.820,9.476,3.539,-1.179,-0.998,happy
5.92,2160,2945,3663,2895,3563,114,3398,3207,0,0,0,0,0,0,0,0,0.417,3.785,9.333,0.096,0.036,-0.023,-0.093,-6.055,9.625,3.718,-1.369,-1.208,happy
5.93,2253,2989,3709,2971,3599,103,3328,3071,0,11,0,0,0,0,0,0,0.484,3.771,9.208,0.083,0.037,-0.023,-0.323,-6.469,9.577,3.645,-1.510,-1.313,happy
5.94,2307,3022,3730,3025,3620,73,3268,2939,0,0,0,0,0,0,0,0,0.484,3.850,9.273,0.082,0.028,-0.021,1.056,-6.498,10.829,3.442,-1.304,-1.622,happy
5.95,2430,3089,3781,3109,3659,204,3230,2822,0,0,0,0,0,0,0,0,0.467,3.723,9.177,0.083,0.033,-0.024,0.522,-6.464,11.981,3.376,-0.927,-1.867,happy
5.96,2499,3122,3798,3156,3686,207,3071,2542,0,19,0,0,0,0,0,58,0.484,3.888,9.242,0.082,0.038,-0.019,-0.601,-6.160,12.119,3.287,-0.925,-1.752,happy
5.97,2559,3172,3837,3193,3696,205,2905,2153,38,0,0,9,0,0,0,0,0.352,3.529,9.146,0.115,0.028,-0.015,-0.862,-6.505,14.169,3.149,-1.325,-1.320,happy
5.98,2641,3191,3829,3243,3687,149,2770,1696,0,0,0,0,37,0,0,0,0.464,3.768,9.201,0.099,0.042,-0.026,-0.582,-6.596,13.843,3.102,-1.276,-0.883,happy
5.99,2688,3238,3856,3271,3686,122,2591,942,0,0,0,0,0,0,0,0,0.498,3.874,9.275,0.110,0.066,-0.033,-0.893,-6.543,13.546,2.902,-1.324,-0.665,happy
6.00,2715,3291,3870,3317,3661,116,2366,336,0,0,0,0,0,0,0,0,0.433,3.883,9.261,0.130,0.075,-0.014,-1.188,-9.603,15.830,2.793,-1.415,-0.362,happy
6.01,2734,3327,3890,3375,3607,115,2009,113,0,0,0,0,0,0,0,0,0.481,3.833,9.285,0.142,0.096,-0.001,-2.931,-11.538,10.558,2.043,-1.376,-0.424,happy
6.02,2802,3377,3910,3422,3440,112,1716,113,43,0,43,17,0,0,0,0,0.409,3.979,9.170,0.159,0.122,0.003,-0.120,-12.943,8.090,1.295,-1.940,-0.568,happy
6.03,2894,3422,3933,3477,3171,109,1119,110,0,0,0,0,0,0,0,0,0.429,3.888,9.285,0.157,0.147,0.005,-3.455,-15.720,5.186,1.276,-1.676,-0.689,happy
6.04,2991,3479,3955,3527,2928,101,574,107,0,0,2,0,0,0,0,0,0.249,3.895,9.227,0.174,0.169,0.007,-4.829,-14.997,-2.940,-0.090,-0.258,-0.557,happy
6.05,3083,3529,3968,3562,2643,98,240,96,0,0,0,0,2,0,0,0,0.201,3.531,9.333,0.236,0.202,-0.016,-5.962,-15.881,1.362,-0.673,0.316,-0.121,happy
6.06,3136,3561,3987,3601,2058,90,90,92,0,0,0,0,0,0,0,0,0.424,3.893,9.330,0.480,0.246,0.096,5.914,0.196,15.320,-0.233,3.623,0.360,happy
6.07,3183,3569,3995,3618,1831,87,89,86,0,0,0,0,10,0,0,0,0.429,3.819,9.206,0.619,0.244,0.148,1.128,8.128,15.071,-1.215,1.433,-0.290,happy
6.08,3193,3574,3996,3632,1526,84,84,86,0,0,0,0,0,0,0,57,0.316,3.675,9.057,0.751,0.238,0.191,0.311,3.625,3.436,-2.410,0.555,-0.144,happy
6.09,3265,3540,4006,3642,1346,81,112,87,0,0,0,0,0,0,0,621,0.575,3.764,9.134,0.849,0.194,0.259,-1.070,0.713,7.834,-2.547,0.828,0.617,happy
6.10,3347,3488,4006,3648,1186,81,83,82,0,0,2,0,27,0,237,1928,0.699,3.850,8.957,1.028,0.189,0.347,-7.013,-1.793,13.467,-2.885,0.383,0.954,happy
6.11,3473,3343,3998,3637,818,83,81,80,0,0,0,0,0,0,989,3359,0.766,3.740,9.045,1.460,0.306,0.489,2.248,-3.859,7.365,-3.796,-1.402,0.744,happy
6.12,3552,2796,3970,3554,437,80,80,77,0,0,2,0,0,0,1573,3519,0.474,4.568,8.835,2.040,0.450,0.556,4.132,-6.067,12.500,-2.940,-1.262,0.703,happy
6.13,3600,2448,3920,3508,67,71,74,71,0,4,0,0,0,0,2409,3693,0.309,4.571,9.105,2.319,0.767,0.602,1.240,-0.491,8.820,0.203,2.027,0.371,happy
6.14,3582,2333,3877,3440,85,80,86,85,0,0,0,0,0,7,2628,3732,0.824,5.133,8.320,2.648,0.761,0.675,0.749,-3.227,12.907,-0.144,1.424,0.330,happy
6.15,3483,2178,3760,2960,154,144,150,160,0,0,0,0,141,0,2763,3796,0.649,5.327,9.258,3.005,0.900,0.516,1.836,-2.514,10.398,0.060,0.608,0.063,happy
6.16,3136,2106,3447,2202,469,467,454,462,0,0,0,5,185,22,2793,3815,-0.366,5.169,11.722,3.894,0.006,0.086,1.223,-2.157,10.276,-0.027,0.511,0.147,happy
6.17,1741,1066,2586,725,0,0,0,0,0,0,0,0,379,10,2919,3881,-0.845,8.195,14.562,5.460,-1.515,-1.019,1.109,-2.011,10.077,0.051,0.539,0.161,happy
6.18,976,40,389,0,0,0,0,0,0,328,40,0,549,0,3067,3919,-3.165,9.792,13.166,7.059,-1.603,-1.781,1.188,-2.770,10.063,0.067,0.263,0.080,happy
6.19,578,0,0,0,0,0,0,0,0,499,7,0,595,0,3189,3958,0.821,13.542,10.070,6.178,-2.024,-1.610,1.305,-2.459,9.843,0.080,0.199,0.022,happy
6.20,46,0,0,0,0,0,0,0,0,573,12,18,688,0,3285,3955,2.282,8.691,15.172,4.145,-1.413,-1.920,1.274,-2.495,10.036,0.102,0.206,0.016,happy
6.21,0,0,0,0,0,0,0,0,2,697,1302,117,1045,0,3327,3985,4.322,2.456,17.339,1.392,-0.172,-3.032,1.312,-2.377,10.147,0.101,0.240,0.018,happy
6.22,0,0,0,0,0,0,0,0,3,959,1525,231,1369,3,3405,3941,0.151,4.860,19.573,-0.070,-0.050,-1.924,1.434,-2.219,9.778,0.084,0.215,0.032,happy
6.23,0,0,0,0,0,0,0,0,1,1039,2157,638,1553,3,3461,4004,1.985,0.888,12.488,-0.675,-0.246,-1.935,1.135,-2.133,9.883,0.047,0.200,0.053,happy
6.24,0,0,0,0,0,0,0,0,1,1207,2201,970,1675,2,3513,3998,2.880,0.764,10.927,-1.408,-0.096,-1.877,0.792,-2.200,9.929,0.005,0.130,0.077,happy
6.25,0,0,0,0,0,0,0,0,1,1255,2321,1324,1870,3,3558,3987,3.239,0.867,9.567,-1.823,-0.130,-1.699,0.998,-2.057,9.668,-0.017,0.155,0.077,happy
6.26,0,0,0,0,0,0,0,0,1,1273,2426,1515,1899,2,3591,3960,3.409,1.369,8.339,-2.281,-0.208,-1.472,0.900,-2.097,9.749,-0.066,0.124,0.077,happy
6.27,0,0,0,0,0,0,0,0,2,1363,2474,1624,2003,2,3601,3925,3.084,1.829,7.274,-2.518,-0.336,-1.219,1.049,-2.365,9.919,-0.043,0.127,0.080,happy
6.28,0,0,0,0,0,0,0,0,12,1491,2492,1769,2079,1,3604,3876,3.153,2.533,7.432,-2.787,-0.481,-0.942,1.058,-2.399,9.797,-0.056,0.091,0.059,happy
6.29,0,0,0,0,0,0,0,0,1,1648,2510,1919,2132,2,3658,3831,3.127,3.598,7.963,-3.034,-0.591,-0.682,0.946,-2.105,9.665,-0.051,0.074,0.068,happy
6.30,0,0,0,0,0,0,0,0,1,1739,2510,1975,2201,3,3597,3763,3.223,4.721,7.800,-3.318,-0.629,-0.410,1.101,-2.040,9.804,-0.049,0.074,0.101,happy
6.31,0,0,0,0,0,0,0,0,3,1844,2490,2056,2299,2,3589,3676,3.045,5.507,7.262,-3.468,-0.629,-0.167,1.058,-2.349,9.807,-0.071,0.048,0.069,happy
6.32,0,0,0,0,0,0,0,0,1,1868,2610,2172,2326,1,3667,3607,2.938,6.148,7.274,-3.511,-0.696,0.115,1.168,-2.401,9.768,-0.075,0.046,0.068,happy
6.33,0,0,0,0,0,0,0,0,1,1889,2659,2297,2389,41,3566,3555,2.780,7.195,8.377,-3.533,-0.800,0.428,1.161,-2.377,9.646,-0.063,0.046,0.085,happy
6.34,0,0,0,0,0,0,0,0,4,1947,2735,2344,2509,2,3563,3565,2.710,8.138,9.117,-3.600,-0.863,0.775,0.991,-2.389,9.900,-0.066,0.049,0.083,happy
6.35,0,0,0,0,0,0,0,0,2,1965,2756,2471,2553,0,3592,3515,2.212,8.801,9.129,-3.626,-0.857,1.098,0.828,-2.037,10.001,-0.026,0.027,0.058,happy
6.36,0,0,0,0,0,0,0,0,3,2109,2684,2533,2730,0,3556,3519,2.054,9.163,8.844,-3.548,-0.823,1.340,1.039,-2.562,9.950,-0.046,0.044,0.075,happy
6.37,0,0,0,0,0,0,0,0,2,2191,2799,2675,2787,3,3540,3527,2.430,9.249,8.533,-3.417,-0.712,1.564,1.061,-2.526,9.874,-0.021,0.026,0.062,happy
6.38,0,0,0,0,0,0,0,0,1,2283,2815,2643,2873,3,3515,3513,3.026,9.127,8.662,-3.236,-0.587,1.796,0.955,-2.397,9.768,-0.011,0.027,0.058,happy
6.39,0,0,0,0,0,0,0,0,1,2409,2822,2697,2941,3,3512,3510,3.642,9.124,9.029,-3.052,-0.415,2.022,0.797,-2.267,9.847,0.001,0.022,0.060,happy
6.40,0,0,0,0,0,0,0,0,0,2506,2838,2745,3005,5,3465,3500,4.041,9.598,10.082,-2.910,-0.266,2.255,0.958,-2.358,9.914,-0.032,0.051,0.080,happy
6.41,0,0,0,0,0,0,0,0,2,2521,2848,2783,3156,3,3399,3495,3.864,10.053,11.004,-2.875,-0.194,2.465,1.027,-2.334,9.948,-0.040,0.059,0.085,happy
6.42,0,0,0,0,0,0,0,0,1,2616,2861,2835,3117,2,3243,3488,3.508,10.123,10.994,-2.854,-0.218,2.669,0.986,-2.440,9.677,-0.018,0.039,0.084,happy
6.43,0,0,0,0,0,0,0,0,1,2677,2863,2899,3187,3,3196,3491,3.215,9.740,10.151,-2.742,-0.180,2.778,1.063,-2.653,9.622,0.015,0.013,0.078,happy
6.44,0,0,0,0,0,0,0,0,1,2677,2892,2941,3239,3,3181,3450,2.507,9.201,9.756,-2.497,-0.075,2.755,1.025,-2.387,9.692,-0.033,0.038,0.086,happy
6.45,0,0,0,0,0,0,0,0,1,2803,2899,2937,3307,2,3173,3405,1.113,9.088,9.981,-2.212,-0.090,2.600,1.087,-2.495,9.421,-0.025,0.017,0.078,happy
6.46,0,0,0,0,0,0,0,0,3,2808,2904,2981,3320,2,3150,3386,0.091,9.179,11.018,-1.940,-0.231,2.294,1.097,-2.452,9.579,-0.060,0.037,0.074,happy
6.47,0,0,0,0,0,0,0,0,2,2846,2927,3037,3367,3,3179,3342,-1.025,10.405,13.360,-1.846,-0.546,1.912,0.891,-2.387,9.838,-0.069,0.032,0.064,happy
6.48,0,0,0,0,0,0,0,0,1,2885,2930,3089,3379,2,3144,3318,-2.025,8.744,11.976,-1.620,-1.054,1.438,1.077,-2.521,9.553,-0.062,0.018,0.067,happy
6.49,0,0,0,0,0,0,0,0,2,2935,2943,3115,3411,2,3062,3228,-3.110,10.077,11.830,-1.918,-1.223,0.855,1.049,-2.433,9.534,-0.081,0.022,0.069,happy
6.50,0,0,0,0,0,0,0,0,2,2965,2971,3180,3541,1,2903,2939,-5.880,9.383,8.442,-1.631,-2.150,0.228,0.790,-2.380,9.792,-0.122,-0.034,0.042,happy
6.51,0,0,0,0,0,0,0,0,10,3017,2986,3221,3480,0,2899,2830,-4.659,10.807,6.644,-1.506,-2.241,-0.354,0.962,-2.624,9.996,-0.135,0.011,0.040,happy
6.52,0,0,0,0,0,0,0,0,17,3036,3012,3288,3509,7,2783,2212,-4.666,10.795,2.770,-1.043,-2.144,-1.141,0.977,-2.473,9.565,-0.147,0.019,0.023,happy
6.53,0,0,0,0,0,0,0,0,38,3087,3058,3319,3515,21,2727,1542,-1.674,13.252,1.379,-0.485,-1.932,-1.313,0.960,-2.562,9.979,-0.198,0.010,0.012,happy
6.54,0,0,0,0,0,0,0,0,204,3156,3050,3400,3483,60,2473,575,0.642,12.464,-2.643,0.043,-0.752,-0.912,1.070,-2.761,9.665,-0.227,0.008,-0.006,happy
6.55,0,0,0,0,0,0,0,0,285,3259,3068,3517,3183,47,1903,365,10.025,-0.050,-2.217,0.949,4.762,-0.249,0.989,-2.995,9.433,-0.180,0.005,-0.002,happy
6.56,0,0,0,0,0,0,99,717,539,3289,2930,3559,3051,41,1555,203,3.100,-1.477,13.841,1.151,2.238,2.049,1.008,-2.576,9.677,-0.140,-0.011,0.004,happy
6.57,0,0,0,0,0,0,233,2515,711,3375,3158,3580,2771,21,376,71,-19.613,-5.224,12.397,2.864,0.800,-0.001,1.051,-2.042,9.510,-0.213,0.012,0.070,happy
6.58,277,315,261,364,291,259,755,3270,979,3512,3135,3559,1853,17,363,37,-3.311,3.519,9.943,2.636,-0.472,-0.785,0.991,-1.714,9.371,-0.828,-0.151,0.002,happy
6.59,38,42,44,49,40,37,1650,3472,973,3533,3135,3543,1287,5,413,20,5.375,6.610,10.896,2.458,-0.447,-0.361,1.183,-4.247,9.651,-0.792,-0.120,-0.092,happy
6.60,50,94,57,112,627,82,2542,3569,1075,3531,3130,3465,475,1,116,0,6.206,18.943,17.906,0.986,1.124,-0.763,0.941,-2.339,9.833,-0.887,-0.111,-0.114,happy
6.61,0,0,0,0,1004,0,2915,3571,1083,3353,3130,3273,288,2,187,0,0.280,1.207,8.995,0.147,1.524,-0.568,0.436,-1.434,10.496,-1.859,0.001,-0.294,happy
6.62,1,231,0,0,1362,0,3114,3637,952,3094,3140,3119,381,0,22,0,1.221,2.737,8.803,0.285,0.839,-0.290,0.900,-1.717,10.554,-2.614,-0.013,-0.254,happy
6.63,421,813,496,383,1754,349,3387,3754,677,2652,3091,1928,529,0,0,0,-0.093,4.707,11.375,0.219,0.843,-0.258,2.081,-2.705,10.920,-4.056,-0.313,-0.322,happy
6.64,538,1424,1351,454,2121,473,3543,3824,374,1661,2385,205,253,0,0,0,0.977,3.565,9.867,0.218,0.662,-0.219,1.688,-3.577,15.107,-5.854,-0.983,-0.023,happy
6.65,624,1667,2182,405,2513,407,3619,3856,274,903,2,0,53,2,0,0,-0.050,3.302,9.716,0.132,0.369,-0.133,-0.795,-2.442,13.668,-6.250,-1.552,0.306,happy
6.66,715,1918,2677,681,2751,448,3698,3890,123,0,0,0,0,0,21,0,0.491,3.584,9.723,0.118,0.133,-0.025,3.491,-13.273,11.207,-7.349,-3.394,0.569,happy
6.67,689,2096,2863,785,3026,415,3745,3903,0,0,0,0,0,0,0,0,0.804,3.563,9.754,0.088,0.127,-0.038,4.183,-8.499,11.894,-5.643,-2.929,1.323,happy
6.68,756,2221,3008,987,3166,598,3810,3902,0,0,0,0,0,0,0,0,0.661,3.388,9.469,0.106,0.062,-0.046,7.532,-7.618,9.244,-2.714,-0.370,2.351,happy
6.69,752,2275,3139,1158,3344,727,3809,3910,0,0,0,0,0,0,0,0,0.491,3.438,9.364,0.100,0.026,-0.036,-2.842,-5.543,19.613,0.807,1.876,1.217,happy
6.70,720,2382,3231,1303,3461,635,3824,3887,0,0,0,0,0,0,0,0,0.541,3.469,9.416,0.108,-0.002,-0.028,0.503,0.283,6.783,2.184,0.337,1.912,happy
6.71,739,2459,3266,1429,3498,845,3835,3856,0,0,0,0,0,0,0,0,0.611,3.474,9.385,0.109,0.007,-0.027,1.144,1.070,6.376,2.443,0.150,2.083,happy
6.72,738,2500,3317,1535,3536,880,3828,3825,0,0,0,0,21,0,0,0,0.584,3.259,9.318,0.147,0.008,-0.042,3.297,-0.338,6.146,2.583,0.338,2.051,happy
6.73,672,2523,3343,1633,3559,587,3790,3696,0,0,0,0,0,0,0,0,0.716,3.508,9.361,0.202,0.030,-0.077,4.695,-2.054,7.872,3.068,0.710,1.904,happy
6.74,817,2592,3403,1821,3603,458,3778,3700,0,0,0,0,0,0,0,0,0.620,3.718,9.388,0.199,0.026,-0.058,5.543,-3.120,8.753,3.535,0.942,1.608,happy
6.75,999,2659,3471,1966,3647,469,3792,3665,0,0,0,0,0,0,0,0,0.618,3.577,9.325,0.171,0.032,-0.055,5.928,-4.231,8.401,3.878,0.960,1.211,happy
6.76,1067,2709,3453,2032,3632,273,3746,3573,0,0,2,0,0,0,0,0,0.539,3.596,9.373,0.181,0.039,-0.052,5.499,-4.731,6.871,4.013,0.814,0.853,happy
6.77,1205,2769,3536,2277,3694,323,3727,3527,0,0,0,0,0,0,0,0,0.622,3.606,9.313,0.171,0.052,-0.056,6.337,-6.539,7.494,3.961,0.233,0.219,happy
6.78,1424,2864,3612,2559,3766,400,3700,3449,0,9,0,0,0,0,0,0,0.625,3.668,9.318,0.139,0.046,-0.042,7.353,-8.267,8.418,3.870,-0.150,-0.810,happy
6.79,1575,2919,3663,2706,3809,405,3669,3344,0,3,0,0,0,0,3,0,0.555,3.843,9.524,0.115,0.072,-0.049,7.494,-8.837,8.602,3.754,-0.227,-1.343,happy
6.80,1649,2955,3679,2789,3814,311,3600,3187,0,0,0,0,0,0,0,0,0.553,3.601,9.369,0.133,0.059,-0.043,7.187,-9.110,9.026,3.489,-0.179,-2.375,happy
6.81,1744,3008,3699,2851,3835,287,3539,3031,0,0,0,0,0,0,0,0,0.615,3.701,9.256,0.130,0.043,-0.050,4.630,-7.913,8.691,3.063,-0.253,-2.876,happy
6.82,1862,3059,3735,2941,3863,309,3479,2854,0,0,0,0,0,0,0,0,0.627,3.622,9.280,0.132,0.047,-0.036,3.299,-7.714,10.089,2.895,-0.422,-2.738,happy
6.83,2001,3135,3761,2992,3883,318,3407,2590,0,0,15,0,0,0,0,0,0.646,3.625,9.371,0.132,0.056,-0.038,1.501,-7.446,12.900,2.782,-1.007,-2.148,happy
6.84,2129,3177,3791,3071,3891,315,3249,2130,0,0,0,0,0,0,0,0,0.644,3.926,9.215,0.128,0.051,-0.040,-0.136,-6.570,11.574,2.677,-1.313,-1.280,happy
6.85,2241,3214,3806,3132,3891,311,3128,1770,0,0,0,0,0,0,0,0,0.589,3.680,9.177,0.149,0.058,-0.036,-1.288,-6.074,11.210,2.389,-1.547,-0.795,happy
6.86,2367,3275,3829,3218,3891,309,3014,1456,0,0,0,0,0,8,0,17,0.438,3.804,9.206,0.146,0.063,-0.026,-1.844,-7.764,13.376,1.781,-2.471,-0.151,happy
6.87,2491,3326,3855,3280,3896,304,2864,829,0,0,0,0,0,0,0,0,0.500,3.766,9.290,0.158,0.069,-0.018,1.559,-11.899,15.019,1.706,-1.879,0.091,happy
6.88,2559,3383,3877,3344,3888,304,2654,303,0,0,0,0,0,0,0,0,0.579,3.783,9.155,0.189,0.081,-0.006,1.463,-15.546,17.964,2.066,-2.199,-0.208,happy
6.89,2662,3441,3907,3390,3846,304,2304,304,0,0,0,0,0,0,2,0,0.577,3.852,9.438,0.178,0.111,-0.014,0.354,-12.093,2.772,2.315,-1.000,-0.747,happy
6.90,2785,3504,3920,3440,3728,303,1755,304,0,0,23,3,0,0,0,0,0.412,3.797,9.201,0.177,0.123,-0.011,-3.096,-13.352,-0.931,0.447,-0.670,-0.835,happy
6.91,2894,3552,3942,3487,3411,298,1419,295,0,0,0,0,0,0,0,0,0.397,3.759,9.184,0.190,0.146,-0.017,-3.709,-14.518,0.713,-0.086,-0.401,-0.691,happy
6.92,2993,3613,3966,3527,3206,291,709,288,0,0,0,0,0,0,0,0,0.512,3.824,9.237,0.136,0.103,-0.069,7.089,-9.629,-6.989,-2.305,1.836,-0.989,happy
6.93,3102,3677,3984,3555,2640,304,592,304,0,3,0,0,0,0,123,0,0.421,3.735,9.206,0.377,0.144,0.044,2.744,2.921,15.253,-1.199,2.360,-0.675,happy
6.94,3216,3722,4010,3601,2351,386,529,384,0,0,0,0,0,0,142,29,0.472,3.948,9.131,0.520,0.167,0.095,-5.806,7.257,5.993,-2.307,1.095,-0.643,happy
6.95,3327,3738,4029,3630,1858,426,426,420,0,0,2,0,21,0,344,2171,0.721,4.307,9.141,0.609,0.216,0.160,-11.016,-2.521,13.537,-3.165,0.676,1.287,happy
6.96,3403,3712,4027,3607,1434,384,385,384,0,0,0,0,12,0,812,3283,0.168,3.577,9.072,0.882,0.124,0.258,4.341,-2.957,6.831,-2.630,-0.067,0.794,happy
6.97,3465,3658,4001,3577,1127,368,370,369,0,0,10,0,0,0,989,3423,0.393,3.630,8.971,1.337,0.104,0.381,-19.613,-16.190,19.613,-0.151,6.191,3.096,happy
6.98,3509,3547,3984,3530,979,397,399,405,0,0,0,0,0,0,1791,3573,0.532,3.766,9.043,1.884,0.258,0.473,-0.060,-3.479,13.329,0.102,1.838,0.574,happy
6.99,3511,3344,3927,3386,613,327,341,358,5,11,0,0,0,0,1741,3657,1.025,4.980,9.634,2.425,0.491,0.467,0.651,-3.448,10.846,-0.086,0.409,0.128,happy
7.00,3443,2961,3825,2799,332,310,323,324,0,239,0,0,1,0,1937,3683,-0.050,5.037,9.443,2.977,0.374,0.501,1.176,-2.418,9.697,-0.000,0.248,0.104,happy
7.01,3334,2214,3621,2221,576,531,575,546,0,500,5,199,43,0,2469,3752,0.098,4.554,12.031,3.732,0.236,0.502,1.377,-2.787,9.675,0.017,0.224,0.143,happy
7.02,2327,1424,2763,737,0,0,0,0,0,799,10,923,233,0,2761,3832,-0.464,9.325,15.354,5.110,-1.254,-0.127,0.831,-2.526,9.912,-0.002,0.193,0.163,happy
7.03,1232,498,919,0,0,0,0,0,0,974,43,1273,330,0,2878,3863,-0.670,6.962,11.492,6.408,-1.529,-1.107,0.907,-2.332,9.234,-0.069,0.083,0.130,happy
7.04,567,0,0,0,0,0,0,0,0,1221,1609,1557,361,3,3065,3939,-0.702,15.435,11.909,7.104,-2.955,-1.033,0.824,-2.595,10.149,0.029,0.088,0.060,happy
7.05,0,0,0,0,0,0,0,0,1,1639,1947,1789,557,2,3263,3982,1.779,9.979,7.652,4.887,-3.398,-1.869,0.848,-2.507,9.797,0.078,0.079,0.051,happy
7.06,0,0,0,0,0,0,0,0,1,1703,2029,1893,859,2,3325,3996,3.359,5.181,17.279,2.114,-1.944,-2.952,0.917,-2.428,9.761,0.078,0.075,0.059,happy
7.07,77,80,75,74,77,69,75,78,1,1840,2116,2087,1067,2,3403,4011,-2.562,14.384,19.613,-0.710,-1.238,-2.140,0.910,-2.325,9.790,0.042,0.076,0.063,happy
7.08,83,80,87,83,86,85,81,87,22,1791,2259,2197,1197,3,3468,4015,3.972,3.907,7.518,-1.939,-0.468,-2.073,0.917,-2.478,9.840,0.032,0.090,0.073,happy
7.09,144,144,147,156,149,144,142,148,5,1895,2290,2478,1653,2,3555,4009,1.324,1.283,6.891,-2.236,-0.141,-1.908,0.697,-2.430,9.905,-0.034,0.067,0.069,happy
7.10,61,82,81,34,43,55,67,64,1,1944,2480,2648,1655,2,3579,3965,1.695,2.229,7.506,-2.692,-0.415,-1.604,0.804,-2.349,9.749,-0.090,0.061,0.069,happy
7.11,33,32,36,35,33,34,34,37,43,2008,2492,2615,1673,0,3563,3915,1.990,2.825,6.572,-3.107,-0.586,-1.152,0.831,-2.547,9.764,-0.099,0.066,0.064,happy
7.12,6,6,1,6,6,7,10,6,48,2118,2659,2700,1577,5,3513,3880,1.499,4.448,7.479,-3.336,-0.727,-0.671,0.895,-2.495,9.687,-0.098,0.036,0.048,happy
7.13,54,50,53,78,53,51,53,50,1,2119,2700,2837,1615,3,3437,3803,1.578,5.935,7.937,-3.593,-0.851,-0.304,0.668,-2.598,9.776,-0.093,0.033,0.045,happy
7.14,2,0,0,3,0,0,3,1,1,2171,2689,2927,1577,3,3401,3765,1.731,6.730,7.661,-3.643,-0.856,0.157,0.742,-2.715,9.816,-0.066,0.043,0.041,happy
7.15,0,0,0,0,0,0,0,0,0,2200,2684,2935,1631,3,3355,3699,1.120,7.776,8.375,-3.648,-0.871,0.422,0.716,-2.622,9.795,-0.062,0.030,0.042,happy
7.16,0,0,0,0,0,0,0,0,1,2247,2518,2990,1663,2,3320,3701,0.687,8.528,8.464,-3.631,-0.949,0.649,0.711,-2.617,9.627,-0.056,0.047,0.033,happy
7.17,0,0,0,0,0,0,0,0,1,2295,2695,2999,1710,2,3339,3687,1.144,8.614,7.721,-3.541,-0.950,0.821,0.704,-2.629,9.720,-0.041,0.035,0.032,happy
7.18,0,0,0,0,0,0,0,0,2,2303,2720,3079,1691,40,3279,3676,1.709,8.626,7.946,-3.356,-0.864,1.003,0.735,-2.691,9.759,-0.037,0.034,0.028,happy
7.19,0,0,0,0,0,0,0,0,4,2355,2725,3103,1753,2,3254,3641,1.887,9.244,8.985,-3.224,-0.748,1.176,0.706,-2.715,9.761,0.000,0.031,0.028,happy
7.20,0,0,0,0,0,0,0,0,3,2408,2751,3169,1829,4,3225,3611,1.745,9.069,9.347,-3.184,-0.646,1.307,0.821,-2.698,9.493,0.011,0.031,0.028,happy
7.21,0,0,0,0,0,0,0,0,5,2439,2776,3256,1893,2,3173,3593,1.472,8.497,9.225,-3.057,-0.642,1.369,0.764,-2.629,9.582,-0.004,0.033,0.028,happy
7.22,0,0,0,0,0,0,0,0,31,2461,2782,3262,1947,10,3124,3555,1.446,8.653,9.876,-2.907,-0.756,1.399,0.706,-2.679,9.639,0.014,0.033,0.033,happy
7.23,0,0,0,0,0,0,0,0,42,2505,2797,3283,2036,13,3108,3555,1.899,9.000,10.927,-2.798,-0.873,1.463,0.661,-2.550,9.737,-0.003,0.026,0.035,happy
7.24,0,0,0,0,0,0,0,0,61,2557,2810,3376,2233,19,2955,3350,1.963,9.084,10.944,-2.658,-0.917,1.628,0.764,-2.655,9.680,-0.010,0.010,0.032,happy
7.25,350,354,347,359,356,343,346,359,39,2621,3002,3421,2341,27,2815,3003,1.041,9.057,11.349,-2.322,-0.828,1.664,0.639,-2.488,9.902,-0.051,-0.000,0.029,happy
7.26,106,105,107,99,103,105,108,99,148,2652,2884,3465,2343,35,2715,2795,-0.979,10.834,14.937,-2.196,-0.864,1.509,0.759,-2.679,9.823,-0.054,0.015,0.029,happy
7.27,176,178,176,179,176,174,176,177,313,2734,2925,3515,2389,47,2487,2636,-2.816,12.227,12.692,-2.490,-1.341,1.412,0.711,-2.686,9.744,-0.077,-0.008,0.024,happy
7.28,144,141,139,143,143,130,144,144,691,2775,2976,3480,2375,83,2323,2153,0.802,11.997,4.987,-1.823,-1.168,1.189,0.795,-2.703,9.424,-0.090,-0.005,0.013,happy
7.29,176,208,164,223,192,157,170,212,721,2853,2997,3619,2334,47,2031,1656,-1.858,16.113,2.962,-1.371,-0.477,0.657,0.809,-2.737,9.641,-0.128,-0.007,0.009,happy
7.30,154,157,151,156,156,158,157,159,915,2841,3007,3676,2266,47,1847,411,-2.598,15.038,-4.571,-0.520,-1.108,0.936,0.702,-2.677,9.740,-0.135,-0.009,0.011,happy
7.31,22,16,27,13,27,32,21,12,1007,2919,3037,3767,2137,47,1176,277,5.878,15.716,-11.418,2.419,1.700,1.877,0.697,-2.861,9.665,-0.088,0.010,0.017,happy
7.32,118,106,112,112,112,112,150,250,1133,2937,3053,3795,2104,12,824,72,-0.010,-2.737,19.613,0.914,3.262,1.270,0.694,-2.796,9.689,-0.094,0.000,0.016,happy
7.33,95,112,109,112,90,151,291,2308,1241,3015,3078,3867,1607,39,314,152,-19.613,-8.966,4.587,2.997,-0.333,0.775,0.939,-2.674,9.833,-0.286,-0.024,-0.033,happy
7.34,0,0,0,46,0,0,127,2981,1546,2984,3094,3925,491,9,36,73,-7.989,8.186,15.129,3.068,-0.316,-0.775,0.802,-1.793,9.366,-0.904,0.032,-0.063,happy
7.35,222,234,198,243,228,194,962,3359,1735,2917,3104,3942,371,0,0,37,9.278,4.341,5.839,2.692,-0.577,-0.220,0.759,-1.803,9.261,-0.778,-0.152,-0.087,happy
7.36,292,271,286,261,880,272,2062,3435,1845,2923,3099,3923,99,17,0,0,17.430,3.989,18.720,2.206,-0.637,0.304,0.919,-4.085,9.246,-0.844,-0.378,-0.292,happy
7.37,0,48,0,0,880,0,2400,3341,2158,2936,3132,3933,0,0,3,0,5.018,0.184,2.969,0.176,1.574,-0.497,1.516,-3.338,9.845,-1.207,-0.395,-0.432,happy
7.38,793,879,561,311,1563,551,2751,3472,2248,2845,3112,3880,0,0,0,0,-2.260,5.471,12.364,0.206,0.633,-0.162,1.290,-3.191,9.218,-1.450,-0.225,-0.430,happy
7.39,673,939,425,134,1296,74,2797,3475,2253,2472,3104,3796,0,0,0,0,-0.251,3.780,10.501,0.256,0.363,-0.159,1.001,-3.361,8.997,-2.018,0.179,-0.494,happy
7.40,831,1495,1330,153,1527,135,2957,3550,1881,2065,3040,3691,16,0,0,0,1.118,3.943,9.606,0.227,0.258,-0.204,1.477,-3.962,9.304,-2.391,0.522,-0.379,happy
7.41,1104,1741,2160,467,1760,352,3140,3609,1657,1487,3022,3574,0,0,0,0,0.433,3.651,9.704,0.224,0.204,-0.217,1.626,-2.847,10.211,-2.880,0.745,-0.178,happy
7.42,1206,1966,2484,848,1891,103,3217,3670,1069,746,2198,2617,0,0,0,0,0.318,3.677,9.409,0.199,0.098,-0.131,1.216,-3.579,11.827,-4.925,0.614,0.849,happy
7.43,1635,2250,2861,1475,2310,439,3395,3785,523,0,2,843,60,0,0,0,0.376,3.505,9.127,0.196,0.054,-0.087,-0.761,-5.940,16.666,-5.956,-1.060,2.054,happy
7.44,1696,2303,2982,1667,2541,282,3427,3789,505,0,0,61,0,0,0,0,0.225,3.757,9.311,0.119,0.024,-0.069,-0.670,-5.435,15.074,-6.565,-1.900,2.536,happy
7.45,1731,2301,3101,1931,2706,203,3463,3790,6,12,2,0,0,0,0,16,0.366,3.733,9.251,0.081,0.080,-0.055,0.285,-10.357,11.265,-5.226,-2.945,2.427,happy
7.46,1758,2342,3177,2192,2799,416,3498,3797,0,0,10,0,0,0,0,0,0.417,3.761,9.369,0.072,0.095,-0.044,-0.247,-0.433,19.613,1.081,-0.480,4.088,happy
7.47,1904,2384,3239,2343,2855,511,3514,3795,0,0,0,0,0,0,0,0,0.366,3.515,9.184,0.062,0.101,-0.029,-0.876,-3.558,19.613,1.527,-1.077,2.662,happy
7.48,1921,2409,3294,2448,2871,305,3474,3774,0,0,0,4,0,0,0,0,0.235,3.567,9.256,0.057,0.152,-0.051,3.776,0.189,5.356,2.851,-0.884,2.540,happy
7.49,1910,2445,3335,2544,2823,165,3392,3728,0,0,0,0,0,0,0,0,0.378,3.701,9.330,0.077,0.192,-0.054,2.543,0.019,5.397,3.003,-1.176,1.677,happy
7.50,1812,2435,3363,2593,2752,176,3312,3699,0,0,2,0,0,0,0,2,0.311,3.656,9.282,0.082,0.163,-0.043,1.915,-0.709,6.151,3.079,-1.514,1.204,happy
7.51,1921,2441,3398,2672,2682,176,3251,3670,0,0,0,20,0,0,0,0,0.294,3.685,9.311,0.084,0.134,-0.035,-0.290,-1.803,7.743,3.345,-1.772,0.650,happy
7.52,2033,2435,3440,2786,2519,221,3183,3647,0,0,0,0,0,0,0,0,0.271,3.809,9.321,0.078,0.128,-0.026,-2.294,-2.950,9.189,3.633,-1.974,0.648,happy
7.53,2150,2404,3470,2878,2395,241,3115,3614,0,0,0,0,0,18,0,0,0.321,3.780,9.213,0.076,0.112,-0.024,-2.715,-3.462,9.438,3.659,-2.192,0.634,happy
7.54,2257,2386,3492,2942,2308,367,3069,3601,0,29,0,0,0,0,0,0,0.158,3.723,9.213,0.057,0.106,-0.020,-1.020,-4.367,11.109,3.623,-2.207,0.246,happy
7.55,2288,2371,3520,3017,2278,341,3015,3571,10,0,0,0,0,0,0,0,0.187,3.721,9.337,0.065,0.096,-0.008,-3.515,-4.223,12.139,3.628,-2.006,-0.209,happy
7.56,2347,2335,3541,3067,2261,306,2953,3554,0,0,0,0,0,0,0,0,0.129,3.780,9.292,0.058,0.091,-0.008,-4.831,-4.283,11.803,3.528,-1.985,-0.155,happy
7.57,2417,2379,3567,3139,2238,325,2939,3533,0,0,0,0,0,0,0,0,0.129,3.718,9.251,0.063,0.083,-0.006,-7.180,-5.897,12.249,2.999,-1.965,0.528,happy
7.58,2506,2400,3583,3173,2288,554,2907,3509,0,0,0,0,0,0,0,0,0.117,3.713,9.299,0.061,0.070,-0.003,-6.191,-9.139,14.485,2.835,-1.699,1.659,happy
7.59,2529,2418,3609,3215,2293,559,2846,3471,0,0,0,0,0,1,0,0,0.081,3.704,9.301,0.070,0.047,-0.003,-5.370,-10.482,14.214,2.792,-1.610,2.066,happy
7.60,2603,2441,3623,3248,2224,621,2771,3426,37,0,0,0,0,0,0,24,0.115,3.754,9.239,0.055,0.029,-0.002,-6.151,-12.043,9.266,2.180,-1.949,2.655,happy
7.61,2684,2480,3646,3278,2207,367,2682,3365,0,0,0,0,0,0,0,0,0.057,3.637,9.242,0.072,0.003,0.011,-7.824,-11.468,5.279,0.851,-3.057,2.693,happy
7.62,2715,2507,3662,3305,2240,334,2511,3248,0,0,0,0,0,0,0,0,0.019,3.747,9.318,0.074,0.011,0.011,-5.940,-11.432,4.492,0.322,-3.125,2.387,happy
7.63,2801,2529,3675,3329,1995,293,2287,3067,0,0,0,4,0,0,0,0,0.175,3.706,9.175,0.101,0.075,0.005,6.232,-18.268,6.495,-0.126,-0.342,1.086,happy
7.64,2831,2544,3687,3365,1850,164,2039,2701,0,0,0,0,0,0,0,0,0.098,3.663,9.258,0.144,0.095,0.008,4.673,-4.010,10.704,0.050,2.222,0.232,happy
7.65,2874,2558,3713,3408,1799,162,1594,1681,0,0,0,0,0,0,0,0,0.220,3.666,8.871,0.195,0.096,0.029,10.518,0.127,12.088,0.179,1.867,-0.241,happy
7.66,2943,2590,3750,3473,1663,268,1058,949,0,0,0,0,0,0,28,267,0.165,3.761,9.182,0.226,0.067,0.047,-2.468,2.749,6.103,-1.153,0.829,0.094,happy
7.67,2990,2602,3773,3511,1306,260,305,265,0,0,0,37,0,0,857,2587,0.168,3.349,9.886,0.438,0.107,0.110,-2.849,-2.033,9.653,-1.947,-0.162,0.485,happy
7.68,3038,2477,3795,3556,914,257,259,262,0,0,0,0,0,0,1046,3033,1.077,3.804,9.814,0.761,0.101,0.243,0.678,-0.754,8.267,-2.082,-0.233,0.505,happy
7.69,3109,2064,3792,3611,254,255,255,255,0,0,0,0,0,0,1677,3390,0.704,4.029,9.136,0.963,0.053,0.457,0.790,-1.836,10.288,-0.027,1.332,0.218,happy
7.70,3152,1911,3760,3637,256,257,257,267,0,94,17,0,0,0,2085,3621,1.460,2.138,7.927,1.112,0.042,0.520,1.197,-3.601,11.238,-0.148,0.402,0.042,happy
7.71,3248,1665,3619,3617,256,256,258,259,0,379,66,0,2,0,2311,3667,0.622,5.023,9.373,1.213,0.615,0.580,1.611,-2.605,10.056,0.014,0.188,-0.100,happy
7.72,3315,1127,3261,3504,255,253,256,256,0,701,0,0,91,0,2649,3743,0.831,4.594,9.148,1.266,1.039,0.525,1.338,-2.579,9.589,0.039,0.100,-0.048,happy
7.73,3381,607,2940,3125,252,249,256,255,0,937,0,107,189,0,2937,3801,0.912,3.687,9.902,1.817,1.434,0.422,1.429,-1.688,9.471,0.026,0.184,0.062,happy
7.74,3343,339,2190,2623,245,244,243,249,1,1069,389,180,367,1,2963,3816,0.192,3.567,9.170,2.913,1.655,0.141,1.336,-2.045,9.586,-0.049,0.220,0.143,happy
7.75,3087,299,1325,1875,304,304,303,300,0,1383,212,569,467,2,3114,3861,-1.863,6.428,16.123,3.620,1.249,-0.647,1.477,-2.279,9.708,-0.114,0.309,0.226,happy
7.76,2182,176,288,670,177,176,179,175,3,1469,1993,1257,581,2,3232,3913,-0.460,4.843,10.532,3.775,1.399,-1.718,1.065,-2.665,9.723,-0.083,0.254,0.183,happy
7.77,982,157,162,165,165,160,165,159,1,1543,2216,1385,536,5,3271,3932,-0.134,4.645,9.076,2.571,1.713,-1.871,1.159,-2.349,9.639,-0.103,0.252,0.206,happy
7.78,149,152,147,149,153,151,151,150,1,1651,2341,1957,599,0,3339,3977,5.832,4.925,13.333,0.693,1.833,-0.220,1.355,-2.643,9.776,-0.120,0.261,0.232,happy
7.79,569,575,560,327,570,545,565,580,1,1717,2449,2103,718,2,3423,3994,5.090,0.874,8.844,-0.483,1.790,1.791,0.905,-2.531,9.766,-0.027,0.145,0.109,happy
7.80,323,322,325,324,325,323,322,327,0,1737,2346,2170,764,3,3464,3999,1.731,0.680,6.627,-0.870,1.376,2.619,1.070,-2.456,9.754,-0.023,0.137,0.107,happy
7.81,303,294,299,295,297,299,303,298,1,1800,2372,2211,841,2,3515,3995,2.318,2.035,7.448,-1.323,1.137,3.097,1.183,-2.535,9.732,-0.030,0.147,0.105,happy
7.82,288,291,281,285,281,282,282,285,0,1765,2372,2327,887,3,3542,3987,2.200,3.721,8.126,-1.687,1.472,3.566,0.862,-2.327,9.749,-0.038,0.107,0.090,happy
7.83,287,283,280,281,284,283,281,281,2,1816,2413,2377,810,1,3555,3951,0.373,5.377,7.652,-2.313,1.908,3.752,0.895,-2.452,9.776,-0.050,0.099,0.095,happy
7.84,272,272,272,272,272,272,272,272,0,1903,2439,2413,1100,4,3554,3985,-0.661,5.911,6.919,-2.445,2.129,3.485,0.974,-2.502,9.838,-0.054,0.077,0.092,happy
7.85,257,256,250,257,258,258,258,256,9,2004,2454,2491,1432,1,3561,3953,2.638,8.011,8.586,-2.759,2.264,3.430,0.883,-2.500,9.742,-0.026,0.075,0.077,happy
7.86,257,257,256,259,258,254,259,259,0,2105,2556,2475,1487,2,3560,3945,4.432,9.670,6.979,-2.849,2.608,3.955,0.869,-2.581,9.792,-0.035,0.067,0.071,happy
7.87,210,216,208,221,214,202,209,217,1,2122,2567,2403,1681,13,3573,3929,6.146,11.126,6.503,-2.525,2.894,4.731,0.907,-2.622,9.713,-0.023,0.081,0.067,happy
7.88,207,208,208,208,205,208,207,208,0,2214,2602,2485,1811,2,3561,3931,8.547,13.817,4.827,-2.258,3.224,5.810,0.852,-2.545,9.701,-0.024,0.080,0.053,happy
7.89,199,190,204,203,217,200,202,204,1,2157,2615,2477,1870,0,3565,3931,7.479,15.435,2.399,-1.393,2.974,7.161,0.761,-2.526,9.701,-0.018,0.063,0.051,happy
7.90,205,195,195,195,351,194,194,200,12,2246,2759,2431,2021,39,3565,3915,2.820,14.518,3.361,-0.505,2.369,7.348,0.881,-2.626,9.716,0.002,0.049,0.041,happy
7.91,192,191,192,194,342,190,193,192,1,2407,2684,2482,2143,4,3621,3895,-1.709,10.137,4.401,-0.008,1.709,5.789,0.893,-2.531,9.716,0.004,0.038,0.036,happy
7.92,110,103,106,109,178,99,109,107,1,2444,2728,2535,2206,2,3595,3893,-0.773,5.361,4.678,0.276,1.596,3.481,0.831,-2.634,9.811,-0.003,0.030,0.033,happy
7.93,29,144,0,0,206,0,0,0,1,2525,2700,2489,2312,0,3595,3876,0.309,8.904,9.881,-0.616,2.043,1.658,0.907,-2.670,9.663,0.027,0.016,0.014,happy
7.94,656,1087,1792,48,591,24,28,24,0,2507,2651,2420,2325,3,3621,3879,1.683,10.429,9.268,-0.833,0.367,0.421,0.867,-2.598,9.864,0.037,0.019,-0.010,happy
7.95,1041,1609,2545,525,527,5,11,11,1,2491,2669,2375,2245,3,3602,3879,0.105,1.391,9.325,-0.189,-0.253,-0.331,0.725,-2.591,9.867,0.054,0.019,-0.010,happy
7.96,1438,2042,3024,1033,688,16,30,12,1,2428,2677,1914,1959,3,3555,3877,0.591,4.927,8.997,-0.331,-0.238,-0.342,0.900,-2.653,9.802,0.093,0.012,-0.042,happy
7.97,1738,2177,3216,1680,983,16,59,17,8,2279,2659,1472,1622,0,3501,3876,0.132,3.764,9.067,-0.440,-0.176,-0.336,0.831,-2.552,9.919,0.102,0.031,-0.075,happy
7.98,1889,2304,3320,2127,1206,17,144,16,1,2193,2602,1049,1420,4,3400,3869,-0.503,1.863,9.555,-0.257,-0.068,-0.099,0.848,-2.586,9.843,0.097,0.030,-0.071,happy
7.99,2000,2404,3361,2277,1637,22,720,17,1,1933,2142,211,793,1,3103,3860,-0.232,3.450,9.718,-0.159,0.030,-0.034,0.699,-2.811,10.211,0.101,-0.063,-0.166,happy
8.00,2275,2611,3472,2337,2032,421,1735,1360,0,1325,752,0,555,0,2620,3811,0.263,3.773,9.352,-0.125,0.044,-0.027,0.467,-2.121,10.958,0.065,-0.126,-0.215,happy
8.01,2139,2535,3400,1924,2128,247,2006,2139,1,991,2,7,579,0,2430,3758,0.622,3.661,9.313,-0.092,0.036,-0.001,-0.086,-2.890,10.783,0.083,-0.225,-0.276,happy
8.02,2080,2495,3357,1713,2201,235,2297,2633,9,0,0,0,199,0,1961,3606,0.536,3.711,9.273,-0.061,0.073,-0.023,-2.923,-2.030,11.768,-0.072,-0.824,-0.129,happy
8.03,2010,2195,3294,1616,2171,233,2585,2951,0,0,2,0,35,0,1298,3379,0.627,3.627,9.215,-0.068,0.127,-0.044,-2.648,-3.991,9.898,0.271,-1.547,0.117,happy
8.04,1956,2022,3203,1664,2181,313,2786,3234,0,0,7,29,0,0,983,3261,0.280,3.608,9.282,-0.063,0.167,-0.063,-3.824,-2.780,10.793,1.157,-0.972,1.030,happy
8.05,1737,1919,3018,1639,2198,324,2896,3401,0,0,0,0,0,0,521,2841,0.194,3.627,9.409,-0.054,0.173,-0.078,-16.891,-2.325,19.613,2.610,-0.574,4.351,happy
8.06,1582,1837,2893,1599,2256,326,3006,3522,0,0,0,0,0,0,91,1801,0.218,3.721,9.491,-0.033,0.157,-0.055,-14.281,-6.385,12.136,2.854,-0.818,7.740,happy
8.07,1558,1935,2843,1603,2249,393,3095,3651,0,0,0,0,0,0,0,1361,0.239,3.649,9.369,-0.026,0.144,-0.032,-10.250,-10.302,10.326,2.836,-0.757,8.729,happy
8.08,1494,1882,2703,1497,2225,314,3134,3700,0,0,0,0,0,14,0,503,-0.306,3.539,9.404,0.002,0.117,-0.018,-3.941,-12.117,6.151,2.465,-1.632,8.731,happy
8.09,1477,1892,2673,1467,2345,420,3195,3754,0,0,0,0,0,0,39,243,0.165,3.618,9.426,0.000,0.078,-0.005,-0.022,-11.863,6.749,2.011,-2.299,8.507,happy
8.10,1510,1840,2625,1456,2401,308,3211,3766,0,0,0,0,0,0,0,216,0.223,3.536,9.440,0.015,0.087,-0.012,6.929,-9.610,5.454,1.642,-1.389,7.562,happy
8.11,1572,1877,2669,1501,2386,489,3249,3793,0,0,12,0,0,0,0,140,0.141,3.438,9.318,0.055,0.055,-0.030,4.609,-6.309,7.606,0.843,1.171,5.105,happy
8.12,1712,1966,2783,1680,2487,832,3307,3827,0,0,0,0,0,0,0,0,0.189,3.510,9.280,0.061,0.029,-0.013,2.883,-5.239,10.963,0.383,0.620,3.196,happy
8.13,1715,1998,2842,1808,2445,919,3292,3829,0,0,0,0,0,0,0,0,0.184,3.486,9.395,0.104,0.003,-0.021,2.859,-4.515,10.676,0.310,0.506,2.590,happy
8.14,1776,1958,2934,1941,2386,976,3253,3815,0,0,0,0,0,0,0,0,0.077,3.575,9.366,0.092,0.014,0.001,1.068,-3.996,10.427,0.316,0.644,1.783,happy
8.15,1955,2054,3049,2224,2457,991,3211,3882,0,0,0,0,0,0,0,0,0.055,3.644,9.359,0.097,0.028,0.004,-0.371,-3.077,8.471,0.159,0.967,1.500,happy
8.16,1955,1958,3049,2256,2390,650,3089,3786,0,0,0,27,0,0,0,0,0.172,3.551,9.256,0.103,0.035,-0.002,-0.824,-3.043,8.538,0.145,1.205,1.577,happy
8.17,2032,1956,3099,2368,2381,502,3007,3754,0,0,0,0,0,0,0,0,0.091,3.656,9.380,0.111,0.047,-0.008,-2.593,-3.108,11.267,0.173,0.857,1.891,happy
