timestamp,L1,L2,L3,L4,L5,L6,L7,L8,R1,R2,R3,R4,R5,R6,R7,R8,acc_x_left,acc_y_left,acc_z_left,gyro_x_left,gyro_y_left,gyro_z_left,acc_x_right,acc_y_right,acc_z_right,gyro_x_right,gyro_y_right,gyro_z_right,mood
0.00,2513,2085,3083,2647,1371,0,1595,2805,136,1350,2433,3311,767,39,2583,3531,0.010,3.649,9.328,0.041,0.025,-0.006,0.579,-2.691,9.792,0.008,0.021,0.014,happy
0.01,2515,2096,3071,2642,1375,0,1584,2800,141,1371,2433,3311,796,40,2591,3535,-0.031,3.658,9.349,0.046,0.027,-0.004,0.577,-2.684,9.795,0.011,0.021,0.013,happy
0.02,2511,2094,3069,2638,1378,0,1578,2793,143,1370,2449,3311,825,37,2585,3534,-0.029,3.646,9.340,0.046,0.022,-0.009,0.563,-2.674,9.716,0.005,0.020,0.013,happy
0.03,2533,2080,3071,2604,1397,0,1575,2758,163,1337,2439,3315,782,41,2595,3533,-0.034,3.627,9.268,0.046,0.023,-0.007,0.546,-2.705,9.850,0.005,0.023,0.017,happy
0.04,2513,2096,3069,2638,1381,0,1585,2781,153,1362,2439,3274,803,41,2527,3537,-0.029,3.601,9.357,0.045,0.026,-0.007,0.570,-2.682,9.833,0.006,0.026,0.017,happy
0.05,2511,2096,3071,2631,1383,0,1581,2771,167,1394,2439,3312,758,41,2588,3541,-0.048,3.658,9.304,0.042,0.023,-0.003,0.543,-2.684,9.831,0.002,0.025,0.018,happy
0.06,2490,2086,3043,2610,1370,0,1559,2743,163,1397,2444,3320,805,42,2580,3543,-0.005,3.622,9.292,0.044,0.027,-0.005,0.579,-2.662,9.754,0.007,0.025,0.017,happy
0.07,2513,2111,3071,2627,1392,0,1584,2768,169,1399,2444,3320,788,43,2579,3532,0.002,3.651,9.333,0.043,0.024,-0.009,0.599,-2.665,9.749,0.004,0.024,0.014,happy
0.08,2514,2115,3079,2629,1394,0,1584,2768,170,1403,2441,3324,855,86,2569,3527,-0.041,3.610,9.340,0.045,0.024,-0.006,0.608,-2.667,9.732,0.006,0.024,0.015,happy
0.09,2514,2091,3071,2594,1402,0,1584,2736,169,1415,2439,3333,869,41,2568,3543,0.014,3.606,9.328,0.042,0.027,-0.006,0.582,-2.670,9.711,0.007,0.020,0.017,happy
0.10,2514,2124,3085,2629,1396,0,1587,2771,175,1406,2431,3327,845,39,2583,3539,-0.017,3.634,9.361,0.044,0.026,-0.006,0.572,-2.686,9.747,0.004,0.023,0.017,happy
0.11,2515,2128,3083,2625,1394,0,1593,2766,181,1420,2500,3338,797,45,2579,3545,-0.036,3.618,9.278,0.045,0.022,-0.009,0.579,-2.648,9.799,0.010,0.023,0.016,happy
0.12,2496,2083,3069,2602,1392,0,1610,2743,171,1429,2413,3285,809,45,2579,3547,-0.017,3.649,9.304,0.044,0.024,-0.004,0.572,-2.686,9.780,0.008,0.021,0.015,happy
0.13,2518,2129,3085,2638,1391,0,1600,2771,168,1431,2416,3337,793,43,2584,3548,-0.041,3.673,9.301,0.044,0.026,-0.010,0.599,-2.653,9.744,0.007,0.023,0.014,happy
0.14,2519,2137,3087,2630,1389,0,1600,2779,163,1440,2444,3339,815,41,2589,3547,-0.017,3.637,9.285,0.043,0.024,-0.005,0.601,-2.677,9.725,0.003,0.024,0.016,happy
0.15,2523,2112,3089,2613,1392,0,1609,2738,164,1463,2413,3341,792,39,2589,3549,-0.012,3.642,9.342,0.045,0.026,-0.010,0.563,-2.660,9.706,0.004,0.023,0.015,happy
0.16,2526,2145,3092,2630,1392,0,1613,2782,165,1446,2413,3337,829,40,2585,3546,-0.022,3.666,9.373,0.044,0.026,-0.006,0.584,-2.646,9.780,0.007,0.022,0.016,happy
0.17,2523,2151,3091,2640,1396,0,1613,2780,198,1485,2372,3347,846,0,2590,3547,-0.036,3.632,9.280,0.042,0.028,-0.010,0.591,-2.634,9.749,0.001,0.025,0.016,happy
0.18,2528,2162,3097,2608,1408,0,1612,2754,138,1493,2431,3349,856,42,2575,3547,-0.022,3.656,9.328,0.046,0.024,-0.010,0.639,-2.689,9.692,0.002,0.021,0.016,happy
0.19,2529,2160,3100,2643,1417,0,1616,2789,179,1496,2503,3345,854,89,2577,3541,-0.031,3.670,9.297,0.040,0.026,-0.007,0.577,-2.662,9.740,0.000,0.025,0.019,happy
0.20,2541,2179,3110,2645,1426,0,1627,2787,179,1501,2403,3352,839,43,2547,3551,-0.010,3.632,9.328,0.045,0.026,-0.006,0.567,-2.679,9.723,-0.001,0.028,0.015,happy
0.21,2557,2159,3114,2640,1442,0,1631,2752,180,1507,2439,3327,829,41,2543,3544,-0.024,3.608,9.316,0.046,0.023,-0.006,0.589,-2.693,9.730,0.000,0.020,0.017,happy
0.22,2547,2192,3120,2666,1454,0,1632,2783,188,1494,2439,3353,827,43,2531,3541,0.005,3.634,9.306,0.050,0.027,-0.007,0.613,-2.634,9.814,0.001,0.022,0.018,happy
0.23,2554,2206,3131,2672,1441,0,1631,2772,149,1497,2444,3355,819,28,2479,3535,-0.019,3.675,9.323,0.044,0.027,-0.007,0.596,-2.689,9.749,0.003,0.024,0.015,happy
0.24,2559,2179,3141,2634,1472,0,1633,2749,166,1495,2446,3357,828,41,2453,3531,0.005,3.697,9.287,0.047,0.027,-0.009,0.591,-2.708,9.771,-0.002,0.027,0.017,happy
0.25,2555,2208,3144,2679,1475,0,1631,2774,159,1491,2449,3353,853,23,2443,3499,0.022,3.675,9.297,0.048,0.026,-0.004,0.565,-2.662,9.685,0.001,0.022,0.014,happy
0.26,2559,2208,3152,2682,1489,0,1633,2769,173,1497,2444,3357,823,41,2413,3517,-0.041,3.632,9.330,0.042,0.023,-0.006,0.589,-2.667,9.747,0.004,0.023,0.015,happy
0.27,2559,2205,3152,2672,1493,0,1658,2736,213,1499,2446,3354,780,3,2403,3516,-0.029,3.598,9.301,0.042,0.028,-0.011,0.551,-2.698,9.776,-0.002,0.025,0.016,happy
0.28,2553,2228,3155,2695,1489,0,1665,2779,229,1495,2446,3365,807,47,2399,3503,0.022,3.663,9.342,0.043,0.025,-0.007,0.596,-2.667,9.701,0.005,0.024,0.014,happy
0.29,2559,2232,3155,2695,1498,0,1670,2783,199,1519,2449,3359,809,43,2403,3503,-0.002,3.596,9.297,0.049,0.024,-0.008,0.584,-2.660,9.771,0.005,0.025,0.015,happy
0.30,2559,2219,3159,2660,1495,0,1673,2761,214,1501,2472,3357,793,44,2387,3504,-0.045,3.575,9.304,0.046,0.025,-0.003,0.589,-2.701,9.756,0.003,0.024,0.017,happy
0.31,2559,2239,3161,2695,1488,0,1682,2794,204,1496,2451,3335,799,45,2395,3497,-0.002,3.615,9.323,0.047,0.027,-0.005,0.539,-2.689,9.754,0.001,0.022,0.017,happy
0.32,2559,2247,3166,2704,1489,0,1692,2797,207,1503,2449,3334,755,43,2388,3496,-0.019,3.618,9.290,0.049,0.024,-0.003,0.589,-2.737,9.759,0.003,0.023,0.011,happy
0.33,2559,2250,3169,2671,1488,0,1690,2800,207,1503,2449,3356,799,43,2350,3483,-0.012,3.630,9.323,0.045,0.022,-0.004,0.558,-2.725,9.792,0.002,0.023,0.013,happy
0.34,2559,2255,3173,2705,1499,0,1689,2799,232,1448,2451,3357,791,45,2378,3541,-0.005,3.644,9.251,0.046,0.025,-0.003,0.555,-2.698,9.749,0.003,0.022,0.016,happy
0.35,2583,2256,3177,2703,1493,0,1693,2799,117,1519,2469,3339,857,43,2363,3439,0.002,3.649,9.266,0.046,0.027,-0.008,0.625,-2.674,9.764,0.004,0.019,0.011,happy
0.36,2581,2261,3181,2685,1475,0,1699,2800,215,1529,2469,3359,813,79,2365,3467,-0.026,3.675,9.294,0.046,0.022,-0.006,0.579,-2.684,9.747,0.004,0.022,0.013,happy
0.37,2586,2257,3183,2705,1475,0,1696,2803,229,1546,2472,3359,806,43,2355,3465,0.000,3.615,9.258,0.050,0.027,-0.013,0.546,-2.655,9.713,0.003,0.025,0.015,happy
0.38,2593,2251,3179,2687,1501,0,1695,2781,222,1555,2413,3293,807,18,2349,3448,-0.031,3.630,9.390,0.048,0.029,-0.004,0.567,-2.667,9.766,0.002,0.025,0.012,happy
0.39,2590,2247,3183,2686,1519,0,1706,2801,207,1557,2469,3359,787,45,2345,3451,-0.005,3.637,9.328,0.039,0.027,-0.010,0.584,-2.691,9.720,0.006,0.024,0.017,happy
0.40,2591,2274,3181,2717,1509,0,1701,2819,201,1559,2472,3359,764,47,2318,3453,-0.012,3.661,9.369,0.045,0.023,-0.009,0.565,-2.682,9.747,0.007,0.021,0.018,happy
0.41,2591,2274,3185,2718,1520,0,1715,2818,170,1557,2444,3357,747,40,2365,3450,0.005,3.632,9.287,0.046,0.028,-0.010,0.551,-2.686,9.785,0.008,0.019,0.014,happy
0.42,2601,2253,3183,2697,1509,0,1713,2790,168,1561,2454,3359,764,40,2315,3447,0.017,3.658,9.318,0.041,0.028,-0.005,0.579,-2.717,9.759,0.003,0.026,0.014,happy
0.43,2635,2297,3184,2722,1519,0,1719,2806,165,1563,2454,3358,775,58,2317,3449,0.024,3.634,9.309,0.039,0.030,-0.005,0.546,-2.705,9.706,0.003,0.022,0.015,happy
0.44,2602,2291,3185,2732,1494,0,1728,2832,188,1565,2454,3381,746,43,2335,3421,0.000,3.634,9.270,0.042,0.028,-0.006,0.625,-2.672,9.787,0.006,0.020,0.015,happy
0.45,2608,2288,3187,2689,1503,0,1733,2832,188,1549,2449,3384,755,43,2357,3452,-0.026,3.642,9.330,0.044,0.030,-0.011,0.582,-2.689,9.718,0.006,0.021,0.016,happy
0.46,2610,2288,3183,2727,1495,0,1748,2835,182,1555,2444,3372,709,41,2332,3453,-0.007,3.651,9.333,0.044,0.029,-0.005,0.534,-2.734,9.756,0.007,0.025,0.015,happy
0.47,2583,2269,3161,2739,1491,0,1741,2825,201,1543,2433,3368,731,43,2328,3455,-0.034,3.620,9.203,0.041,0.024,-0.007,0.587,-2.689,9.768,0.005,0.022,0.015,happy
0.48,2608,2298,3191,2710,1486,0,1765,2819,215,1499,2382,3379,710,45,2331,3463,-0.057,3.644,9.330,0.044,0.024,-0.005,0.596,-2.682,9.780,0.009,0.022,0.013,happy
0.49,2608,2293,3191,2736,1424,0,1776,2873,201,1465,2398,3367,691,41,2319,3439,-0.041,3.620,9.340,0.035,0.027,-0.005,0.589,-2.727,9.706,0.009,0.017,0.013,happy
0.50,2621,2298,3185,2745,1443,0,1813,2896,205,1447,2244,3365,572,37,2313,3467,-0.026,3.675,9.335,0.029,0.026,-0.009,0.491,-2.701,9.819,0.007,0.013,0.014,happy
0.51,2618,2274,3183,2704,1397,0,1869,2893,198,1291,2116,3350,489,43,2309,3539,-0.141,3.668,9.311,0.023,0.019,-0.003,0.539,-2.684,9.855,0.019,0.020,0.016,happy
0.52,2603,2293,3175,2726,1280,0,1914,2967,179,1112,2080,3288,438,49,2251,3469,-0.091,3.625,9.313,0.013,0.005,0.001,0.543,-2.693,9.802,0.020,0.012,0.014,happy
0.53,2544,2286,3162,2704,1221,0,1943,3025,89,781,2055,3221,255,31,2151,3474,-0.017,3.701,9.309,-0.012,0.002,0.010,0.599,-2.722,9.718,0.029,0.012,0.009,happy
0.54,2364,2238,3103,2559,1344,0,1855,3071,37,505,1960,3067,106,11,2089,3480,0.007,3.594,9.347,-0.047,0.005,0.013,0.565,-2.682,9.720,0.028,0.011,0.005,happy
0.55,1503,2235,3002,2249,1447,0,1968,3205,9,316,1655,2963,159,5,2015,3485,0.180,3.393,9.383,-0.029,0.007,0.014,0.529,-2.660,9.713,0.028,0.013,0.001,happy
0.56,1152,2181,2918,1665,1535,0,2125,3268,0,162,1691,2734,0,3,1881,3481,-0.093,3.563,9.383,-0.021,0.010,0.015,0.536,-2.662,9.809,0.026,-0.002,0.001,happy
0.57,1018,2109,2824,1143,1525,0,2215,3282,0,0,578,1785,0,0,1775,3493,0.038,3.570,9.321,-0.017,0.009,0.015,0.603,-2.538,9.713,0.004,-0.009,-0.010,happy
0.58,1102,2020,2726,912,1488,0,2304,3359,0,1,243,1722,0,0,1679,3475,0.065,3.460,9.309,-0.019,0.026,0.015,0.613,-2.519,9.814,-0.029,-0.014,-0.007,happy
0.59,1060,1897,2559,672,1409,0,2355,3360,0,0,478,1633,0,1,1517,3475,0.038,3.496,9.275,-0.019,0.021,0.022,0.555,-2.670,9.773,-0.010,-0.009,0.002,happy
0.60,1088,1745,2429,600,1317,0,2374,3409,0,0,565,1583,0,0,1366,3483,0.022,3.357,9.325,0.000,0.041,0.007,0.596,-2.679,9.787,0.010,0.014,0.007,happy
0.61,1058,1722,2376,595,1317,0,2428,3423,0,0,440,1514,0,0,1443,3431,0.165,3.510,9.311,0.050,0.054,-0.019,0.591,-2.689,9.809,0.012,0.021,0.009,happy
0.62,1115,1645,2374,684,1301,0,2387,3435,5,0,401,1589,16,0,1449,3503,0.103,3.462,9.364,0.072,0.062,-0.026,0.606,-2.696,9.787,0.013,0.038,0.016,happy
0.63,1205,1560,2375,772,1243,0,2375,3406,1,0,529,1768,0,2,1499,3529,0.091,3.440,9.313,0.095,0.077,-0.037,0.563,-2.660,9.701,0.030,0.038,0.016,happy
0.64,1296,1408,2407,907,1263,0,2259,3430,6,0,468,1833,14,0,1572,3538,0.036,3.486,9.359,0.121,0.072,-0.039,0.718,-2.710,9.641,0.033,0.044,0.017,happy
0.65,1330,1254,2433,1073,1200,0,2047,3400,4,6,473,1926,51,0,1650,3557,-0.036,3.567,9.330,0.111,0.070,-0.026,0.625,-2.677,9.764,0.031,0.038,0.015,happy
0.66,1427,1168,2464,1163,1120,0,1900,3309,0,11,1589,2057,76,0,1766,3565,0.019,3.524,9.407,0.122,0.056,-0.021,0.637,-2.648,9.723,0.038,0.032,0.015,happy
0.67,1535,1247,2559,1387,917,0,1647,3230,0,1,1614,2100,102,0,1815,3575,-0.029,3.620,9.361,0.149,0.030,-0.017,0.555,-2.629,9.764,0.039,0.029,0.006,happy
0.68,1658,1342,2701,1600,825,0,1322,3056,0,1,1661,2187,170,17,1951,3595,-0.017,3.630,9.270,0.151,0.016,-0.014,0.699,-2.521,9.646,0.035,0.012,0.008,happy
0.69,1815,1501,2815,1770,592,0,823,2599,1,87,1901,2283,269,0,2277,3607,-0.026,3.687,9.352,0.163,0.011,0.003,0.498,-2.777,9.938,0.059,0.005,0.010,happy
0.70,1961,1616,2896,1963,423,0,261,1264,1,147,1922,2343,312,2,2313,3627,0.091,3.658,9.493,0.188,0.009,0.020,0.565,-2.559,9.699,0.060,0.035,0.018,happy
0.71,2042,1658,2938,1998,261,0,0,0,1,465,1991,2455,574,4,2511,3662,0.014,3.117,9.292,0.367,0.026,0.117,0.589,-2.648,9.787,0.048,0.024,0.016,happy
0.72,2107,1535,2959,1904,16,0,0,0,7,684,2224,2573,781,3,2735,3645,-0.369,3.943,9.428,0.495,0.002,0.153,0.618,-2.533,9.677,0.036,0.026,0.023,happy
0.73,2100,1201,2901,1504,0,0,0,0,31,941,2239,2669,936,7,2815,3655,-0.172,3.019,9.562,0.962,0.026,0.311,0.730,-2.602,9.730,0.043,0.027,0.033,happy
0.74,2059,566,2627,958,0,0,0,0,5,1157,2528,2781,1277,3,2943,3672,0.709,3.950,10.053,1.377,0.224,0.297,0.577,-2.495,9.773,0.025,0.037,0.036,happy
0.75,1899,0,1572,229,0,0,0,0,61,1271,2669,2979,1471,2,3033,3679,1.123,4.460,10.092,1.710,0.359,-0.073,0.570,-2.607,9.783,-0.002,0.038,0.033,happy
0.76,1650,0,0,0,0,0,0,0,59,1255,2695,2963,1483,19,3061,3788,1.645,5.444,11.521,1.977,0.245,-0.785,0.587,-2.653,9.811,0.004,0.036,0.032,happy
0.77,336,0,0,0,0,0,0,0,145,1391,2807,3063,1817,31,3119,3655,1.769,2.998,13.867,1.653,0.608,-1.615,0.524,-2.634,9.900,-0.003,0.030,0.025,happy
0.78,0,0,0,0,0,0,0,0,133,1402,2774,3141,1941,35,3129,3599,-0.079,2.808,14.708,0.633,0.365,-1.618,0.539,-2.557,9.756,-0.026,0.026,0.023,happy
0.79,0,0,0,0,0,0,0,0,163,1527,2771,3151,1972,39,3141,3557,4.125,-1.707,10.970,-0.125,-0.365,-1.198,0.591,-2.617,9.766,-0.034,0.023,0.019,happy
0.80,0,0,0,0,0,0,0,0,233,1595,2794,3193,2155,47,3116,3481,4.154,-1.942,9.831,-0.410,-0.497,-0.791,0.606,-2.607,9.732,-0.032,0.019,0.019,happy
0.81,0,0,0,0,0,0,0,0,356,1627,2776,3251,2223,48,3003,3369,4.001,-1.410,10.271,-0.749,-0.785,-0.341,0.565,-2.605,9.814,-0.039,0.023,0.025,happy
0.82,0,0,0,0,0,0,0,0,403,1643,2815,3279,2257,7,3017,3311,3.263,-0.376,10.721,-1.125,-0.887,0.079,0.709,-2.253,9.627,-0.069,0.039,0.020,happy
0.83,0,0,0,0,0,0,0,0,571,1771,2810,3341,2331,51,2963,3165,2.466,0.663,11.241,-1.431,-0.979,0.392,0.627,-2.614,9.797,-0.023,0.031,0.026,happy
0.84,0,0,0,0,0,0,0,0,749,1887,2828,3385,2399,48,2863,2807,2.002,1.839,11.413,-1.688,-0.989,0.625,0.622,-2.672,9.780,-0.026,0.027,0.025,happy
0.85,0,0,0,0,0,0,0,0,825,1912,2815,3381,2411,51,2808,2575,1.456,2.686,10.712,-1.827,-0.864,0.789,0.515,-2.605,9.902,-0.035,0.029,0.018,happy
0.86,0,0,0,0,0,0,0,0,978,1947,2838,3384,2494,94,2659,2557,0.725,2.919,9.246,-1.688,-0.599,0.757,0.503,-2.682,9.867,-0.038,0.023,0.023,happy
0.87,0,0,0,0,0,0,0,0,1165,1973,2853,3455,2557,74,2567,2501,0.783,3.900,9.057,-1.406,0.049,0.511,0.560,-2.686,9.740,-0.031,0.019,0.025,happy
0.88,0,0,0,0,0,0,0,0,1176,2077,2858,3487,2579,52,2467,2439,0.153,5.528,11.473,-1.196,0.504,0.331,0.627,-2.686,9.718,-0.039,0.025,0.023,happy
0.89,0,0,0,0,0,0,0,0,1349,2007,2899,3542,2587,51,2347,2173,-0.196,7.245,12.234,-1.439,0.634,0.332,0.529,-2.648,9.675,-0.058,0.009,0.020,happy
0.90,0,0,0,0,0,0,0,0,1571,2079,2945,3610,2643,51,2284,1645,-0.395,7.707,10.872,-1.619,0.735,0.298,0.567,-2.744,9.706,-0.058,0.001,0.015,happy
0.91,0,0,0,0,0,0,0,0,1694,2073,3002,3628,2607,51,2101,1435,-0.886,8.025,9.354,-1.488,0.365,0.368,0.603,-2.758,9.759,-0.064,0.003,0.018,happy
0.92,0,0,0,0,0,0,0,0,2059,2157,3063,3677,2396,73,1549,375,0.579,9.749,8.882,-1.285,-0.407,0.771,0.510,-2.746,9.644,-0.085,0.000,0.014,happy
0.93,0,0,0,0,0,0,0,0,2207,2207,3007,3731,2117,46,1247,261,-1.252,9.048,5.083,-1.177,-0.732,1.393,0.443,-2.543,9.627,-0.015,-0.011,0.041,happy
0.94,0,0,0,0,0,0,0,0,2364,2295,3048,3768,2119,21,805,111,-1.209,10.415,1.209,-0.612,-0.639,1.945,0.622,-2.789,9.941,-0.029,0.022,0.030,happy
0.95,0,0,0,0,0,0,0,0,2551,2389,3066,3823,1765,29,249,89,-4.451,11.246,-0.268,0.108,-0.064,1.854,0.622,-2.691,9.699,-0.212,0.016,-0.031,happy
0.96,0,0,0,0,0,0,0,0,2729,2356,3091,3880,1272,25,93,159,6.165,4.858,0.232,0.677,2.193,1.574,0.218,-2.160,9.900,-0.487,0.073,-0.062,happy
0.97,0,0,0,0,0,0,0,547,2797,2439,3094,3895,960,19,134,75,-7.032,-8.167,17.322,0.276,2.015,1.240,0.639,-2.765,9.488,-0.443,-0.010,-0.054,happy
0.98,0,0,0,0,0,0,5,2599,2837,2461,3099,3807,755,43,233,63,-17.904,-5.660,4.058,3.036,0.179,-0.165,0.888,-3.323,9.740,-0.450,0.018,-0.055,happy
0.99,0,0,0,0,0,0,170,3263,3059,2408,3104,3931,392,0,7,24,2.971,9.031,12.984,2.743,-0.479,-0.119,1.602,-2.974,9.814,-0.670,-0.205,-0.222,happy
1.00,0,0,0,0,0,0,933,3505,3173,2261,3258,3815,41,0,0,11,-0.038,4.786,11.890,2.237,-0.244,-0.086,1.372,-3.601,10.226,-1.131,-0.460,-0.486,happy
1.01,0,0,0,0,272,0,1770,3606,3241,2135,3084,3913,0,0,0,0,13.843,19.613,19.613,0.440,0.734,-0.204,1.130,-2.813,10.206,-1.466,-0.470,-0.493,happy
1.02,0,0,0,0,619,0,2266,3648,3310,1427,3022,3827,0,3,0,0,-2.902,6.946,14.305,0.322,0.134,-0.054,1.822,-2.739,10.506,-2.112,0.192,-0.671,happy
1.03,64,1,0,0,806,0,2507,3639,3161,738,2894,3677,0,0,0,0,0.263,4.805,10.645,0.195,0.133,-0.094,2.265,-4.032,9.634,-2.989,1.003,-0.697,happy
1.04,334,256,170,0,1099,0,2768,3739,3025,543,2846,3591,0,0,0,0,0.718,4.008,10.151,0.220,0.048,-0.118,1.496,-3.630,9.826,-3.319,1.526,-0.580,happy
1.05,496,434,1017,86,1297,0,2928,3771,2684,489,2024,2953,0,0,0,0,0.371,3.338,9.610,0.201,0.077,-0.080,-0.084,-2.416,11.238,-4.831,1.176,0.886,happy
1.06,694,800,1747,380,1627,0,3046,3765,1646,0,7,1507,0,0,0,0,0.139,3.409,9.409,0.219,-0.002,-0.021,0.328,-6.340,13.688,-4.981,0.371,2.778,happy
1.07,875,1245,2215,859,1877,0,3157,3803,986,0,10,135,0,0,0,0,0.172,3.926,9.787,0.135,0.064,-0.035,-1.099,-8.837,14.923,-5.244,-0.795,2.707,happy
1.08,976,1450,2512,1104,2151,177,3235,3804,0,0,5,0,18,0,0,0,0.055,3.467,9.369,0.095,0.032,-0.009,0.359,-9.263,10.293,-5.294,-1.321,2.903,happy
1.09,1023,1570,2749,1456,2365,357,3298,3760,0,0,5,0,0,0,0,0,-0.055,3.603,9.493,0.112,0.025,-0.003,2.047,-4.666,19.146,-0.902,0.351,2.858,happy
1.10,1075,1807,2907,1775,2542,429,3334,3792,0,0,5,0,42,0,5,0,0.127,3.397,9.438,0.105,0.005,0.002,5.713,-1.238,18.153,0.593,-0.701,1.229,happy
1.11,1088,1915,3056,2015,2686,367,3349,3753,0,0,5,0,0,0,0,0,-0.050,3.333,9.347,0.104,0.002,-0.002,4.245,0.812,7.587,1.626,-0.039,0.252,happy
1.12,1178,2010,3137,2124,2751,282,3335,3662,0,0,2,17,0,0,0,0,0.091,3.445,9.373,0.100,-0.014,-0.002,2.456,0.273,6.012,1.943,-0.369,-0.502,happy
1.13,1283,2141,3198,2239,2833,143,3315,3628,0,45,2,0,0,0,0,0,0.113,3.452,9.390,0.102,-0.007,-0.013,1.659,-0.381,6.591,2.105,-0.410,-0.678,happy
1.14,1383,2252,3248,2336,2928,176,3297,3606,0,0,2,0,0,35,0,0,0.201,3.517,9.361,0.124,-0.007,-0.025,0.512,-2.878,9.651,2.846,-0.532,-0.751,happy
1.15,1522,2299,3296,2400,3025,176,3271,3536,0,0,2,0,0,0,0,0,0.151,3.627,9.424,0.106,0.013,-0.025,0.065,-3.802,8.842,3.276,-0.643,-0.727,happy
1.16,1696,2415,3345,2518,3104,242,3245,3536,0,0,7,10,0,0,27,3,0.093,3.534,9.424,0.095,0.024,-0.027,0.086,-4.527,9.522,3.333,-0.709,-0.759,happy
1.17,1821,2480,3349,2592,3163,285,3215,3519,2,0,0,0,0,0,0,0,0.273,3.610,9.378,0.098,0.040,-0.032,0.429,-6.108,11.614,3.625,-0.818,-0.954,happy
1.18,1919,2483,3403,2643,3203,338,3137,3471,0,0,0,0,0,0,0,0,0.187,3.632,9.364,0.093,0.053,-0.038,0.771,-5.808,10.120,3.521,-0.566,-1.105,happy
1.19,2019,2559,3431,2762,3216,305,3052,3441,0,0,0,0,0,0,0,0,0.007,3.560,9.337,0.086,0.063,-0.032,0.869,-6.074,10.803,3.422,-0.614,-1.148,happy
1.20,2128,2617,3457,2823,3219,177,2966,3389,0,0,2,0,0,0,0,0,0.086,3.620,9.354,0.081,0.053,-0.028,1.884,-6.127,11.059,3.316,-0.582,-1.301,happy
1.21,2160,2599,3478,2847,3218,51,2870,3311,0,0,2,0,0,0,0,0,0.132,3.601,9.366,0.070,0.058,-0.030,0.524,-5.619,11.250,2.903,-0.712,-1.410,happy
1.22,2160,2634,3503,2919,3213,1,2722,3269,0,0,2,0,0,0,1,0,0.096,3.596,9.316,0.074,0.056,-0.029,0.043,-5.502,11.732,2.720,-0.818,-1.377,happy
1.23,2208,2659,3523,2985,3207,0,2458,3173,0,0,5,0,0,0,0,0,0.105,3.615,9.330,0.080,0.057,-0.027,-2.028,-5.727,12.929,2.259,-1.011,-1.034,happy
1.24,2262,2651,3564,3008,3189,0,2371,3051,0,0,0,0,0,0,0,0,0.041,3.622,9.313,0.077,0.052,-0.022,-1.293,-7.966,14.875,2.345,-1.321,-0.517,happy
1.25,2390,2699,3599,3083,3164,0,2184,2830,0,0,2,0,0,0,0,0,0.127,3.591,9.242,0.094,0.059,-0.021,-0.943,-9.196,14.676,2.403,-1.209,-0.410,happy
1.26,2439,2733,3630,3131,3059,0,1898,2434,0,0,2,0,0,0,0,0,0.067,3.610,9.282,0.103,0.075,-0.016,0.182,-11.155,10.855,2.305,-0.930,-0.535,happy
1.27,2558,2719,3663,3169,2899,0,1517,1651,0,0,5,0,0,0,0,0,0.055,3.596,9.349,0.130,0.091,-0.008,0.936,-11.765,5.974,1.715,-0.627,-1.125,happy
1.28,2674,2797,3703,3273,2759,0,1108,454,0,0,2,0,0,0,0,0,0.117,3.677,9.390,0.152,0.126,0.000,0.383,-11.492,3.807,1.211,-0.434,-1.399,happy
1.29,2731,2815,3718,3313,2682,0,855,0,0,0,2,0,0,0,0,0,0.055,3.668,9.287,0.194,0.157,0.008,-1.827,-11.983,3.019,0.727,-0.316,-1.468,happy
1.30,2805,2831,3747,3328,2559,0,681,0,0,0,20,0,0,0,0,0,0.010,3.907,9.366,0.227,0.177,0.007,-3.488,-12.172,2.061,0.229,-0.385,-1.317,happy
1.31,2848,2850,3760,3399,2423,0,465,0,5,0,2,0,0,0,0,0,-0.057,3.800,9.618,0.239,0.180,0.027,-3.936,-11.981,1.762,-0.288,-0.305,-0.999,happy
1.32,2867,2839,3778,3435,2211,0,240,0,0,0,2,0,0,0,19,0,0.213,3.199,9.400,0.431,0.195,0.075,-3.680,-12.107,2.971,-0.668,-0.052,-0.546,happy
1.33,2985,2790,3798,3472,1893,0,158,0,0,0,0,0,0,6,0,0,0.261,3.603,9.586,0.484,0.126,0.103,-1.776,-10.008,-1.324,-1.803,0.290,-0.357,happy
1.34,3031,2722,3802,3515,1435,0,0,0,0,0,2,0,0,0,0,0,0.383,3.804,9.471,0.543,0.056,0.132,5.842,-6.203,16.130,-0.250,2.299,0.246,happy
1.35,3095,2633,3823,3531,1200,0,0,0,0,0,0,0,0,0,0,0,-0.029,3.419,9.464,0.776,0.049,0.231,-0.560,5.195,15.771,-1.228,1.192,-0.138,happy
1.36,3170,2469,3832,3568,846,0,0,0,0,0,2,0,0,0,0,415,0.541,4.094,9.591,0.880,0.014,0.318,1.231,5.610,5.018,-2.459,0.449,-0.080,happy
1.37,3223,2423,3812,3598,819,0,0,0,0,0,5,0,0,0,0,1309,0.476,3.783,9.220,1.135,-0.019,0.411,-3.232,-1.350,10.329,-2.184,0.559,0.773,happy
1.38,3321,2371,3843,3583,375,0,0,0,0,13,0,0,0,7,0,2293,0.680,3.589,9.682,1.245,0.244,0.486,-3.776,-4.068,14.523,-2.068,0.216,0.682,happy
1.39,3390,2323,3841,3611,272,0,0,0,0,0,0,0,0,0,55,2969,0.108,4.096,8.720,1.472,0.265,0.611,-1.010,-1.393,12.282,-2.174,-0.112,0.586,happy
1.40,3473,2253,3826,3601,111,0,0,0,0,0,51,0,0,0,671,3217,0.278,3.910,8.918,1.559,0.449,0.626,1.923,-2.933,10.254,-2.186,-0.597,0.514,happy
1.41,3531,2251,3805,3570,0,0,0,0,0,0,0,0,0,13,1077,3367,0.534,5.239,9.038,1.477,0.670,0.676,2.447,-5.274,14.372,-1.917,-0.982,0.239,happy
1.42,3583,2305,3723,3524,0,0,0,0,0,0,0,0,0,0,1415,3477,1.374,5.753,10.501,1.636,0.844,0.658,2.804,-5.229,13.029,-1.436,-0.875,0.059,happy
1.43,3634,2089,3637,3440,0,0,0,0,0,0,2,0,0,45,1545,3539,0.804,5.124,9.251,1.758,0.977,0.678,2.660,-5.871,12.670,-0.209,0.816,0.734,happy
1.44,3661,1840,3389,3249,0,0,0,0,0,0,5,0,0,0,1801,3589,0.223,4.666,8.727,2.020,1.061,0.674,1.401,-2.133,9.819,-0.264,-0.243,-0.227,happy
1.45,3667,1692,3227,3009,0,0,0,0,0,0,2,0,0,0,2063,3610,0.208,4.870,8.222,2.374,1.232,0.643,-0.517,-0.539,11.631,-0.216,0.489,0.247,happy
1.46,3626,1586,3163,2891,0,0,0,0,0,0,2,0,0,0,2185,3640,-0.476,5.124,7.566,2.712,1.313,0.551,1.808,-2.557,10.192,-0.187,0.375,0.161,happy
1.47,3543,1499,3095,2749,0,0,0,0,0,0,0,0,0,0,2311,3673,-0.419,3.941,7.745,3.251,1.139,0.337,2.035,-2.081,9.589,-0.136,0.487,0.229,happy
1.48,3401,1459,2977,2387,0,0,0,0,0,0,0,0,263,0,2469,3707,0.101,5.624,11.169,3.833,0.637,0.094,0.723,-2.547,10.853,-0.103,0.451,0.252,happy
1.49,3121,1049,2647,1968,0,0,0,0,0,0,5,0,446,0,2631,3740,-0.421,6.079,11.248,4.823,-0.050,-0.485,1.286,-2.315,10.307,-0.103,0.369,0.215,happy
1.50,2204,0,1365,883,0,0,0,0,0,0,5,0,375,0,2875,3821,-1.101,10.867,11.818,5.229,-1.358,-1.623,0.974,-2.502,10.587,-0.013,0.158,0.094,happy
1.51,1360,0,323,183,0,0,0,0,0,0,7,0,415,0,2924,3851,-3.055,11.712,11.059,5.945,-1.867,-1.862,1.549,-2.200,9.871,0.039,0.130,0.068,happy
1.52,523,0,0,0,0,0,0,0,0,0,5,0,439,0,3001,3863,-1.836,11.988,11.157,6.817,-2.073,-2.239,1.506,-2.435,9.855,0.038,0.093,0.039,happy
1.53,215,0,0,0,0,0,0,0,0,0,5,0,588,0,3029,3899,-1.808,8.361,11.229,6.534,-1.945,-2.506,1.623,-2.315,9.711,0.059,0.083,0.024,happy
1.54,0,0,0,0,0,0,0,0,0,0,2,0,887,0,3125,3923,0.441,8.643,12.428,5.467,-1.759,-2.756,1.415,-2.263,9.941,0.068,0.057,0.004,happy
1.55,0,0,0,0,0,0,0,0,0,0,58,0,997,0,3149,3935,7.693,8.442,19.324,2.678,-0.630,-3.414,1.302,-2.385,10.084,0.082,0.007,-0.010,happy
1.56,0,0,0,0,0,0,0,0,9,0,5,0,1159,11,3237,3934,3.713,15.919,19.613,0.546,-0.116,-1.845,1.264,-2.152,9.893,0.076,0.014,-0.010,happy
1.57,0,0,0,0,0,0,0,0,0,0,5,0,1403,0,3307,3939,5.234,2.902,16.477,-0.907,-0.884,-0.467,1.523,-2.100,9.615,0.067,0.025,0.007,happy
1.58,0,0,0,0,0,0,0,0,10,0,12,0,1573,0,3375,3933,5.449,3.780,9.692,-1.586,-0.107,-0.266,1.573,-2.114,9.668,0.068,0.063,0.020,happy
1.59,0,0,0,0,0,0,0,0,0,0,33,0,1614,0,3413,3917,3.304,1.271,6.953,-2.024,-0.031,0.116,1.360,-1.942,9.524,0.054,0.134,0.043,happy
1.60,0,0,0,0,0,0,0,0,0,35,23,40,1669,0,3439,3871,1.650,1.372,5.854,-2.209,-0.140,0.329,1.358,-1.918,9.534,0.005,0.210,0.078,happy
1.61,0,0,0,0,0,0,0,0,0,143,1169,0,1759,0,3480,3737,0.486,1.415,6.012,-2.351,-0.442,0.444,1.329,-1.942,9.582,-0.009,0.287,0.100,happy
1.62,0,0,0,0,0,0,0,0,0,220,1630,25,1787,0,3485,3763,-0.091,2.646,7.535,-2.589,-0.714,0.433,1.401,-2.042,9.505,-0.028,0.333,0.112,happy
1.63,0,0,0,0,0,0,0,0,0,285,1773,0,1877,0,3497,3672,-0.144,3.946,8.648,-2.991,-0.838,0.377,0.986,-1.987,10.420,-0.080,0.312,0.131,happy
1.64,0,0,0,0,0,0,0,0,0,339,1799,0,1976,0,3486,3615,-0.115,4.791,8.416,-3.416,-0.821,0.293,1.243,-2.167,9.965,-0.051,0.304,0.144,happy
1.65,0,0,0,0,0,0,0,0,0,610,2009,3,2023,0,3492,3591,0.115,5.016,7.506,-3.714,-0.731,0.238,1.202,-2.212,9.862,-0.041,0.309,0.144,happy
1.66,0,0,0,0,0,0,0,0,0,853,2065,0,2087,0,3513,3575,-0.254,5.772,7.604,-3.869,-0.718,0.196,1.219,-2.253,9.898,-0.042,0.293,0.145,happy
1.67,0,0,0,0,0,0,0,0,1,1039,2157,78,2234,0,3448,3565,-0.448,6.505,7.810,-3.941,-0.855,0.200,1.142,-2.133,9.792,-0.053,0.289,0.152,happy
1.68,0,0,0,0,0,0,0,0,1,1143,2367,712,2349,4,3445,3575,-0.453,6.970,7.523,-3.975,-0.998,0.230,1.130,-1.899,9.629,-0.085,0.269,0.173,happy
1.69,0,0,0,0,0,0,0,0,2,1144,2362,953,2411,3,3430,3539,-0.122,7.700,7.405,-3.910,-1.077,0.282,0.982,-2.164,9.888,-0.081,0.244,0.181,happy
1.70,0,0,0,0,0,0,0,0,5,1195,2403,1228,2443,35,3387,3507,0.572,8.507,8.224,-3.794,-1.091,0.379,0.982,-2.435,10.022,-0.102,0.216,0.176,happy
1.71,0,0,0,0,0,0,0,0,0,1333,2403,1531,2548,3,3367,3509,1.475,9.278,9.649,-3.774,-1.068,0.590,1.123,-2.837,9.938,-0.029,0.197,0.167,happy
1.72,0,0,0,0,0,0,0,0,17,1415,2679,1828,2619,3,3316,3477,2.057,9.304,9.730,-3.819,-0.999,0.881,1.099,-3.256,10.154,-0.128,0.134,0.130,happy
1.73,0,0,0,0,0,0,0,0,2,1565,2710,1960,2719,2,3224,3443,2.016,8.583,9.062,-3.740,-0.938,1.157,0.927,-2.471,9.790,-0.132,0.125,0.159,happy
1.74,0,0,0,0,0,0,0,0,3,1639,2756,2205,2827,2,3033,3409,1.772,8.437,9.067,-3.554,-0.912,1.338,0.843,-2.315,9.807,-0.100,0.103,0.137,happy
1.75,0,0,0,0,0,0,0,0,1,1791,2771,2328,2904,4,2987,3316,1.580,8.830,10.044,-3.377,-0.892,1.472,0.860,-2.461,9.713,-0.117,0.105,0.127,happy
1.76,0,0,0,0,0,0,0,0,3,1833,2817,2469,2983,4,2990,3384,1.283,8.904,10.647,-3.219,-0.896,1.587,0.812,-2.258,10.048,-0.123,0.093,0.132,happy
1.77,0,0,0,0,0,0,0,0,0,1824,2756,2585,3043,18,3005,3335,0.967,8.887,11.114,-3.026,-0.936,1.706,0.757,-2.433,9.950,-0.124,0.086,0.129,happy
1.78,0,0,0,0,0,0,0,0,2,1887,2751,2631,3108,3,2987,3283,0.522,9.263,12.112,-2.868,-0.914,1.754,0.690,-2.404,9.874,-0.103,0.075,0.110,happy
1.79,0,0,0,0,0,0,0,0,3,1933,2764,2703,3165,2,2972,3211,-0.148,10.130,14.049,-2.834,-0.805,1.742,0.792,-2.586,9.946,-0.118,0.091,0.109,happy
1.80,0,0,0,0,0,0,0,0,3,1958,2879,2839,3263,2,2926,3077,-2.904,11.502,14.099,-3.062,-0.501,1.733,0.785,-2.564,9.704,-0.112,0.088,0.094,happy
1.81,0,0,0,0,0,0,0,0,73,2023,2807,2916,3305,19,2907,2981,-3.706,12.163,11.732,-2.862,-0.251,1.652,0.804,-2.562,10.027,-0.100,0.058,0.079,happy
1.82,0,0,0,0,0,0,0,0,137,2173,2833,3015,3401,68,2800,2728,-5.351,14.557,6.337,-2.575,0.741,1.068,0.848,-2.674,9.682,-0.097,0.062,0.078,happy
1.83,0,0,0,0,0,0,0,0,621,2253,2889,3141,3439,47,2687,2367,-11.076,14.128,-4.056,-1.425,-0.340,-0.163,0.692,-2.488,9.996,-0.146,0.050,0.046,happy
1.84,0,0,0,0,0,0,0,0,717,2201,2940,3189,3454,60,2665,2159,-7.393,16.843,-3.874,-0.102,-0.591,-1.345,0.778,-2.612,9.802,-0.145,0.032,0.037,happy
1.85,0,0,0,0,0,0,0,0,1179,2295,2986,3293,3428,51,2393,829,4.065,16.965,-10.891,1.379,2.947,-1.054,0.742,-2.588,9.637,-0.219,0.039,0.009,happy
1.86,0,0,0,0,0,0,0,848,1701,2415,3104,3417,3195,47,1955,443,-2.404,-6.019,19.613,1.034,2.538,-0.746,0.771,-3.077,9.888,-0.174,-0.005,0.028,happy
1.87,0,0,0,0,0,0,0,2730,1977,2493,3132,3487,2837,51,1359,345,3.172,-0.539,-0.697,3.632,0.269,0.168,1.621,-3.390,9.615,0.164,-0.096,0.162,happy
1.88,0,0,0,0,0,0,0,3258,2441,2605,3068,3601,2007,41,205,182,-6.591,7.020,13.645,3.067,-0.385,0.053,-0.469,0.259,10.827,-1.225,0.111,-0.298,happy
1.89,0,0,0,0,0,0,654,3408,2853,2580,3086,3699,600,22,268,101,2.741,4.688,10.096,3.080,-1.126,0.229,0.994,-2.751,9.754,-1.020,-0.029,-0.246,happy
1.90,0,0,0,0,314,0,1742,3396,3027,2541,3084,3669,264,19,105,78,17.183,19.613,19.613,2.620,1.953,-0.885,1.041,-2.586,9.603,-1.247,-0.305,-0.244,happy
1.91,83,142,0,0,704,0,2390,3419,3128,2205,3027,3665,135,16,191,45,-0.970,6.802,14.868,0.415,0.110,-0.170,0.654,-4.183,9.225,-1.449,-0.566,-0.431,happy
1.92,379,725,912,0,982,0,2704,3466,3151,1685,2971,3613,0,0,0,8,-1.204,4.312,10.611,0.349,-0.024,-0.063,1.640,-1.865,10.798,-2.744,0.210,-0.497,happy
1.93,460,1264,1859,162,1441,0,2938,3583,2915,1320,3068,3533,0,0,0,0,-0.057,3.761,9.950,0.127,0.111,-0.089,0.591,-1.863,9.890,-3.343,0.491,-0.507,happy
1.94,555,1527,2336,320,1792,0,3111,3650,2315,626,3017,3001,0,0,0,0,0.306,3.438,9.512,0.094,0.080,-0.036,1.290,-2.033,12.189,-4.277,0.666,-0.055,happy
1.95,593,1721,2608,679,2095,0,3262,3648,1401,75,1676,1291,0,0,0,0,0.103,3.349,9.373,0.089,-0.017,0.012,-0.297,-5.698,13.824,-6.087,-0.349,1.070,happy
1.96,560,1910,2815,994,2519,0,3361,3696,865,0,2,275,0,0,0,0,0.455,3.666,9.694,0.090,0.009,0.005,0.541,-4.963,14.767,-6.731,-1.261,1.641,happy
1.97,607,2096,2997,1200,2801,78,3449,3703,91,0,23,0,0,0,0,0,0.457,3.476,9.443,0.125,0.002,-0.029,1.532,-10.676,10.403,-7.080,-2.287,2.129,happy
1.98,720,2231,3127,1643,2983,271,3494,3623,0,0,0,0,0,0,0,0,0.484,3.543,9.469,0.121,0.031,-0.030,6.483,-8.356,14.550,-2.428,-0.754,3.331,happy
1.99,811,2367,3230,1968,3120,358,3533,3648,0,0,0,0,0,0,0,13,0.201,3.464,9.407,0.130,0.034,-0.026,4.367,-1.178,16.237,0.018,0.810,3.564,happy
2.00,942,2493,3319,2224,3217,411,3535,3648,0,0,40,0,0,0,0,0,0.283,3.565,9.438,0.122,0.019,-0.020,5.827,0.330,9.874,1.257,-0.149,1.308,happy
2.01,1061,2537,3379,2357,3308,356,3519,3533,0,0,94,0,0,0,0,0,0.376,3.563,9.443,0.115,0.017,-0.027,4.317,0.218,7.221,2.300,0.743,0.866,happy
2.02,1232,2666,3436,2455,3376,43,3472,3487,0,0,0,0,0,0,0,0,0.357,3.608,9.388,0.104,0.019,-0.027,4.717,-0.958,6.809,2.552,0.680,0.415,happy
2.03,1280,2709,3455,2500,3421,0,3443,3440,0,0,2,0,0,0,0,0,0.326,3.634,9.364,0.101,0.017,-0.032,4.472,-1.269,6.713,2.872,0.594,0.111,happy
2.04,1391,2748,3478,2559,3455,0,3418,3415,0,0,23,0,5,0,0,0,0.357,3.594,9.407,0.102,0.018,-0.036,4.142,-2.435,8.107,3.162,0.389,-0.224,happy
2.05,1481,2795,3509,2615,3487,0,3344,3329,0,0,0,0,0,0,0,0,0.400,3.596,9.337,0.101,0.027,-0.044,3.275,-4.329,7.827,3.800,0.152,-0.679,happy
2.06,1519,2816,3536,2649,3497,0,3290,3278,0,0,15,0,0,0,0,0,0.405,3.558,9.354,0.100,0.031,-0.041,2.782,-4.602,6.395,3.840,0.125,-0.705,happy
2.07,1616,2829,3566,2653,3511,0,3221,3152,0,3,2,0,0,0,0,0,0.407,3.646,9.347,0.098,0.042,-0.046,2.856,-6.294,8.839,3.640,-0.264,-0.833,happy
2.08,1759,2894,3583,2751,3529,0,3089,3071,0,0,56,0,11,0,0,0,0.414,3.661,9.263,0.094,0.036,-0.034,3.546,-7.195,9.938,3.681,-0.460,-1.095,happy
2.09,1872,2950,3625,2816,3538,0,2934,2891,0,0,0,0,0,0,0,0,0.294,3.658,9.306,0.085,0.023,-0.019,4.441,-6.670,8.856,3.608,-0.332,-1.778,happy
2.10,2015,2957,3651,2853,3563,0,2880,2671,0,13,7,0,0,0,0,0,0.297,3.618,9.242,0.080,0.017,-0.016,2.957,-6.800,10.558,3.466,-0.299,-2.249,happy
2.11,2090,3030,3665,2944,3583,0,2789,2402,0,0,2,0,0,0,0,0,0.383,3.606,9.392,0.103,0.017,-0.028,1.851,-6.802,10.970,3.373,-0.456,-2.263,happy
2.12,2139,3085,3696,2993,3600,0,2678,2047,0,0,17,37,0,0,0,0,0.383,3.711,9.318,0.109,0.039,-0.040,0.622,-6.773,12.392,3.141,-0.921,-1.877,happy
2.13,2180,3120,3718,3014,3578,0,2542,1680,37,0,0,0,0,0,0,0,0.280,3.713,9.325,0.097,0.063,-0.039,0.091,-7.125,14.502,3.235,-0.987,-1.339,happy
2.14,2259,3149,3735,3093,3520,0,2409,1386,0,0,0,0,0,0,0,0,0.318,3.661,9.210,0.095,0.090,-0.047,-0.678,-7.989,14.717,3.205,-1.087,-1.045,happy
2.15,2349,3189,3761,3158,3475,0,2242,842,0,0,0,0,7,0,0,0,0.273,3.749,9.366,0.095,0.098,-0.026,-1.595,-11.571,16.647,3.349,-1.457,-0.422,happy
2.16,2448,3216,3763,3199,3316,0,1931,0,0,47,28,5,0,0,0,0,0.268,3.709,9.345,0.112,0.101,-0.010,-1.250,-13.080,10.044,3.008,-1.482,-0.039,happy
2.17,2582,3299,3811,3295,3259,0,1503,0,0,0,0,0,0,0,0,0,0.237,3.737,9.366,0.158,0.112,0.015,-1.022,-13.989,7.551,2.458,-1.632,-0.128,happy
2.18,2643,3340,3827,3330,3184,0,1204,0,0,0,0,0,0,0,0,0,0.201,3.879,9.266,0.172,0.131,0.017,-0.002,-14.562,4.429,1.821,-1.658,-0.472,happy
2.19,2715,3387,3846,3373,3088,0,1042,0,0,0,53,0,0,0,0,0,0.184,3.800,9.419,0.199,0.146,0.006,-0.761,-14.595,1.937,1.062,-1.475,-0.775,happy
2.20,2778,3435,3869,3409,2947,0,642,0,0,0,0,0,0,0,0,0,0.318,3.752,9.316,0.195,0.183,-0.017,-3.697,-16.769,1.599,0.588,-1.368,-0.678,happy
2.21,2815,3471,3882,3435,2731,0,325,0,0,0,0,0,0,0,0,0,-0.148,2.945,9.222,0.249,0.169,-0.049,-4.049,-16.999,0.390,0.001,-0.978,-0.496,happy
2.22,2832,3500,3891,3461,2350,0,180,0,0,0,0,0,0,0,0,0,0.445,3.184,9.498,0.363,0.215,0.016,-3.706,-16.233,-0.029,-0.490,-0.219,-0.114,happy
2.23,2895,3527,3907,3492,2161,0,201,0,0,0,0,19,0,0,0,0,0.089,3.812,9.649,0.600,0.324,0.127,7.264,-15.071,-4.334,-2.557,1.264,-0.935,happy
2.24,2938,3547,3913,3507,1696,0,176,0,0,0,0,0,0,0,0,0,0.388,3.543,9.424,0.752,0.302,0.192,5.950,-7.451,16.343,-0.060,3.674,0.275,happy
2.25,3027,3543,3922,3533,1174,0,27,0,0,4,40,19,0,0,0,13,0.230,3.496,9.313,0.935,0.228,0.270,0.903,8.744,16.439,-1.551,2.138,-0.349,happy
2.26,3159,3514,3929,3547,1138,0,0,0,0,0,0,0,0,0,0,587,0.644,4.204,9.325,1.071,0.221,0.323,-2.354,5.320,5.114,-2.632,0.649,-0.313,happy
2.27,3263,3426,3935,3558,1022,0,0,0,0,0,2,0,0,0,0,1291,0.728,3.160,9.606,1.284,0.210,0.465,-6.974,-1.025,9.175,-2.830,0.606,0.893,happy
2.28,3351,3287,3927,3567,546,0,0,0,0,0,2,0,0,0,0,2381,0.783,3.989,9.112,1.658,0.250,0.524,-5.880,-2.887,13.558,-2.639,0.540,1.107,happy
2.29,3385,2821,3888,3531,349,0,0,0,0,0,7,18,0,0,253,3059,0.057,3.766,8.250,1.997,0.439,0.622,-0.587,-1.757,11.612,-2.980,-0.150,0.847,happy
2.30,3493,2467,3880,3504,244,0,0,0,0,1,2,0,0,21,1375,3445,0.127,4.073,8.832,2.414,0.697,0.679,19.613,2.478,19.613,-4.731,0.041,0.330,happy
2.31,3502,2357,3840,3428,0,0,0,0,0,0,110,0,0,0,1753,3555,0.134,4.561,8.384,2.605,0.778,0.737,-5.528,-16.939,15.347,-0.419,0.130,-0.851,happy
2.32,3466,2101,3755,2762,0,0,0,0,0,0,5,7,55,0,2246,3673,0.634,5.215,8.655,2.940,1.034,0.725,-1.800,-5.157,15.862,-0.076,0.355,0.117,happy
2.33,3344,2081,3662,2416,0,0,0,0,12,0,23,0,154,0,2464,3703,-0.081,4.839,9.855,3.278,0.765,0.658,2.502,-1.791,9.064,0.008,0.620,0.202,happy
2.34,3143,1919,3458,2032,0,0,0,0,0,0,7,0,248,0,2553,3753,0.603,5.406,12.505,4.025,0.066,0.439,0.773,-2.308,10.412,0.001,0.498,0.149,happy
2.35,2495,1409,2923,1435,0,0,0,0,0,0,2,0,380,0,2660,3773,-1.899,9.567,15.476,5.207,-0.804,0.100,1.896,-2.215,9.309,-0.045,0.538,0.230,happy
2.36,1307,294,1393,279,0,0,0,0,0,0,117,0,459,0,2675,3834,-3.153,11.839,13.386,6.761,-1.406,-1.137,0.848,-2.296,10.199,-0.023,0.422,0.271,happy
2.37,331,0,0,0,0,0,0,0,0,171,1205,69,427,23,2871,3871,-2.121,11.538,12.708,8.063,-1.819,-1.943,0.685,-2.643,10.099,-0.034,0.269,0.187,happy
2.38,0,0,0,0,0,0,0,0,2,617,1850,867,957,1,3087,3933,1.561,9.215,15.941,4.854,-1.627,-2.235,1.106,-2.559,10.077,0.021,0.195,0.091,happy
2.39,0,0,0,0,0,0,0,0,0,843,2001,1053,1249,3,3149,3947,2.150,5.674,19.613,1.130,-0.587,-3.265,1.204,-2.258,9.804,0.016,0.192,0.083,happy
2.40,0,0,0,0,0,0,0,0,27,1017,2121,1337,1451,3,3241,3956,0.486,8.222,19.613,-0.003,-0.887,-1.809,1.070,-2.444,9.955,0.017,0.185,0.096,happy
2.41,0,0,0,0,0,0,0,0,1,982,2157,1544,1615,39,3316,4009,2.433,-0.184,13.673,-1.009,-1.220,-1.894,0.862,-2.380,9.967,0.003,0.181,0.093,happy
2.42,0,0,0,0,0,0,0,0,7,995,2175,1745,1783,2,3364,3949,4.197,2.794,9.567,-1.791,-0.747,-1.777,0.769,-2.270,10.053,-0.021,0.153,0.091,happy
2.43,0,0,0,0,0,0,0,0,1,1043,2282,1929,1989,19,3411,3931,3.970,0.776,7.654,-2.241,-0.539,-1.511,0.836,-2.291,9.905,-0.032,0.137,0.090,happy
2.44,0,0,0,0,0,0,0,0,2,1215,2671,2035,2111,3,3427,3897,3.280,1.372,6.761,-2.482,-0.447,-1.289,0.917,-2.389,10.005,-0.039,0.126,0.085,happy
2.45,0,0,0,0,0,0,0,0,2,1267,2641,2184,2236,5,3429,3849,2.895,2.131,7.525,-2.727,-0.648,-0.999,0.802,-2.368,9.924,-0.061,0.091,0.076,happy
2.46,0,0,0,0,0,0,0,0,1,1223,2651,2295,2301,0,3412,3787,2.887,3.373,7.647,-3.050,-0.816,-0.732,0.747,-2.337,9.855,-0.103,0.064,0.082,happy
2.47,0,0,0,0,0,0,0,0,10,1252,2689,2425,2389,3,3413,3692,2.986,4.319,7.728,-3.378,-0.897,-0.427,0.862,-2.425,9.778,-0.092,0.060,0.088,happy
2.48,0,0,0,0,0,0,0,0,1,1382,2695,2569,2429,3,3355,3558,3.038,5.365,7.592,-3.619,-0.787,-0.185,0.869,-2.380,9.704,-0.107,0.041,0.090,happy
2.49,0,0,0,0,0,0,0,0,2,1453,2718,2623,2495,2,3323,3411,2.749,6.256,7.326,-3.807,-0.636,0.025,0.871,-2.461,9.804,-0.097,0.037,0.084,happy
2.50,0,0,0,0,0,0,0,0,1,1597,2718,2710,2539,3,3293,3341,2.253,6.797,7.405,-3.886,-0.588,0.207,0.848,-2.471,9.845,-0.094,0.028,0.063,happy
2.51,0,0,0,0,0,0,0,0,1,1755,2730,2784,2554,1,3277,3335,1.994,7.889,7.805,-3.948,-0.697,0.450,0.881,-2.406,9.799,-0.088,0.027,0.058,happy
2.52,0,0,0,0,0,0,0,0,1,1781,2730,2779,2623,3,3244,3303,2.014,8.538,7.834,-3.948,-0.814,0.748,0.888,-2.440,9.670,-0.088,0.019,0.071,happy
2.53,0,0,0,0,0,0,0,0,1,1804,2741,2894,2695,3,3212,3277,2.516,9.033,7.420,-3.882,-0.866,1.097,0.740,-2.404,9.680,-0.099,0.027,0.074,happy
2.54,0,0,0,0,0,0,0,0,1,1811,2756,2909,2734,3,3118,3181,3.357,9.026,7.489,-3.724,-0.769,1.466,0.840,-2.617,9.728,-0.066,0.022,0.070,happy
2.55,0,0,0,0,0,0,0,0,18,1927,2771,2997,2805,0,3023,3191,3.792,9.187,8.428,-3.605,-0.593,1.890,0.816,-2.495,9.795,-0.069,0.029,0.068,happy
2.56,0,0,0,0,0,0,0,0,3,1929,2776,3032,2863,0,2975,3163,3.409,9.407,9.495,-3.546,-0.429,2.227,0.931,-2.670,9.826,-0.039,0.017,0.053,happy
2.57,0,0,0,0,0,0,0,0,5,1931,2807,3068,2922,3,2825,3068,2.880,9.574,9.934,-3.515,-0.341,2.466,0.790,-2.440,9.701,-0.038,0.024,0.059,happy
2.58,0,0,0,0,0,0,0,0,18,1995,2889,3123,3001,5,2799,3019,2.325,9.378,9.699,-3.401,-0.321,2.575,0.802,-2.526,9.953,-0.076,0.032,0.057,happy
2.59,0,0,0,0,0,0,0,0,45,1997,2838,3174,3054,16,2760,2919,1.666,9.421,10.230,-3.246,-0.339,2.566,0.797,-2.550,9.768,-0.068,0.040,0.050,happy
2.60,0,0,0,0,0,0,0,0,77,2077,2863,3246,3109,25,2711,2834,1.147,9.632,12.112,-3.043,-0.436,2.396,0.769,-2.571,9.828,-0.048,0.033,0.045,happy
2.61,0,0,0,0,0,0,0,0,151,2251,2894,3311,3197,37,2665,2637,-0.014,10.068,13.278,-2.976,-0.422,2.033,0.737,-2.576,9.615,-0.012,0.015,0.041,happy
2.62,0,0,0,0,0,0,0,0,391,2339,2961,3353,3263,51,2595,2153,-1.762,10.791,12.857,-2.850,-0.586,1.506,0.802,-2.495,9.584,-0.128,0.033,0.034,happy
2.63,0,0,0,0,0,0,0,0,463,2399,2971,3415,3287,69,2385,1803,-3.297,10.795,9.799,-1.819,-0.306,0.991,0.670,-2.665,9.780,-0.141,0.010,0.019,happy
2.64,0,0,0,0,0,0,0,0,925,2487,3012,3499,3324,55,2468,977,-5.978,14.315,10.297,-1.809,-1.688,0.746,0.783,-2.677,9.771,-0.125,0.027,0.012,happy
2.65,0,0,0,0,0,0,0,0,1277,2633,3027,3621,3303,61,2129,419,-4.144,15.052,2.440,-1.443,-2.301,-0.104,0.785,-2.684,9.632,-0.150,0.030,0.009,happy
2.66,0,0,0,0,0,0,0,0,1321,2677,3201,3627,3222,47,1862,279,-3.194,15.639,-2.907,-0.499,-1.527,-0.461,0.826,-2.528,9.610,-0.142,0.011,0.013,happy
2.67,0,0,0,0,0,0,0,0,1661,2740,3068,3701,2918,41,1067,211,2.363,17.133,-10.326,1.542,1.866,0.071,1.094,-2.641,9.443,0.008,-0.023,0.064,happy
2.68,0,0,0,0,0,0,0,0,1884,2807,3094,3755,2507,16,164,133,6.242,8.514,16.252,1.082,4.139,-0.214,0.321,-0.874,9.785,-0.303,-0.046,-0.017,happy
2.69,0,0,0,0,0,0,0,2535,2069,2879,3104,3765,2151,27,167,104,-16.067,-6.687,7.496,2.627,-0.733,1.458,0.910,-3.156,9.668,-0.543,0.077,-0.123,happy
2.70,0,0,0,0,0,0,0,3159,2277,2973,3130,3767,1323,10,75,59,-9.266,5.619,12.158,3.341,0.108,-0.803,1.118,-3.014,9.486,-0.531,-0.001,-0.132,happy
2.71,0,0,0,0,0,0,752,3376,2396,2964,3137,3693,476,90,188,59,6.246,2.986,6.407,2.707,0.120,-0.343,1.149,-2.787,9.433,-0.848,-0.207,-0.177,happy
2.72,0,112,0,0,522,0,1834,3440,2475,2927,3132,3704,381,4,185,9,-16.805,6.594,19.613,0.514,-1.371,0.117,1.092,-2.751,9.452,-1.047,-0.296,-0.221,happy
2.73,338,447,197,0,789,0,2244,3495,2405,2631,3140,3596,287,56,95,0,0.287,3.970,8.698,0.427,0.266,-0.177,-0.043,-1.800,11.389,-2.103,-0.093,-0.294,happy
2.74,552,835,1022,55,1008,0,2450,3509,2075,2043,3145,3347,101,0,0,0,-0.414,3.618,9.347,0.283,0.110,-0.116,1.010,-3.077,10.386,-3.133,-0.008,-0.363,happy
2.75,688,1232,1751,253,1201,0,2653,3583,1720,1565,3178,3157,153,0,0,0,0.347,3.740,10.058,0.229,0.129,-0.180,1.908,-2.914,10.750,-3.613,0.016,-0.362,happy
2.76,865,1526,2256,693,1401,0,2835,3621,1159,775,2930,1647,188,0,0,0,0.453,3.603,9.457,0.161,0.163,-0.132,0.093,-4.192,14.827,-4.834,-0.294,-0.210,happy
2.77,1023,1697,2559,1156,1756,0,2950,3614,532,151,440,191,0,0,0,0,0.129,3.606,9.266,0.154,0.035,-0.034,1.757,-6.874,15.593,-6.206,-1.471,0.792,happy
2.78,1280,1936,2812,1659,2065,0,3066,3675,381,35,2,0,0,0,0,0,0.450,3.675,9.732,0.151,-0.043,0.009,0.685,-10.032,15.479,-7.516,-2.376,1.317,happy
2.79,1467,2154,2983,2083,2485,163,3220,3707,1,0,0,0,0,0,2,0,0.587,3.424,9.527,0.100,0.062,-0.032,2.049,-10.544,11.475,-6.975,-3.164,1.280,happy
2.80,1588,2213,3097,2329,2637,418,3280,3717,0,0,94,0,0,0,0,0,0.237,3.706,9.361,0.073,0.075,-0.041,7.544,-7.513,19.613,-1.257,0.067,3.087,happy
2.81,1721,2313,3184,2490,2763,810,3323,3717,0,0,0,0,0,11,0,0,0.115,3.718,9.266,0.087,0.056,-0.018,3.335,-18.352,19.613,1.100,1.093,2.735,happy
2.82,1859,2407,3258,2624,2880,802,3334,3680,0,1,15,0,0,0,0,0,0.266,3.340,9.041,0.079,0.056,-0.015,2.981,-0.474,9.914,1.879,0.578,1.887,happy
2.83,1968,2469,3319,2679,2953,500,3265,3583,0,0,0,0,0,0,0,0,0.120,3.622,9.354,0.074,0.050,-0.018,4.010,0.474,7.970,2.647,0.488,1.558,happy
2.84,2032,2507,3344,2713,2983,305,3207,3532,0,0,2,0,0,0,0,0,0.259,3.572,9.378,0.086,0.033,-0.019,5.092,-0.551,8.461,3.010,0.469,1.230,happy
2.85,2143,2609,3383,2841,3005,41,3108,3469,0,0,2,0,0,0,0,0,0.242,3.630,9.299,0.099,0.037,-0.026,5.356,-1.389,9.313,3.428,0.491,0.805,happy
2.86,2202,2642,3413,2883,2994,0,3001,3404,0,0,0,0,0,0,0,0,0.215,3.649,9.242,0.100,0.044,-0.018,4.657,-2.296,9.069,3.822,0.423,0.359,happy
2.87,2273,2690,3440,2919,3005,0,2941,3341,0,0,2,0,0,0,0,0,0.105,3.692,9.357,0.104,0.053,-0.022,3.491,-2.799,8.203,4.125,0.248,0.085,happy
2.88,2303,2721,3458,2965,3008,0,2832,3260,0,0,5,0,0,0,0,0,0.177,3.706,9.392,0.102,0.070,-0.019,2.830,-3.170,7.606,4.210,-0.078,-0.083,happy
2.89,2380,2769,3497,3024,2992,0,2705,3131,0,0,0,0,0,0,0,0,0.192,3.773,9.313,0.082,0.079,-0.015,2.626,-5.404,10.429,4.337,-0.629,-0.243,happy
2.90,2434,2774,3536,3071,2981,0,2467,2960,0,0,0,0,0,0,1,0,0.223,3.718,9.249,0.087,0.101,-0.017,2.863,-6.539,10.190,4.446,-0.798,-0.693,happy
2.91,2517,2839,3573,3152,2973,0,2215,2807,6,0,0,0,0,0,0,7,0.060,3.639,9.304,0.111,0.105,-0.013,3.089,-6.440,9.615,4.293,-0.841,-0.969,happy
2.92,2559,2870,3607,3200,2939,0,2008,2530,0,0,0,0,0,0,0,0,0.129,3.699,9.196,0.114,0.088,-0.010,3.390,-6.335,11.183,3.985,-0.881,-1.663,happy
2.93,2623,2890,3649,3216,2874,0,1793,2098,0,0,0,0,0,0,2,0,0.144,3.740,9.285,0.128,0.096,0.001,0.939,-5.669,11.794,3.633,-0.854,-1.814,happy
2.94,2666,2969,3675,3311,2777,0,1619,1567,0,0,0,0,0,0,0,0,0.036,3.730,9.254,0.121,0.092,-0.004,-0.019,-5.887,13.683,3.479,-0.985,-1.655,happy
2.95,2735,3013,3712,3361,2672,0,1317,486,23,0,0,0,0,0,0,0,0.101,3.804,9.385,0.154,0.127,0.006,0.024,-8.308,16.470,3.434,-0.917,-0.980,happy
2.96,2790,3031,3749,3388,2611,0,1040,0,0,0,0,0,0,0,0,0,0.031,3.843,9.337,0.191,0.114,0.017,-1.516,-12.244,15.562,2.816,-1.670,-0.795,happy
2.97,2830,3056,3765,3440,2590,0,661,0,0,0,0,0,0,0,0,0,0.077,3.819,9.328,0.197,0.101,0.014,-2.136,-17.942,13.410,2.212,-1.288,-0.402,happy
2.98,2887,3138,3792,3437,2533,0,417,0,0,0,0,0,0,0,0,0,0.074,3.666,9.251,0.241,0.098,0.026,-3.613,-19.613,15.421,2.705,-1.295,-0.364,happy
2.99,2956,3146,3799,3480,2344,0,192,0,0,0,0,0,0,0,0,0,0.113,3.924,9.316,0.259,0.097,0.039,0.797,-19.613,7.520,2.426,-1.820,-0.884,happy
3.00,3014,3184,3827,3518,2230,0,96,0,0,0,12,0,0,0,0,0,0.067,3.871,9.141,0.311,0.086,0.055,0.905,-19.264,-2.033,1.763,-1.028,-1.170,happy
3.01,3083,3213,3839,3583,1831,0,0,0,0,0,58,37,0,0,0,0,0.089,3.783,9.280,0.367,0.078,0.087,-2.188,-18.146,-4.161,0.674,-0.214,-1.348,happy
3.02,3122,3230,3855,3568,1661,0,0,0,0,0,2,0,0,0,0,0,0.153,4.137,9.421,0.443,0.076,0.122,-4.578,-18.802,-3.500,-0.459,0.203,-1.291,happy
3.03,3177,3245,3877,3608,1370,0,0,0,0,0,2,25,0,0,0,0,0.323,3.654,8.945,0.549,0.096,0.203,-5.045,-19.613,-6.436,-1.767,0.759,-1.187,happy
3.04,3245,3239,3888,3629,1139,0,0,0,0,0,0,0,0,0,0,0,0.192,3.548,8.973,0.686,0.081,0.254,-2.164,-8.796,-6.472,-1.802,1.311,-0.352,happy
3.05,3313,3181,3897,3645,1005,0,0,0,13,0,0,0,0,0,0,587,0.172,3.639,8.892,0.818,0.050,0.330,0.357,6.337,19.613,-0.851,2.780,1.114,happy
3.06,3399,3136,3903,3658,991,0,0,0,0,0,2,0,41,1,0,1899,0.376,3.938,9.409,0.915,0.082,0.403,-14.219,1.132,15.167,-4.773,-1.639,-0.012,happy
3.07,3471,2866,3907,3670,640,0,0,0,0,46,5,0,0,0,0,2636,0.225,4.369,9.433,1.179,0.163,0.486,-4.820,-1.592,8.286,-4.216,-0.502,1.359,happy
3.08,3536,2606,3918,3679,336,0,0,0,0,4,20,0,0,0,797,3141,0.113,3.725,8.691,1.431,0.370,0.591,5.480,-10.700,15.081,-3.239,-0.599,1.405,happy
3.09,3627,2445,3874,3632,48,0,0,0,0,0,15,0,0,0,921,3348,0.000,3.452,9.014,1.737,0.579,0.620,19.613,-3.378,19.613,-2.609,-0.655,0.542,happy
3.10,3665,2317,3853,3648,0,0,0,0,0,0,12,0,0,0,1327,3476,0.520,4.480,9.088,2.079,0.727,0.685,-1.901,-9.917,16.934,-0.830,0.880,-0.451,happy
3.11,3677,2167,3797,3611,0,0,0,0,0,0,30,0,0,0,1575,3563,0.419,4.420,8.902,2.484,0.831,0.705,-5.653,-0.704,19.613,-0.861,1.545,0.628,happy
3.12,3689,2035,3711,3535,0,0,0,0,0,36,12,0,0,0,1605,3625,0.453,4.147,8.684,2.535,1.131,0.653,-0.491,-3.060,12.625,-0.073,0.866,0.202,happy
3.13,3664,1876,3603,3437,0,0,0,0,1,205,15,2,31,1,1717,3631,0.354,5.260,8.255,3.038,1.270,0.656,0.666,-3.390,11.037,-0.062,0.515,0.163,happy
3.14,3514,1712,3440,2591,0,0,0,0,3,652,28,4,229,0,2153,3684,-0.299,5.411,8.511,3.454,0.936,0.382,1.338,-2.248,9.766,-0.004,0.370,0.163,happy
3.15,3055,1475,3024,1961,0,0,0,0,0,966,28,3,181,3,2255,3737,0.081,8.614,11.715,4.751,-0.476,-0.210,1.006,-2.437,9.809,-0.104,0.338,0.260,happy
3.16,1495,357,2141,823,0,0,0,0,0,1081,2,110,186,4,2341,3759,-1.896,10.628,12.651,5.555,-1.471,-1.453,0.771,-2.387,9.493,-0.125,0.273,0.257,happy
3.17,615,0,0,0,0,0,0,0,6,1405,1673,1253,468,7,2648,3835,-2.820,10.700,11.650,7.640,-2.188,-1.949,0.802,-2.775,9.974,-0.030,0.141,0.121,happy
3.18,0,0,0,0,0,0,0,0,5,1402,1937,1812,873,6,2835,3849,-0.900,9.304,14.243,5.724,-2.396,-2.124,0.690,-2.547,10.084,0.007,0.103,0.070,happy
3.19,0,0,0,0,0,0,0,0,0,1469,1978,1964,1193,5,2920,3960,4.724,5.691,19.613,1.633,-1.420,-3.386,0.802,-2.485,9.756,-0.016,0.102,0.076,happy
3.20,0,0,0,0,0,0,0,0,6,1651,2249,2200,1341,6,2999,3871,-4.817,12.215,19.613,0.510,-1.405,-2.667,0.766,-2.605,9.685,-0.004,0.146,0.083,happy
3.21,0,0,0,0,0,0,0,0,18,1611,2339,2439,1648,10,3047,3863,2.021,1.228,11.526,-1.235,-1.668,-2.449,0.814,-3.069,10.027,0.003,0.152,0.054,happy
3.22,0,0,0,0,0,0,0,0,38,1799,2480,2605,1800,16,3150,3867,2.289,0.371,7.884,-2.050,-1.636,-2.166,0.812,-2.739,9.606,-0.010,0.100,0.033,happy
3.23,0,0,0,0,0,0,0,0,106,1945,2520,2781,1867,26,3157,3815,1.583,1.199,7.839,-2.374,-2.115,-1.811,0.663,-2.459,9.835,-0.059,0.095,0.052,happy
3.24,0,0,0,0,0,0,0,0,111,1960,2536,2851,1965,37,3143,3775,1.429,1.935,8.466,-2.826,-2.425,-1.350,0.728,-2.741,9.697,-0.034,0.043,-0.010,happy
3.25,0,0,0,0,0,0,0,0,220,1999,2520,2988,1968,45,3006,3695,0.342,2.993,9.005,-3.208,-2.458,-0.871,0.553,-2.468,9.993,-0.098,0.066,0.044,happy
3.26,0,0,0,0,0,0,0,0,438,2039,2567,3101,1901,54,2844,3567,-1.128,3.886,9.347,-3.465,-2.606,-0.418,0.589,-2.571,9.764,-0.106,0.058,0.025,happy
3.27,0,0,0,0,0,0,0,0,467,2015,2615,3157,1927,51,2747,3504,-2.452,5.456,10.764,-3.601,-2.735,0.043,0.541,-2.655,9.807,-0.084,0.025,0.013,happy
3.28,0,0,0,0,0,0,0,0,665,2039,2735,3293,1967,53,2423,3327,-3.019,6.033,10.760,-3.698,-2.634,0.507,0.527,-2.715,10.144,-0.102,0.029,0.011,happy
3.29,0,0,0,0,0,0,0,0,1077,2111,2782,3373,1975,51,1781,3015,-2.466,5.947,11.301,-3.651,-2.042,0.980,0.551,-2.830,9.651,-0.094,0.039,0.015,happy
3.30,0,0,0,0,0,0,0,0,1169,2009,2797,3423,1893,51,1694,2828,-2.351,6.412,12.136,-3.642,-1.386,1.380,0.453,-2.591,9.929,-0.086,0.025,0.012,happy
3.31,0,0,0,0,0,0,0,0,1417,2037,2840,3461,1823,53,1565,2261,-2.555,6.764,11.875,-3.424,-0.932,1.660,0.656,-2.832,9.740,-0.080,0.029,0.013,happy
3.32,0,0,0,0,0,0,0,0,1654,2063,2889,3699,1754,47,1437,1663,-2.459,9.464,15.591,-3.270,-0.460,1.676,0.529,-2.806,9.752,-0.060,0.025,0.016,happy
3.33,0,0,0,0,0,0,0,0,1763,2174,2915,3659,1802,52,1407,1427,-1.652,12.795,15.651,-3.598,0.049,1.823,0.567,-2.715,9.689,-0.066,0.026,0.013,happy
3.34,0,0,0,0,0,0,0,0,1951,2146,2981,3733,1781,52,868,761,-0.041,15.139,3.881,-2.964,0.526,2.205,0.493,-2.737,9.704,-0.058,0.018,0.011,happy
3.35,0,0,0,0,0,0,0,0,2137,2223,3012,3789,1799,47,402,268,-6.500,19.613,9.187,-2.176,0.359,2.006,0.651,-2.837,9.699,-0.089,-0.005,0.009,happy
3.36,0,0,0,0,0,0,0,0,2296,2238,3058,3823,1690,31,399,107,-11.116,19.613,-5.138,-1.953,-1.168,0.847,0.730,-2.722,9.754,-0.091,-0.019,0.016,happy
3.37,0,0,0,0,0,0,0,0,2431,2205,3183,3884,947,22,218,99,-1.578,19.613,-16.197,1.335,0.169,0.400,0.594,-2.466,9.596,-0.376,-0.032,-0.028,happy
3.38,0,0,0,0,0,0,0,874,2699,2223,3058,3941,303,4,4,85,1.604,-0.790,11.897,1.102,2.805,-0.700,0.838,-2.646,10.096,-0.732,-0.040,-0.171,happy
3.39,0,0,0,0,0,0,0,2993,2823,2155,3063,3957,281,1,2,41,-3.000,-1.226,3.625,4.431,-1.626,0.577,1.161,-1.183,9.541,-0.933,-0.152,-0.264,happy
3.40,0,0,0,0,0,0,199,3395,3039,2077,3053,3995,9,0,0,7,3.941,13.010,14.961,3.353,0.251,-0.261,1.264,-2.844,10.178,-1.360,-0.351,-0.518,happy
3.41,0,0,0,0,0,0,1239,3473,3260,1929,3078,3949,0,0,0,0,-0.687,5.607,9.536,2.612,-0.270,0.106,0.759,-2.342,9.644,-2.077,-0.034,-0.794,happy
3.42,50,0,0,0,339,0,1759,3424,3326,1774,3078,3989,0,0,0,0,-4.901,5.923,5.265,0.564,-1.392,0.623,1.085,-3.158,10.034,-2.327,0.441,-0.838,happy
3.43,583,351,466,0,931,0,2277,3486,3333,1235,3027,3957,0,57,0,0,-2.863,2.626,9.103,0.605,-0.130,-0.091,1.255,-3.122,9.313,-2.612,0.928,-0.870,happy
3.44,846,1052,1495,247,1156,0,2596,3531,3307,409,3007,3815,14,0,0,0,-0.206,3.309,9.290,0.148,-0.009,-0.038,1.927,-4.609,9.148,-3.231,1.701,-0.932,happy
3.45,957,1430,2077,543,1391,0,2786,3555,2969,137,2116,3592,0,0,0,0,0.254,4.077,9.759,0.082,0.017,-0.046,1.039,-3.936,8.815,-4.204,2.119,-0.335,happy
3.46,1017,1633,2471,983,1776,0,2958,3645,2653,30,1369,3318,0,9,0,0,0.338,3.505,9.316,0.106,0.058,-0.063,-0.862,-4.848,13.779,-4.999,1.514,0.859,happy
3.47,1140,1771,2710,1282,2057,0,3071,3692,1178,0,15,2201,0,0,0,0,0.117,3.534,9.414,0.116,0.079,-0.057,-1.051,-9.629,18.536,-4.995,-0.232,3.834,happy
3.48,1232,1934,2881,1600,2311,167,3182,3715,78,0,12,39,0,0,0,0,0.098,3.644,9.376,0.100,0.068,-0.030,-0.196,-10.714,12.115,-5.814,-0.544,3.841,happy
3.49,1335,2067,2992,1920,2559,400,3267,3728,0,0,7,21,0,0,0,0,0.354,3.742,9.402,0.081,0.035,-0.025,2.828,-6.905,10.408,-4.622,0.477,3.823,happy
3.50,1442,2192,3105,2157,2709,540,3323,3731,0,0,0,0,0,0,0,0,0.362,3.560,9.335,0.100,0.031,-0.044,0.649,-10.343,19.613,0.029,0.954,1.943,happy
3.51,1574,2238,3190,2307,2832,670,3347,3718,0,0,2,0,0,0,0,0,0.302,3.656,9.428,0.090,0.009,-0.004,9.191,-1.058,9.096,1.492,0.631,-0.029,happy
3.52,1663,2380,3267,2451,2909,602,3344,3667,0,0,2,0,0,0,0,0,0.189,3.682,9.323,0.087,0.002,0.005,6.859,-0.261,6.970,1.874,0.469,-0.638,happy
3.53,1748,2478,3315,2515,3014,339,3319,3611,0,3,0,0,0,11,0,0,0.194,3.598,9.215,0.105,-0.015,0.002,3.347,-1.192,6.692,2.290,-0.280,-1.334,happy
3.54,1830,2555,3359,2595,3101,142,3275,3536,22,0,0,0,0,0,3,0,0.283,3.673,9.304,0.106,-0.012,-0.010,2.476,-3.522,9.577,3.200,-0.565,-1.491,happy
3.55,1918,2650,3412,2672,3165,0,3216,3472,0,0,5,0,0,0,0,0,0.299,3.735,9.294,0.115,-0.002,-0.021,1.583,-4.065,9.124,3.630,-0.487,-1.471,happy
3.56,2047,2708,3458,2739,3216,0,3149,3399,0,0,0,0,0,0,0,0,0.268,3.749,9.278,0.106,0.003,-0.023,-0.936,-4.688,8.449,3.942,-0.815,-1.258,happy
3.57,2167,2741,3497,2801,3246,0,3054,3285,0,0,0,0,0,0,0,0,0.290,3.689,9.383,0.103,0.032,-0.033,-1.539,-5.859,9.764,3.882,-1.511,-1.049,happy
3.58,2241,2800,3521,2922,3255,0,2928,3248,0,0,2,0,0,0,0,0,0.299,3.764,9.392,0.105,0.068,-0.047,-1.027,-5.971,10.063,3.855,-1.549,-1.017,happy
3.59,2336,2830,3549,2994,3216,0,2749,3158,0,0,0,0,0,0,0,0,0.259,3.761,9.282,0.090,0.087,-0.034,-0.575,-5.289,11.042,3.741,-1.363,-1.107,happy
3.60,2321,2831,3574,3049,3185,0,2480,3013,0,0,0,0,0,0,0,0,0.223,3.821,9.409,0.074,0.094,-0.029,-1.283,-5.406,12.385,3.703,-1.330,-1.133,happy
3.61,2432,2883,3605,3134,3151,0,2258,2899,0,0,0,0,0,0,0,0,0.206,3.639,9.222,0.082,0.092,-0.018,-1.860,-5.116,12.500,3.599,-1.350,-1.093,happy
3.62,2481,2896,3643,3195,3113,0,2158,2722,0,0,2,0,0,0,0,0,0.199,3.721,9.275,0.077,0.078,-0.008,-2.327,-5.634,14.286,3.310,-1.427,-1.002,happy
3.63,2559,2902,3680,3216,3001,0,1973,2294,0,0,0,0,0,0,0,0,0.223,3.697,9.297,0.088,0.092,-0.008,-3.302,-7.669,16.477,3.179,-1.263,-0.691,happy
3.64,2645,2950,3694,3294,2800,0,1629,1661,0,0,0,0,0,43,0,0,0.117,3.788,9.261,0.142,0.104,0.006,-3.385,-9.637,15.459,3.121,-1.310,-0.428,happy
3.65,2741,2978,3737,3353,2790,0,1257,626,0,0,25,0,0,0,0,0,0.165,3.735,9.177,0.174,0.136,0.020,-2.950,-14.023,12.282,2.519,-1.867,0.127,happy
3.66,2831,3043,3765,3427,2634,0,759,0,0,0,0,0,0,0,0,0,0.153,3.883,9.328,0.223,0.161,0.029,-0.934,-16.103,7.245,2.369,-1.920,-0.088,happy
3.67,2869,3035,3785,3436,2501,0,422,0,0,0,179,0,0,0,0,0,0.357,3.613,9.275,0.281,0.235,0.033,0.651,-14.945,1.123,1.728,-1.001,-0.754,happy
3.68,2884,3088,3807,3457,2421,0,144,0,0,0,0,0,0,0,0,0,0.417,3.393,9.325,0.378,0.245,0.061,-2.392,-15.517,-1.176,0.892,0.229,-1.078,happy
3.69,2957,3066,3824,3509,2064,0,0,0,0,0,0,0,1,0,0,0,0.014,4.087,9.311,0.468,0.215,0.088,-7.690,-17.159,-0.761,0.158,0.296,-0.953,happy
3.70,3006,3086,3844,3574,1650,0,0,0,0,0,0,0,0,0,0,1,0.031,4.029,9.146,0.546,0.205,0.111,-7.946,-16.783,-0.797,-0.523,-0.058,-0.491,happy
3.71,3071,3004,3861,3582,1526,0,0,0,0,0,0,0,0,0,0,0,0.110,4.058,9.316,0.591,0.161,0.145,3.745,-9.062,-6.124,-2.254,0.357,-0.872,happy
3.72,3139,2955,3860,3653,1163,0,0,0,0,0,0,0,0,0,0,0,0.208,4.384,9.021,0.759,0.177,0.230,4.259,-1.846,17.245,-0.137,3.120,0.307,happy
3.73,3216,2767,3888,3651,1138,0,0,0,0,0,0,0,0,0,0,0,0.335,4.092,8.909,0.811,0.140,0.283,-3.651,10.300,17.554,-1.919,1.091,-0.375,happy
3.74,3280,2672,3897,3679,782,0,0,0,0,0,0,0,0,0,0,637,0.251,3.812,9.268,1.045,0.126,0.400,-0.108,5.559,3.335,-3.224,-0.137,-0.067,happy
3.75,3357,2591,3901,3686,560,0,0,0,0,0,0,0,0,0,0,1701,0.395,3.931,9.448,1.206,0.293,0.485,-4.367,-4.118,9.373,-2.999,0.508,1.214,happy
3.76,3422,2465,3937,3713,404,0,0,0,0,0,7,0,0,0,14,2599,0.280,3.666,9.014,1.449,0.443,0.596,-0.833,-2.844,12.189,-3.300,-0.171,0.800,happy
3.77,3477,2378,3898,3691,109,0,0,0,0,0,0,0,0,0,487,3123,0.457,4.927,9.474,1.507,0.458,0.560,0.199,-2.416,10.092,-3.574,-0.789,0.636,happy
3.78,3570,2323,3875,3690,0,0,0,0,0,0,2,0,0,0,859,3333,0.065,4.398,8.667,1.764,0.744,0.670,-1.231,-3.783,12.036,-3.491,-1.045,0.787,happy
3.79,3639,2227,3827,3659,0,0,0,0,4,0,10,0,0,19,1295,3511,0.057,4.441,8.531,2.012,0.788,0.689,0.232,-19.613,19.613,-0.667,3.349,2.314,happy
3.80,3697,2237,3704,3650,0,0,0,0,0,0,5,23,0,0,1560,3625,0.577,4.671,9.914,2.048,1.009,0.677,7.736,-6.211,14.911,0.159,0.993,-0.288,happy
3.81,3696,2106,3418,3546,0,0,0,0,0,0,0,0,0,0,1994,3669,0.409,4.982,8.528,2.504,1.168,0.737,-5.080,-0.464,15.285,-0.062,1.797,0.655,happy
3.82,3691,1898,3327,3446,0,0,0,0,0,0,2,0,0,5,1899,3676,0.369,5.382,7.956,2.861,1.402,0.691,-0.474,-3.306,9.062,-0.070,0.983,0.196,happy
3.83,3627,1794,3268,3238,0,0,0,0,0,0,2,4,2,0,2125,3737,0.239,4.180,7.592,3.340,1.450,0.508,0.986,-3.709,12.388,0.058,0.533,0.205,happy
3.84,3472,1827,3205,2546,0,0,0,0,0,0,0,0,0,0,2297,3753,0.620,4.061,9.352,4.163,1.237,0.414,1.652,-2.401,9.835,0.024,0.608,0.257,happy
3.85,3203,1519,2974,2106,0,0,0,0,3,0,2,0,24,0,2347,3783,-2.447,6.651,16.099,5.029,0.526,-0.069,1.223,-2.471,9.953,0.031,0.524,0.217,happy
3.86,2352,509,2464,1584,0,0,0,0,0,0,5,0,63,0,2483,3819,-1.451,13.060,15.641,5.434,-0.148,-1.092,0.603,-2.198,10.295,-0.051,0.475,0.234,happy
3.87,1057,0,437,314,0,0,0,0,0,18,79,119,174,0,2557,3891,-6.144,13.027,15.421,6.512,-1.226,-1.937,1.137,-2.399,9.285,0.005,0.410,0.238,happy
3.88,130,0,0,0,0,0,0,0,2,175,698,1194,425,2,2749,3917,-3.084,10.661,11.655,6.878,-2.091,-2.591,0.814,-2.682,10.216,0.029,0.275,0.137,happy
3.89,0,0,0,0,0,0,0,0,1,316,1635,1511,475,1,2863,3943,1.523,6.639,19.606,3.336,-1.313,-2.856,1.030,-2.665,9.720,0.043,0.193,0.093,happy
3.90,0,0,0,0,0,0,0,0,3,503,1676,1735,498,2,2950,3963,3.428,4.966,17.882,0.297,-0.787,-3.501,0.876,-2.634,9.934,0.051,0.163,0.061,happy
3.91,0,0,0,0,0,0,0,0,1,569,1707,1815,620,1,3015,3973,5.550,5.636,18.246,-0.811,-0.796,-1.861,0.639,-2.272,10.020,0.047,0.135,0.058,happy
3.92,0,0,0,0,0,0,0,0,1,587,1929,1967,825,2,3107,3981,4.324,1.963,11.779,-1.438,-0.816,-1.815,0.634,-2.119,9.704,-0.008,0.155,0.079,happy
3.93,0,0,0,0,0,0,0,0,0,629,1937,1996,856,2,3164,3987,5.243,1.575,8.411,-2.060,-0.480,-1.474,0.663,-2.545,10.058,0.018,0.145,0.059,happy
3.94,0,0,0,0,0,0,0,0,2,682,1906,2085,919,3,3209,3959,3.888,-0.072,6.697,-2.191,-0.628,-1.241,0.543,-2.284,9.864,-0.019,0.145,0.080,happy
3.95,0,0,0,0,0,0,0,0,0,728,1952,2183,887,0,3240,3973,2.926,0.881,6.584,-2.335,-1.055,-0.890,0.654,-2.385,9.890,-0.011,0.140,0.079,happy
3.96,0,0,0,0,0,0,0,0,0,713,1955,2238,875,36,3243,3925,2.480,1.324,7.594,-2.491,-1.480,-0.642,0.493,-2.191,9.771,-0.040,0.111,0.053,happy
3.97,0,0,0,0,0,0,0,0,2,783,1814,2375,879,1,3247,3948,2.418,2.433,8.356,-2.818,-1.686,-0.398,0.632,-2.236,9.701,-0.051,0.101,0.080,happy
3.98,0,0,0,0,0,0,0,0,0,845,2003,2427,923,3,3236,3965,1.865,3.007,8.638,-3.158,-1.756,-0.173,0.618,-2.430,9.752,-0.061,0.096,0.078,happy
3.99,0,0,0,0,0,0,0,0,1,918,2067,2440,973,1,3211,3923,0.608,3.685,9.127,-3.432,-1.770,-0.003,0.543,-2.440,9.900,-0.069,0.087,0.079,happy
4.00,0,0,0,0,0,0,0,0,2,982,2037,2503,915,2,3221,3911,-0.340,4.108,9.031,-3.660,-1.823,0.139,0.560,-2.476,9.850,-0.067,0.083,0.068,happy
4.01,0,0,0,0,0,0,0,0,11,1045,2085,2553,1060,1,3207,3900,-0.950,4.556,9.191,-3.760,-1.936,0.313,0.599,-2.483,9.852,-0.045,0.068,0.044,happy
4.02,0,0,0,0,0,0,0,0,2,1081,2101,2595,1023,2,3180,3875,-1.204,5.102,9.120,-3.788,-2.003,0.527,0.577,-2.531,9.766,-0.050,0.079,0.063,happy
4.03,0,0,0,0,0,0,0,0,9,1085,2024,2697,1085,2,3176,3768,-1.310,5.923,9.998,-3.815,-1.941,0.785,0.692,-2.495,9.790,-0.058,0.091,0.067,happy
4.04,0,0,0,0,0,0,0,0,3,1110,2147,2671,1129,45,3133,3847,-0.807,6.333,10.044,-3.830,-1.767,1.122,0.773,-3.010,9.713,-0.049,0.086,0.021,happy
4.05,0,0,0,0,0,0,0,0,2,1189,2193,2825,1199,1,3069,3813,0.134,6.483,10.669,-3.764,-1.272,1.759,0.433,-2.195,9.843,-0.043,0.112,0.057,happy
4.06,0,0,0,0,0,0,0,0,2,1112,2157,2858,1157,3,3056,3799,-0.096,6.721,10.965,-3.736,-1.026,2.121,0.682,-3.036,9.591,-0.002,0.093,0.022,happy
4.07,0,0,0,0,0,0,0,0,26,1099,2280,2921,1135,9,3028,3788,-0.005,6.713,10.415,-3.576,-0.888,2.447,0.455,-2.533,9.730,-0.010,0.106,0.045,happy
4.08,0,0,0,0,0,0,0,0,10,1137,2352,2937,1182,6,2941,3767,2.231,8.104,10.755,-3.125,-0.499,3.044,0.393,-2.521,9.730,0.013,0.087,0.047,happy
4.09,0,0,0,0,0,0,0,0,45,1221,2403,2975,1356,11,2859,3703,5.195,10.211,11.260,-2.766,0.086,3.450,0.438,-2.500,9.816,-0.020,0.087,0.047,happy
4.10,0,0,0,0,0,0,0,0,41,1240,2449,3029,1547,11,2777,3707,6.687,19.613,17.758,-2.771,1.225,4.273,0.450,-2.480,9.749,0.001,0.071,0.045,happy
4.11,0,0,0,0,0,0,0,0,37,1294,2602,3021,1583,10,2697,3676,6.275,19.613,15.172,-3.549,1.804,4.893,0.464,-2.574,9.890,-0.006,0.081,0.047,happy
4.12,0,0,0,0,0,0,0,0,319,1336,2608,3097,1695,0,2549,3627,5.320,19.613,-8.557,-1.533,1.759,5.251,0.472,-2.399,9.934,-0.029,0.069,0.043,happy
4.13,0,0,0,0,0,0,0,0,455,1435,2689,3108,1733,47,2517,3497,-5.131,19.613,-7.815,0.541,-0.247,4.472,0.429,-2.315,9.766,-0.043,0.037,0.039,happy
4.14,0,0,0,0,0,0,0,1965,759,1311,2669,3256,1753,49,2251,3325,-1.915,19.053,-19.613,3.026,-0.890,3.725,0.589,-2.516,9.797,-0.096,0.031,0.027,happy
4.15,0,0,0,0,0,0,386,3022,1183,1398,2669,3401,1421,61,1671,2373,-19.613,0.998,19.613,2.960,1.034,-0.658,0.632,-2.382,10.072,-0.238,-0.051,-0.019,happy
4.16,0,0,0,0,332,0,1107,3261,1596,1408,2684,3453,995,46,1340,2041,-15.251,7.187,19.613,4.517,-0.887,-1.007,0.757,-2.260,9.816,-0.395,-0.128,-0.062,happy
4.17,544,146,0,0,697,0,1800,3344,2093,1327,2761,3510,215,11,7,521,0.129,3.230,14.897,1.028,-0.180,-0.342,1.810,-0.204,9.814,-1.114,-0.364,-0.045,happy
4.18,937,1078,1610,165,1072,0,2383,3367,2604,958,2807,3559,0,0,0,235,0.208,6.845,11.152,0.371,-0.201,-0.019,3.326,-9.167,11.961,-2.347,-0.539,-0.576,happy
4.19,1104,1726,2337,603,1841,0,2821,3451,2719,533,2771,3572,0,2,0,253,0.603,3.831,9.663,0.146,-0.120,0.017,1.803,-5.265,10.724,-2.220,0.039,-0.720,happy
4.20,1244,1983,2638,912,2163,0,2979,3471,3047,0,2608,3607,0,0,0,165,0.680,3.563,9.287,0.205,-0.069,-0.059,0.388,-3.160,9.692,-2.490,0.895,-0.665,happy
4.21,1344,2171,2858,1213,2435,0,3041,3428,2997,0,2454,3483,0,0,0,53,0.572,3.946,9.469,0.180,0.026,-0.077,-0.376,-2.291,9.565,-3.179,1.236,-0.189,happy
4.22,1424,2308,2999,1697,2591,0,3085,3469,2759,0,2152,3353,0,11,0,69,0.376,3.814,9.459,0.086,0.058,-0.029,1.355,-3.079,9.177,-3.867,1.103,0.401,happy
4.23,1495,2400,3088,1906,2662,0,3123,3475,1497,0,63,2157,0,0,0,10,0.280,3.649,9.316,0.089,0.030,-0.039,0.804,-6.955,17.176,-4.569,0.857,2.474,happy
4.24,1591,2467,3172,2051,2789,0,3157,3487,247,0,2,157,0,0,0,0,0.455,3.728,9.349,0.076,0.000,-0.009,-0.570,-4.195,14.571,-4.522,-0.151,3.781,happy
4.25,1670,2559,3234,2213,2949,27,3203,3489,0,0,0,0,0,0,0,0,0.345,3.761,9.333,0.065,-0.008,-0.001,-1.602,-7.360,16.970,-3.288,-0.697,3.481,happy
4.26,1758,2666,3289,2306,3071,135,3230,3486,0,0,0,0,0,0,0,0,0.472,3.747,9.285,0.081,0.002,-0.010,-2.519,-7.080,16.486,-0.374,-0.195,3.336,happy
4.27,1811,2703,3338,2363,3136,79,3226,3424,0,0,0,0,0,0,0,0,0.405,3.694,9.297,0.094,0.010,-0.024,6.955,-0.800,7.084,1.100,-0.536,2.844,happy
4.28,1856,2741,3337,2432,3157,0,3155,3392,0,0,0,0,0,0,0,0,0.407,3.768,9.268,0.087,0.012,-0.023,6.601,0.206,6.426,1.292,-0.743,2.200,happy
4.29,1841,2788,3386,2467,3209,0,3152,3376,0,0,0,0,0,0,0,0,0.400,3.814,9.321,0.086,0.016,-0.024,6.369,-0.141,5.176,1.341,-1.106,1.427,happy
4.30,1952,2801,3405,2507,3231,0,3111,3341,0,0,0,0,0,0,0,11,0.338,3.819,9.287,0.076,0.024,-0.026,5.648,-0.110,5.768,1.360,-1.494,0.754,happy
4.31,1980,2815,3431,2559,3245,0,3021,3280,0,62,0,0,0,0,0,0,0.431,3.778,9.249,0.073,0.032,-0.031,3.019,-1.080,9.131,1.693,-2.137,-0.299,happy
4.32,2002,2802,3455,2559,3234,0,2935,3175,0,0,0,0,0,0,5,0,0.426,3.778,9.201,0.071,0.036,-0.039,-0.306,-1.209,9.905,2.170,-2.441,-0.936,happy
4.33,2143,2860,3473,2649,3251,0,2850,3165,0,0,0,0,0,0,0,0,0.376,3.819,9.208,0.066,0.036,-0.026,-1.767,-1.520,10.384,2.299,-2.534,-1.113,happy
4.34,2188,2835,3501,2698,3270,0,2729,3094,0,0,0,0,5,0,0,0,0.321,3.797,9.280,0.062,0.043,-0.020,-5.186,-2.033,12.440,2.701,-2.383,-1.026,happy
4.35,2265,2823,3531,2747,3285,0,2559,2990,0,0,0,0,0,0,0,0,0.338,3.785,9.256,0.057,0.058,-0.022,-9.555,-1.688,12.285,3.039,-2.236,0.023,happy
4.36,2372,2864,3551,2838,3275,0,2465,2938,0,0,0,0,0,0,0,0,0.347,3.816,9.270,0.050,0.066,-0.022,-10.209,-2.263,12.847,3.133,-2.281,0.762,happy
4.37,2460,2818,3582,2886,3245,0,2320,2796,0,0,0,0,0,0,0,0,0.395,3.836,9.234,0.051,0.076,-0.012,-8.866,-4.058,14.152,3.206,-2.357,2.062,happy
4.38,2543,2811,3617,2955,3222,0,2053,2501,0,0,0,0,0,0,0,0,0.345,3.819,9.311,0.071,0.089,-0.007,-7.039,-5.485,12.677,3.179,-2.433,2.847,happy
4.39,2640,2873,3658,3062,3127,0,1695,2063,0,0,0,0,0,0,0,13,0.323,3.709,9.311,0.087,0.098,-0.002,-6.136,-6.122,12.112,3.099,-2.292,3.175,happy
4.40,2769,2897,3669,3140,2923,0,1514,1371,0,0,2,0,0,0,0,0,0.388,3.807,9.227,0.098,0.132,0.006,-7.290,-6.785,11.765,2.808,-2.319,3.700,happy
4.41,2864,2906,3702,3169,2816,0,1235,573,0,0,2,0,0,0,0,0,0.172,3.757,9.172,0.120,0.124,0.020,-8.066,-8.258,12.416,2.515,-2.479,3.940,happy
4.42,2926,2919,3725,3174,2747,0,1075,0,0,0,2,0,0,0,0,0,0.227,3.790,9.290,0.132,0.145,0.022,-6.481,-7.997,10.285,2.354,-2.107,3.775,happy
4.43,2978,2957,3742,3251,2781,0,835,0,0,0,0,0,0,0,0,0,0.347,3.826,9.462,0.123,0.171,0.018,-4.585,-8.179,8.389,2.060,-1.396,3.383,happy
4.44,3033,2973,3759,3293,2707,0,629,0,0,0,0,0,0,7,0,0,0.314,3.857,9.376,0.152,0.189,0.014,-2.895,-9.483,8.174,1.753,-0.707,2.809,happy
4.45,3071,3012,3757,3315,2629,0,432,0,0,0,0,0,0,0,0,0,0.194,3.754,9.199,0.189,0.215,0.012,-1.070,-10.367,6.653,1.463,-0.013,2.136,happy
4.46,3103,3013,3791,3355,2446,0,158,0,0,0,0,0,0,0,0,0,0.323,3.723,9.103,0.230,0.247,0.031,2.966,-11.849,-0.074,0.291,1.047,1.059,happy
4.47,3154,3017,3798,3396,2217,0,0,0,0,0,0,0,0,0,0,0,0.122,3.912,9.369,0.291,0.225,0.052,-3.991,-13.891,-1.808,-0.081,2.412,0.543,happy
4.48,3170,3023,3786,3428,1856,0,0,0,0,0,0,0,0,0,0,0,0.232,3.879,9.433,0.365,0.238,0.073,0.268,-6.510,5.684,-0.107,2.173,0.011,happy
4.49,3243,3029,3834,3445,1487,0,0,0,0,0,0,0,0,0,42,0,0.022,4.053,9.306,0.445,0.242,0.103,2.957,2.761,17.171,0.264,1.925,0.134,happy
4.50,3293,2953,3843,3479,1153,0,0,0,0,0,0,0,0,0,0,199,0.050,3.227,9.677,1.107,0.438,0.375,0.797,11.126,9.878,-1.106,0.868,-0.404,happy
4.51,3344,2823,3853,3507,1009,0,0,0,0,0,0,0,0,0,0,635,1.049,3.646,10.745,0.879,0.270,0.318,-1.171,0.381,3.038,-1.449,0.830,0.393,happy
4.52,3391,2685,3858,3562,859,0,0,0,0,0,0,0,0,0,339,1485,0.611,4.254,8.892,1.073,0.262,0.435,-1.748,-1.824,10.317,-1.579,0.673,0.701,happy
4.53,3450,2486,3859,3552,391,0,0,0,0,0,0,0,0,0,748,2299,0.347,3.524,9.400,1.284,0.270,0.535,0.883,-3.347,10.949,-2.023,-0.192,0.306,happy
4.54,3510,2431,3859,3567,239,0,0,0,3,0,0,0,0,3,856,2920,0.376,3.788,9.227,1.479,0.355,0.585,-1.221,-1.788,11.899,-2.032,-0.438,0.382,happy
4.55,3568,2241,3839,3558,0,0,0,0,0,0,10,0,0,0,1207,3295,0.081,4.140,8.964,1.782,0.566,0.693,0.599,-11.930,14.868,-1.092,0.706,0.323,happy
4.56,3621,2239,3811,3558,0,0,0,0,0,0,2,0,0,0,1559,3419,0.510,4.353,8.899,2.055,0.754,0.665,-1.997,0.218,10.783,-0.421,0.773,0.252,happy
4.57,3655,2132,3754,3472,0,0,0,0,0,0,2,0,9,0,1800,3529,0.929,4.348,8.906,2.428,0.974,0.749,1.398,-3.613,10.815,-0.361,0.131,0.093,happy
4.58,3667,1904,3579,3341,0,0,0,0,0,0,0,0,0,0,1968,3615,1.848,5.677,10.008,2.779,0.990,0.648,0.541,-3.045,11.480,-0.244,0.169,0.140,happy
4.59,3643,1685,3251,3215,0,0,0,0,0,0,151,0,0,0,2237,3666,0.752,4.628,8.633,3.270,1.405,0.747,1.214,-2.255,9.960,-0.149,0.225,0.136,happy
4.60,3511,1670,3183,2878,0,0,0,0,0,0,2,0,0,0,2287,3747,1.841,3.886,9.766,3.714,1.833,0.653,1.386,-2.543,10.345,-0.104,0.257,0.165,happy
4.61,3219,1354,2896,2096,0,0,0,0,0,0,0,0,11,0,2427,3785,-3.007,5.341,15.086,4.582,1.338,0.330,1.362,-2.107,9.993,-0.076,0.292,0.202,happy
4.62,2313,699,2333,1483,0,0,0,0,0,0,2,6,7,0,2477,3834,0.881,7.827,16.099,5.157,0.354,-0.638,0.572,-1.350,9.867,-0.097,0.347,0.275,happy
4.63,1907,0,1221,693,0,0,0,0,0,0,202,116,179,0,2623,3885,1.250,10.879,18.361,5.804,-0.060,-1.813,1.075,-2.138,9.553,-0.176,0.375,0.330,happy
4.64,384,0,0,0,0,0,0,0,0,0,0,627,247,0,2745,3900,0.692,18.512,14.116,5.346,0.590,-2.574,1.238,-3.124,10.309,-0.115,0.274,0.257,happy
4.65,0,0,0,0,0,0,0,0,0,0,1533,917,187,38,2887,3956,9.203,9.562,15.490,2.299,2.979,-1.417,0.855,-2.361,10.046,-0.143,0.197,0.205,happy
4.66,0,0,0,0,0,0,0,0,0,0,1661,1190,443,29,2966,4005,0.304,13.654,13.812,0.579,2.647,0.153,0.900,-2.337,9.926,-0.073,0.173,0.152,happy
4.67,0,0,0,0,0,0,0,0,0,0,1712,1429,471,0,3030,4041,3.089,2.725,17.279,-0.533,2.107,0.879,0.924,-2.452,9.857,-0.064,0.137,0.122,happy
4.68,0,0,0,0,0,0,0,0,0,23,1686,1573,501,7,3113,4041,4.796,4.741,10.961,-1.192,2.358,1.019,0.857,-2.435,9.950,-0.040,0.120,0.098,happy
4.69,0,0,0,0,0,0,0,0,0,30,1922,1628,553,0,3167,4043,3.069,3.086,9.213,-1.683,2.535,1.081,0.871,-2.423,9.924,-0.032,0.108,0.091,happy
4.70,0,0,0,0,0,0,0,0,1,110,1947,1624,675,0,3225,4041,2.495,2.547,6.036,-1.818,2.402,1.156,0.958,-2.119,9.675,-0.052,0.145,0.111,happy
4.71,0,0,0,0,0,0,0,0,6,126,1952,1845,623,1,3253,4038,2.471,2.399,6.067,-1.835,2.143,1.189,0.745,-2.136,9.627,-0.089,0.108,0.131,happy
4.72,0,0,0,0,0,0,0,0,4,199,1988,1939,667,1,3301,4021,3.819,3.994,6.254,-2.078,1.996,1.244,0.804,-2.351,9.993,-0.085,0.143,0.113,happy
4.73,0,0,0,0,0,0,0,0,0,218,2126,2115,695,1,3289,4005,5.387,4.104,5.428,-2.356,2.157,1.372,0.833,-2.251,9.883,-0.087,0.154,0.108,happy
4.74,0,0,0,0,0,0,0,0,24,271,1993,2197,719,3,3293,3994,5.887,4.527,4.499,-2.502,2.387,1.560,0.687,-2.397,9.845,-0.100,0.096,0.095,happy
4.75,0,0,0,0,0,0,0,0,0,261,2111,2263,759,10,3295,3967,5.804,5.219,4.585,-2.640,2.464,1.827,0.785,-2.325,9.761,-0.102,0.076,0.091,happy
4.76,0,0,0,0,0,0,0,0,0,265,2034,2347,718,2,3289,3959,5.765,5.590,4.281,-2.731,2.388,2.140,0.883,-2.394,9.737,-0.118,0.064,0.086,happy
4.77,0,0,0,0,0,0,0,0,0,307,2290,2391,750,2,3287,3941,5.974,5.571,3.840,-2.702,2.350,2.443,0.778,-2.447,9.833,-0.123,0.049,0.084,happy
4.78,0,0,0,0,0,0,0,0,1,285,2216,2421,751,11,3284,3849,5.890,5.880,4.286,-2.629,2.318,2.709,0.785,-2.466,9.869,-0.117,0.058,0.086,happy
4.79,0,0,0,0,0,0,0,0,1,317,2408,2461,841,3,3287,3921,5.080,6.371,5.468,-2.632,2.222,2.907,0.694,-2.574,9.910,-0.102,0.055,0.082,happy
4.80,0,0,0,0,0,0,0,0,1,389,2431,2568,855,2,3286,3901,4.568,6.378,5.739,-2.724,2.185,2.941,0.675,-2.569,9.838,-0.073,0.049,0.068,happy
4.81,0,0,0,0,0,0,0,0,1,426,2505,2549,860,1,3273,3887,4.520,6.160,5.741,-2.764,2.182,2.859,0.773,-2.406,9.629,-0.067,0.058,0.061,happy
4.82,0,0,0,0,0,0,0,0,0,475,2526,2567,982,2,3190,3867,5.162,6.371,6.359,-2.799,2.239,2.728,0.790,-2.555,9.725,-0.078,0.049,0.060,happy
4.83,0,0,0,0,0,0,0,0,4,520,2505,2639,1055,2,3263,3836,5.892,6.548,6.615,-2.885,2.265,2.685,0.642,-2.433,9.694,-0.076,0.045,0.065,happy
4.84,0,0,0,0,0,0,0,0,2,549,2595,2709,1170,1,3235,3805,6.651,6.577,6.448,-2.884,2.230,2.732,0.539,-2.495,9.941,-0.082,0.056,0.059,happy
4.85,0,0,0,0,0,0,0,0,0,768,2610,2787,1255,0,3289,3748,7.573,7.161,7.391,-2.821,2.171,2.860,0.551,-2.567,9.902,-0.057,0.051,0.052,happy
4.86,0,0,0,0,0,0,0,0,0,965,2608,2773,1399,3,3244,3707,8.777,8.226,8.930,-2.890,2.094,3.124,0.740,-2.557,9.843,-0.058,0.054,0.041,happy
4.87,0,0,0,0,0,0,0,0,1,1064,2669,2836,1547,2,3207,3647,8.880,8.691,9.234,-3.042,2.070,3.465,0.622,-2.583,9.862,-0.052,0.055,0.038,happy
4.88,0,0,0,0,0,0,0,0,0,1107,2641,2871,1741,2,3159,3627,8.442,8.243,8.241,-3.091,1.996,3.732,0.694,-2.595,9.771,-0.059,0.034,0.041,happy
4.89,0,0,0,0,0,0,0,0,39,1363,2723,2935,1885,0,3107,3574,7.980,8.320,8.550,-3.018,1.808,3.890,0.773,-2.559,9.840,-0.070,0.038,0.033,happy
4.90,0,0,0,0,0,0,0,0,45,1520,2741,2997,2039,13,3049,3579,8.392,9.313,10.341,-3.025,1.606,4.033,0.706,-2.514,9.615,-0.069,0.014,0.027,happy
4.91,0,0,0,0,0,0,0,0,105,1567,2764,2985,2153,39,2909,3547,9.134,10.060,11.243,-3.150,1.542,4.138,0.804,-2.624,9.843,-0.061,0.037,0.025,happy
4.92,0,0,0,0,0,0,0,0,123,1758,2815,3093,2367,31,2661,3452,10.125,11.188,10.815,-3.079,1.371,4.296,0.713,-2.593,9.802,-0.065,0.039,0.024,happy
4.93,0,0,0,0,0,0,0,0,138,1976,2766,3145,2543,29,2652,3372,11.487,13.065,9.467,-2.808,1.023,4.679,0.826,-2.569,9.663,-0.086,0.016,0.021,happy
4.94,0,0,0,0,0,0,0,0,338,2111,2907,3160,2629,47,2568,3229,13.314,14.609,7.230,-2.209,0.651,5.334,0.582,-2.409,9.938,-0.116,-0.025,0.006,happy
4.95,0,0,0,0,0,0,0,0,683,2233,2920,3243,2745,0,2445,3111,13.154,17.293,6.838,-1.438,-0.064,6.380,0.733,-2.741,9.814,-0.145,0.016,0.017,happy
4.96,0,0,0,0,0,0,0,0,917,2335,2943,3305,2809,48,2206,2917,11.396,17.459,6.948,-0.723,-0.982,7.137,1.089,-2.988,9.067,-0.065,-0.081,0.022,happy
4.97,0,0,0,0,0,0,0,0,1015,2343,3007,3321,2809,51,2159,2869,8.176,16.855,7.321,-0.383,-1.126,7.083,0.802,-2.440,10.080,-0.253,-0.026,-0.011,happy
4.98,0,0,0,0,0,0,62,0,1251,2259,2863,3366,2509,52,1609,1897,-11.976,16.884,-9.155,2.216,-2.407,6.292,1.077,-3.220,9.560,-0.139,-0.012,0.032,happy
4.99,0,0,0,0,0,0,208,387,1619,2281,2999,3432,2163,51,889,1101,-16.108,19.613,2.907,2.389,0.760,1.727,0.776,-2.780,9.697,-0.095,-0.125,0.059,happy
5.00,0,0,0,0,64,0,484,2356,1661,2265,3009,3429,1955,47,437,845,-19.613,-2.550,19.211,0.835,1.498,-0.241,0.852,-3.357,9.898,-0.213,-0.175,0.068,happy
5.01,0,0,0,0,223,0,1180,2935,2088,2059,2999,3435,839,23,152,599,1.817,5.954,7.793,1.916,0.498,-0.714,0.575,-2.749,9.773,-0.479,-0.130,0.009,happy
5.02,0,0,0,0,755,0,1712,3065,2487,2105,3012,3411,535,41,235,416,0.180,4.362,17.607,0.706,0.804,-0.139,0.510,-3.203,9.476,-0.618,-0.155,-0.074,happy
5.03,0,210,0,0,1023,0,2130,3134,2557,2139,3002,3385,364,29,107,361,3.438,7.355,11.200,0.548,0.123,-0.298,0.812,-2.878,9.555,-0.512,-0.252,0.047,happy
5.04,0,766,0,0,1440,0,2544,3214,2701,2189,2981,3337,249,36,164,239,0.974,2.301,9.718,0.249,0.015,-0.187,0.919,-2.974,9.268,-0.561,-0.405,0.377,happy
5.05,0,1204,560,0,1827,0,2736,3248,2762,2379,2963,3291,229,2,7,73,0.790,2.854,9.122,0.395,0.043,-0.337,0.711,-3.306,9.527,-0.629,-0.652,1.030,happy
5.06,0,1764,1467,0,2112,0,2845,3328,2760,2335,3002,3291,167,3,7,149,0.373,3.462,10.111,0.400,-0.033,-0.326,0.843,-3.297,9.694,-0.618,-0.935,1.596,happy
5.07,118,1969,2063,138,2477,0,2918,3343,2591,2105,2897,3155,199,7,51,108,0.263,3.663,9.665,0.295,-0.083,-0.170,0.953,-2.131,10.712,-1.007,-1.384,2.964,happy
5.08,327,2133,2495,198,2702,0,3037,3321,2068,1357,2735,2249,55,0,0,13,0.831,3.306,9.184,0.323,-0.053,-0.153,1.109,-3.393,10.151,-1.948,-2.483,4.627,happy
5.09,567,2362,2769,346,2923,0,3123,3363,1637,1151,2807,1913,75,0,0,0,0.783,3.417,9.500,0.366,0.031,-0.202,1.659,-3.433,11.111,-2.312,-2.921,4.910,happy
5.10,757,2510,2989,546,3021,0,3190,3376,866,581,1922,979,0,0,0,0,0.718,3.663,9.318,0.388,0.144,-0.246,3.759,-3.970,9.799,-2.129,-3.581,5.692,happy
5.11,922,2582,3133,1139,3146,85,3235,3362,559,141,15,265,0,0,10,0,0.342,3.936,9.388,0.343,0.099,-0.173,1.537,-6.543,10.568,-2.437,-4.477,5.538,happy
5.12,1216,2675,3235,1732,3184,0,3259,3397,295,0,5,0,0,0,0,0,0.496,3.843,9.309,0.257,0.128,-0.115,-0.290,-5.361,12.136,-2.464,-5.420,5.583,happy
5.13,1515,2713,3294,2047,3209,227,3248,3379,2,0,0,0,0,0,0,0,0.546,3.757,9.383,0.179,0.159,-0.094,0.263,-8.308,7.846,-1.757,-5.173,5.027,happy
5.14,1705,2726,3344,2271,3173,196,3143,3340,0,0,2,0,0,0,0,0,0.460,3.804,9.210,0.163,0.211,-0.096,-0.371,-9.936,8.080,-0.904,-4.038,4.246,happy
5.15,1890,2731,3377,2467,2971,250,2979,3277,0,0,0,0,0,0,0,0,0.211,3.958,9.270,0.133,0.228,-0.087,-2.373,-5.780,13.123,0.313,-3.572,4.224,happy
5.16,2069,2727,3406,2644,2918,237,2862,3201,0,0,2,0,0,0,11,0,-0.060,3.417,9.201,0.108,0.172,-0.056,-2.998,-2.006,8.820,1.155,-2.942,4.162,happy
5.17,2217,2704,3440,2763,2893,267,2784,3071,0,0,0,0,0,0,0,0,0.194,3.967,9.234,0.045,0.146,-0.039,-1.496,-0.244,10.475,1.504,-2.207,2.975,happy
5.18,2334,2755,3468,2864,2820,240,2672,2881,0,0,0,0,0,0,0,0,0.163,3.754,9.371,0.055,0.146,-0.042,-1.697,-0.692,10.202,1.625,-1.772,2.538,happy
5.19,2384,2759,3500,2934,2768,257,2559,2419,22,0,0,0,0,0,0,0,-0.022,3.675,9.345,0.034,0.166,-0.056,-3.093,0.170,11.375,1.891,-1.762,1.899,happy
5.20,2423,2736,3517,2961,2742,262,2439,2224,0,0,0,4,0,0,0,0,0.204,3.869,9.189,0.021,0.138,-0.047,-2.531,0.311,11.547,2.245,-1.572,1.358,happy
5.21,2480,2757,3530,3033,2681,291,2318,2133,0,8,0,0,0,0,0,0,0.024,3.836,9.210,0.019,0.131,-0.045,-2.971,-0.271,12.486,2.503,-1.355,1.155,happy
5.22,2525,2746,3546,3070,2604,339,2183,2031,0,0,0,0,0,0,0,0,0.022,3.795,9.378,0.019,0.138,-0.041,-3.790,-0.804,11.806,2.913,-1.182,0.946,happy
5.23,2527,2693,3553,3069,2496,310,2000,1883,0,0,0,0,0,0,28,0,0.002,3.740,9.268,0.042,0.112,-0.038,-3.057,-1.657,11.763,3.092,-1.073,0.977,happy
5.24,2541,2733,3563,3127,2473,230,1847,1751,0,0,0,0,0,0,0,0,-0.172,3.697,9.239,0.038,0.101,-0.031,-2.318,-2.071,11.825,3.127,-0.960,1.006,happy
5.25,2559,2733,3569,3152,2375,126,1610,1626,0,0,0,0,0,0,0,0,-0.158,3.713,9.196,0.039,0.103,-0.027,-1.604,-3.462,13.039,3.181,-1.046,1.073,happy
5.26,2619,2697,3575,3141,2288,0,1595,1424,0,0,17,0,0,0,0,0,-0.034,3.802,9.242,0.047,0.108,-0.031,-0.024,-4.853,12.747,3.240,-1.224,0.948,happy
5.27,2631,2738,3600,3194,2155,0,1487,1286,4,0,17,0,0,0,0,0,-0.189,3.666,9.321,0.051,0.106,-0.034,0.057,-5.102,12.323,3.221,-1.176,0.861,happy
5.28,2626,2736,3604,3221,2058,0,1383,1063,0,0,33,0,40,0,0,0,-0.297,3.733,9.301,0.048,0.099,-0.024,-0.692,-6.618,14.042,3.120,-1.400,0.734,happy
5.29,2643,2721,3621,3226,2021,0,1237,661,0,0,0,0,0,0,0,0,-0.156,3.699,9.292,0.074,0.104,-0.019,0.405,-8.722,12.177,3.088,-1.355,0.547,happy
5.30,2672,2748,3639,3298,1963,0,1063,385,0,0,0,0,0,0,0,0,-0.165,3.706,9.354,0.117,0.101,-0.022,1.123,-9.855,11.437,2.980,-1.137,0.504,happy
5.31,2687,2749,3662,3346,1821,0,770,0,0,0,0,0,0,0,0,0,-0.225,3.730,9.057,0.147,0.102,-0.004,3.747,-11.542,6.709,2.452,-0.856,0.251,happy
5.32,2691,2725,3673,3370,1667,0,598,0,0,0,2,0,0,0,0,0,-0.259,3.716,9.311,0.187,0.099,0.007,4.051,-12.184,4.120,1.972,-0.676,-0.110,happy
5.33,2706,2683,3717,3402,1529,0,395,0,0,0,0,0,0,0,0,0,-0.105,3.852,9.380,0.223,0.122,0.014,2.251,-12.191,1.592,1.309,-0.652,-0.569,happy
5.34,2742,2608,3709,3440,1408,0,98,0,0,0,5,27,0,0,0,5,0.347,3.845,9.110,0.275,0.156,0.035,0.065,-13.065,-0.443,0.574,-0.626,-0.741,happy
5.35,2811,2423,3723,3479,1248,0,5,0,0,0,2,0,0,0,0,0,-0.402,3.666,9.342,0.461,0.132,0.117,-0.543,-13.616,-1.386,-0.167,-0.347,-0.644,happy
5.36,2882,2299,3734,3518,1046,0,0,0,0,0,0,0,0,0,0,0,-0.079,3.338,9.448,0.554,0.120,0.220,-0.364,-10.745,-0.371,-0.610,-0.408,-0.432,happy
5.37,2957,2237,3760,3547,944,0,0,0,0,0,0,0,0,0,0,0,-0.208,3.838,9.067,0.706,0.152,0.328,13.099,1.537,12.227,-0.903,1.182,-0.548,happy
5.38,3008,2224,3766,3578,822,0,0,0,0,0,0,0,0,1,0,0,0.603,3.606,9.153,0.840,0.199,0.427,6.321,5.404,18.622,-0.660,1.311,-0.944,happy
5.39,3071,2201,3813,3607,663,0,0,0,0,0,0,0,0,0,0,0,0.017,4.377,8.698,1.011,0.188,0.481,-5.521,7.590,4.123,-2.496,-0.542,-1.440,happy
5.40,3120,2240,3760,3632,249,0,0,0,0,0,0,0,0,0,0,895,0.668,4.075,9.984,1.061,0.192,0.526,-11.444,2.737,10.005,-2.973,0.116,0.230,happy
5.41,3213,2255,3740,3637,0,0,0,0,0,0,0,0,0,0,0,2309,0.366,4.257,9.167,1.184,0.188,0.554,-9.550,-1.848,11.598,-2.936,0.367,0.948,happy
5.42,3285,2084,3679,3622,0,0,0,0,0,0,0,0,0,0,40,3020,0.733,4.997,9.481,1.240,0.373,0.592,-2.258,-0.644,10.163,-3.213,-0.973,0.672,happy
5.43,3367,2046,3515,3568,0,0,0,0,21,0,0,0,0,0,456,3351,0.577,3.965,9.301,1.443,0.542,0.643,2.255,-5.598,13.235,-3.185,-1.415,0.774,happy
5.44,3417,1882,3457,3447,0,0,0,0,0,0,0,0,0,12,821,3539,0.953,4.834,9.074,1.479,0.820,0.627,3.436,-6.314,13.266,-2.595,-1.607,0.499,happy
5.45,3489,1605,3379,3291,0,0,0,0,0,0,0,0,0,0,1353,3691,0.634,4.836,8.732,1.358,1.145,0.515,7.501,-5.102,10.891,-2.095,-1.515,0.327,happy
5.46,3513,1329,3271,3264,0,0,0,0,19,0,7,0,50,0,1995,3753,0.517,5.258,9.273,1.474,1.369,0.419,5.674,-7.609,12.914,-0.908,1.322,0.968,happy
5.47,3522,1163,3156,3203,0,0,0,0,0,483,48,55,165,0,2388,3785,0.546,5.059,8.825,1.615,1.710,0.422,3.666,-1.458,11.988,-0.275,0.483,-0.238,happy
5.48,3506,414,2751,3053,0,0,0,0,0,823,0,9,411,0,2642,3849,1.640,4.484,9.515,1.973,2.113,0.250,2.885,-3.357,9.345,-0.163,0.606,0.135,happy
5.49,3422,200,2457,2910,0,0,0,0,0,872,0,0,338,0,2711,3868,1.420,5.964,9.244,2.285,2.588,-0.047,2.490,-1.939,9.072,-0.021,0.647,0.273,happy
5.50,3311,0,2242,2739,0,0,0,0,0,887,23,0,423,0,2825,3893,0.618,4.456,8.727,3.043,2.420,-0.671,2.483,-2.155,9.215,-0.050,0.877,0.324,happy
5.51,3141,0,1839,2357,0,0,0,0,0,812,2,0,423,0,2808,3917,-1.135,4.448,8.152,3.920,2.458,-1.570,3.062,-2.260,8.440,0.007,1.056,0.369,happy
5.52,2881,0,799,1799,0,0,0,0,0,893,0,0,507,0,2856,3930,-2.966,4.611,10.652,5.023,2.241,-2.952,1.034,-2.413,10.558,-0.003,1.113,0.401,happy
5.53,2544,0,27,855,0,0,0,0,0,777,2,3,495,7,2872,3965,-0.026,10.436,10.728,5.093,3.324,-4.183,1.305,-2.840,10.793,-0.030,0.970,0.328,happy
5.54,1630,0,0,107,0,0,0,0,0,885,0,0,521,0,2916,3979,-1.135,9.483,10.436,4.377,3.454,-4.535,1.441,-2.533,10.089,-0.022,0.839,0.276,happy
5.55,409,0,0,0,0,0,0,0,0,958,5,0,558,0,2971,3998,-1.609,3.354,12.364,3.660,3.744,-4.381,1.398,-2.646,10.044,0.023,0.747,0.207,happy
5.56,0,0,0,0,0,0,0,0,0,997,2,0,571,0,3051,4043,-2.105,11.100,8.890,3.203,3.577,-4.429,0.548,-2.344,12.033,-0.065,0.599,0.214,happy
5.57,0,0,0,0,0,0,0,0,0,1144,2,0,567,0,3091,4027,-5.284,14.037,19.613,1.620,1.699,-2.485,1.372,-2.500,9.984,0.038,0.515,0.179,happy
5.58,0,0,0,0,0,0,0,0,0,1050,5,0,572,0,3117,4037,7.405,15.093,19.613,-0.925,-0.636,-0.535,0.917,-2.277,10.120,0.026,0.470,0.179,happy
5.59,0,0,0,0,0,0,0,0,0,1093,12,0,711,0,3178,4023,10.175,6.213,11.303,-1.876,1.445,-0.572,0.950,-2.272,9.946,0.016,0.434,0.195,happy
5.60,0,0,0,0,0,0,0,0,0,1207,509,7,645,0,3215,4041,4.494,4.075,5.715,-2.229,1.560,0.135,1.338,-2.284,9.843,-0.009,0.491,0.264,happy
5.61,0,0,0,0,0,0,0,0,0,1319,1530,147,611,2,3235,4040,0.723,2.083,4.958,-1.746,0.539,0.612,1.207,-2.667,9.598,-0.033,0.362,0.230,happy
5.62,0,0,0,0,0,0,0,0,1,1435,1579,434,619,0,3231,4029,1.820,3.010,6.826,-1.526,-0.588,0.974,0.939,-2.397,9.821,-0.041,0.297,0.198,happy
5.63,0,0,0,0,0,0,0,0,1,1463,1681,1034,727,2,3243,4025,2.995,3.986,8.389,-1.699,-0.669,1.143,0.869,-2.425,9.661,-0.074,0.247,0.168,happy
5.64,0,0,0,0,0,0,0,0,4,1527,1699,1227,683,3,3227,4003,1.190,4.245,9.201,-2.119,-0.570,1.293,0.687,-2.466,9.850,-0.091,0.165,0.146,happy
5.65,0,0,0,0,0,0,0,0,0,1531,1937,1367,735,9,3212,3995,-0.843,3.141,7.793,-2.395,-0.816,1.384,0.797,-2.354,9.883,-0.087,0.153,0.132,happy
5.66,0,0,0,0,0,0,0,0,1,1614,1952,1493,807,0,3207,3979,-1.774,2.550,6.974,-2.457,-1.169,1.369,0.883,-2.557,9.608,-0.119,0.135,0.132,happy
5.67,0,0,0,0,0,0,0,0,1,1686,2178,1671,825,0,3192,3949,-2.741,2.394,7.221,-2.499,-1.534,1.288,0.845,-2.416,9.754,-0.132,0.123,0.136,happy
5.68,0,0,0,0,0,0,0,0,0,1739,2244,1883,959,2,3175,3946,-3.141,2.847,8.265,-2.604,-1.752,1.171,0.864,-2.588,9.546,-0.116,0.115,0.126,happy
5.69,0,0,0,0,0,0,0,0,1,1805,2270,2055,1003,0,3155,3827,-3.682,3.230,8.871,-2.705,-2.011,1.070,0.919,-2.725,9.704,-0.124,0.111,0.109,happy
5.70,0,0,0,0,0,0,0,0,0,1835,2354,2167,1141,7,3113,3870,-3.543,3.689,8.981,-2.816,-2.174,0.981,0.699,-2.624,9.881,-0.126,0.093,0.112,happy
5.71,0,0,0,0,0,0,0,0,4,1913,2428,2463,1135,3,3116,3923,-3.759,4.238,9.510,-2.911,-2.172,0.853,0.558,-2.253,10.013,-0.114,0.075,0.095,happy
5.72,0,0,0,0,0,0,0,0,9,1951,2643,2617,1368,3,3099,3795,-4.013,4.834,9.926,-3.024,-2.266,0.782,0.996,-3.175,9.541,-0.066,0.073,0.059,happy
5.73,0,0,0,0,0,0,0,0,87,1993,2474,2761,1544,25,3041,3741,-2.945,5.341,9.902,-3.054,-2.345,0.803,0.646,-2.468,9.819,-0.089,0.046,0.049,happy
5.74,0,0,0,0,0,0,0,0,99,2057,2648,2807,1641,20,2983,3679,-0.644,5.849,9.787,-3.006,-2.287,1.261,1.027,-2.844,9.541,-0.072,0.060,0.056,happy
5.75,0,0,0,0,0,0,0,0,279,2123,2692,3017,1831,47,2713,3513,-0.486,6.084,10.036,-2.850,-1.963,1.914,0.670,-2.607,9.898,-0.092,0.027,0.030,happy
5.76,0,0,0,0,0,0,0,0,639,2215,2753,3179,1973,41,2373,3243,-1.075,6.881,11.930,-2.602,-1.807,2.443,0.730,-2.483,9.742,-0.085,0.007,0.023,happy
5.77,0,0,0,0,0,0,0,0,725,2265,2764,3191,2026,29,2175,3060,-1.932,8.085,13.616,-2.765,-1.429,2.627,0.723,-2.710,9.697,-0.079,0.006,0.016,happy
5.78,0,0,0,0,0,0,0,0,1229,2293,2812,3317,2131,47,2025,2553,-4.032,8.174,13.297,-2.779,-1.180,2.472,0.656,-2.689,9.603,-0.104,-0.001,0.017,happy
5.79,0,0,0,0,0,0,0,0,1755,2297,2851,3428,2105,47,1909,2258,-6.041,7.980,12.902,-2.604,-1.109,2.014,0.678,-2.686,9.776,-0.133,-0.002,0.015,happy
5.80,0,0,0,0,0,0,0,0,1881,2311,2904,3467,2077,51,1843,2045,-4.793,11.351,15.241,-2.346,-1.165,1.477,0.766,-2.868,9.646,-0.116,-0.006,0.008,happy
5.81,0,0,0,0,0,0,0,0,2139,2281,2963,3568,1949,46,1361,967,0.077,14.396,11.416,-2.689,-0.713,1.452,0.757,-2.792,9.814,-0.134,-0.019,0.017,happy
5.82,0,0,0,0,0,0,0,0,2509,2295,3094,3629,2006,47,723,331,-4.183,15.024,1.681,-2.266,-0.138,1.485,0.697,-2.674,9.598,-0.165,-0.023,0.011,happy
5.83,0,0,0,0,0,0,0,0,2619,2282,3002,3690,1907,29,251,109,-7.171,16.501,-3.977,-1.079,0.062,1.331,0.831,-2.373,9.728,-0.191,-0.054,0.030,happy
5.84,0,0,0,0,0,0,0,0,2830,2421,3043,3773,1277,27,159,93,-9.538,15.759,-5.892,-0.046,1.316,0.552,0.737,-2.665,9.347,-0.339,-0.003,0.057,happy
5.85,0,0,0,0,0,0,0,0,3059,2404,3063,3863,553,11,29,125,-0.045,3.426,0.596,1.302,2.852,0.018,0.443,-2.322,9.258,-0.800,0.038,-0.029,happy
5.86,0,0,0,0,0,0,0,1126,3133,2419,3068,3898,529,8,23,99,-5.890,-10.515,19.613,0.685,3.038,-0.026,1.025,-3.333,9.606,-0.719,-0.087,-0.176,happy
5.87,0,0,0,0,0,0,0,2942,3327,2415,3242,3879,255,3,8,92,-0.350,-2.861,1.295,4.997,-0.233,0.244,1.039,-2.796,9.318,-0.786,-0.167,-0.200,happy
5.88,0,0,0,0,0,0,6,3382,3483,2473,3104,3979,117,0,0,39,-2.725,11.806,14.858,3.368,-0.282,0.048,1.614,-2.763,9.294,-0.989,-0.373,-0.351,happy
5.89,0,0,0,0,0,0,731,3503,3576,2441,3104,3978,29,0,0,5,0.958,4.901,10.436,3.105,-0.687,0.046,0.907,-2.607,10.226,-1.513,-0.149,-0.486,happy
5.90,0,0,0,0,270,0,1699,3431,3611,2309,3094,3960,0,0,0,0,8.104,19.613,19.613,3.323,-0.352,-0.431,1.621,-2.725,9.210,-2.053,0.076,-0.551,happy
5.91,369,69,0,0,656,0,2349,3430,3565,1943,3109,3893,3,0,0,0,-1.044,8.437,11.322,0.556,-0.096,-0.134,1.788,-3.405,9.357,-2.478,0.723,-0.651,happy
5.92,747,592,1135,207,1163,0,2696,3434,3301,1196,3068,3803,0,0,0,0,-0.168,5.657,9.840,0.186,-0.106,-0.056,1.468,-3.412,8.887,-3.157,1.334,-0.799,happy
5.93,934,1101,1915,722,1434,0,2896,3583,3054,893,3165,3735,0,0,0,0,0.316,3.725,9.457,0.068,0.053,-0.058,0.862,-3.383,9.148,-3.711,1.516,-0.559,happy
5.94,970,1296,2320,1089,1728,0,3024,3647,2187,610,2457,2847,0,0,0,0,-0.031,3.826,9.481,0.032,0.055,-0.046,0.910,-4.875,11.772,-5.086,0.273,1.242,happy
5.95,1110,1477,2557,1421,2030,61,3135,3642,677,105,0,1318,0,0,0,0,0.012,3.713,9.486,0.108,0.052,0.002,-0.026,-10.288,17.753,-5.633,-1.244,3.286,happy
5.96,1228,1702,2787,1765,2150,17,3197,3680,165,0,2,159,0,0,0,0,0.196,3.610,9.232,0.128,0.027,-0.003,-0.718,-9.146,13.278,-6.650,-1.771,3.478,happy
5.97,1370,1902,2957,2062,2428,137,3269,3674,0,0,0,0,0,0,0,0,0.196,3.637,9.412,0.112,0.040,-0.042,1.374,-8.361,9.912,-5.449,-1.172,3.178,happy
5.98,1491,1994,3088,2274,2672,265,3316,3638,0,0,0,0,0,0,0,0,0.177,3.649,9.476,0.088,0.052,-0.039,0.175,-14.387,19.613,-0.350,0.731,2.878,happy
5.99,1637,2160,3187,2426,2825,415,3367,3640,0,0,0,0,0,0,0,0,0.017,3.601,9.345,0.112,-0.002,-0.015,6.249,-2.164,19.613,0.586,-1.833,1.622,happy
6.00,1744,2282,3267,2559,2896,511,3346,3569,0,0,0,3,0,8,0,0,0.194,3.819,9.567,0.099,0.010,-0.009,7.992,-0.493,8.748,2.070,0.046,0.328,happy
6.01,1857,2352,3343,2653,2971,389,3285,3445,0,0,0,0,0,0,0,0,0.136,3.570,9.268,0.104,0.009,-0.011,3.728,-0.385,5.461,2.388,0.421,-0.652,happy
6.02,1995,2489,3395,2764,3051,163,3215,3371,0,0,33,0,0,0,0,0,0.165,3.577,9.282,0.111,0.009,-0.010,2.282,-0.898,7.877,2.562,-0.006,-0.861,happy
6.03,2084,2559,3451,2848,3108,0,3111,3237,23,0,12,0,0,0,0,0,0.170,3.644,9.299,0.120,0.015,-0.008,2.751,-3.311,9.050,3.422,-0.489,-1.236,happy
6.04,2182,2637,3503,2939,3164,0,2995,3053,0,17,17,0,0,0,0,0,0.199,3.711,9.385,0.110,0.026,-0.012,1.683,-4.456,8.799,3.773,-0.178,-1.199,happy
6.05,2290,2736,3581,3037,3203,0,2831,2896,0,0,0,0,0,0,0,0,0.199,3.689,9.273,0.106,0.035,-0.025,0.757,-5.657,10.283,3.964,-0.436,-1.162,happy
6.06,2354,2787,3600,3065,3202,0,2605,2665,0,0,0,0,0,0,0,0,0.108,3.701,9.299,0.097,0.055,-0.018,1.563,-6.426,8.961,4.058,-0.886,-1.215,happy
6.07,2452,2815,3634,3133,3184,0,2293,2266,0,0,0,0,0,0,0,0,-0.026,3.802,9.232,0.096,0.057,-0.020,2.753,-6.986,10.736,3.865,-0.801,-1.373,happy
6.08,2503,2917,3670,3177,3165,0,2076,1845,0,9,0,0,0,0,0,6,0.134,3.747,9.299,0.094,0.052,-0.029,3.093,-7.333,11.885,3.877,-0.898,-1.581,happy
6.09,2544,2974,3703,3219,3133,0,1899,1246,0,0,2,0,0,0,0,0,0.113,3.685,9.323,0.105,0.073,-0.027,2.253,-6.742,11.083,3.787,-0.996,-1.852,happy
6.10,2614,3014,3728,3224,2995,0,1488,298,0,0,0,0,0,0,0,0,0.019,3.778,9.306,0.103,0.080,-0.022,0.429,-6.376,12.292,3.325,-1.303,-1.614,happy
6.11,2626,3050,3750,3313,2858,0,1291,0,0,0,0,0,0,0,0,0,0.062,4.245,9.091,0.073,0.080,-0.021,-0.026,-7.192,14.676,3.259,-1.571,-1.452,happy
6.12,2650,3088,3766,3343,2796,0,1067,0,0,0,0,0,0,0,0,0,0.148,3.711,9.201,0.126,0.089,-0.013,-0.639,-7.956,16.283,3.267,-1.741,-1.266,happy
6.13,2721,3125,3776,3371,2731,0,847,0,13,0,0,0,0,0,0,0,0.136,3.728,9.297,0.147,0.092,-0.011,-1.331,-8.511,16.063,3.211,-1.930,-1.068,happy
6.14,2737,3159,3792,3392,2648,0,692,0,0,0,0,0,0,0,29,0,-0.026,3.812,9.282,0.156,0.118,-0.013,-1.803,-9.440,15.615,3.087,-2.197,-0.837,happy
6.15,2801,3203,3819,3440,2559,0,317,0,0,0,0,0,0,1,0,0,0.026,3.773,9.273,0.175,0.123,-0.013,0.536,-15.131,15.933,3.329,-1.665,-0.480,happy
6.16,2833,3222,3833,3465,2481,0,168,0,0,0,23,0,0,0,0,13,0.218,3.778,9.333,0.231,0.163,0.010,0.060,-14.554,9.821,3.237,-1.057,-0.549,happy
6.17,2855,3257,3843,3495,2304,0,119,0,13,0,0,0,0,0,6,0,0.175,3.941,9.486,0.303,0.177,0.037,-0.994,-15.388,5.351,2.554,-0.850,-0.756,happy
6.18,2890,3254,3897,3553,1969,0,0,0,0,0,0,0,0,0,0,11,0.062,4.104,9.108,0.352,0.157,0.029,-0.402,-15.974,2.349,1.783,-0.736,-1.078,happy
6.19,2961,3290,3873,3550,1601,0,0,0,0,0,10,0,0,0,0,0,-0.182,2.691,9.522,0.486,0.162,0.126,-4.336,-17.523,1.034,1.163,-0.628,-1.212,happy
6.20,3011,3307,3859,3583,1276,0,0,0,0,0,0,0,0,0,0,0,0.378,4.044,9.256,0.537,0.147,0.148,-6.172,-18.170,-1.367,0.409,-0.620,-1.191,happy
6.21,3088,3308,3901,3606,1143,0,0,0,0,0,120,0,0,0,0,0,0.017,3.761,8.868,0.656,0.152,0.194,-6.043,-16.731,-2.837,-0.416,-0.171,-0.857,happy
6.22,3152,3303,3908,3600,1103,0,0,0,0,0,0,0,0,13,0,0,-0.148,3.761,9.129,0.652,0.139,0.238,-7.025,-16.702,0.848,-0.971,0.407,-0.322,happy
6.23,3223,3219,3919,3643,980,0,0,0,0,0,0,6,0,25,0,0,0.232,4.068,9.462,0.695,0.084,0.272,9.862,-8.629,-1.750,-0.515,1.195,-0.479,happy
6.24,3312,3088,3921,3657,987,0,0,0,0,0,7,0,24,0,7,0,0.340,3.836,9.194,0.913,0.040,0.351,5.195,-1.377,16.130,-0.501,3.137,0.235,happy
6.25,3391,2814,3922,3648,727,0,0,0,0,0,0,0,0,0,0,0,0.445,3.668,9.165,1.197,0.024,0.406,-0.445,9.148,9.948,-2.644,0.778,-0.564,happy
6.26,3482,2667,3926,3680,477,0,0,0,0,0,0,0,0,0,5,712,0.955,4.056,9.682,1.310,0.252,0.504,-1.949,3.874,4.899,-3.404,0.382,0.247,happy
6.27,3557,2549,3925,3689,416,0,0,0,0,0,0,31,0,0,0,1699,0.333,3.979,8.959,1.641,0.293,0.537,-3.644,-4.250,12.687,-2.805,0.828,1.005,happy
6.28,3619,2458,3913,3678,208,0,0,0,0,0,135,0,0,0,277,2637,0.328,4.312,8.677,1.785,0.466,0.555,-2.330,-4.046,14.078,-2.905,0.366,0.856,happy
6.29,3696,2329,3851,3632,0,0,0,0,0,0,0,0,0,0,1018,3507,0.024,4.362,8.648,2.254,0.829,0.709,-0.742,-2.660,10.525,-3.458,-1.094,0.776,happy
6.30,3719,2330,3763,3583,0,0,0,0,0,0,10,0,0,0,1428,3643,0.685,5.681,9.673,2.280,1.111,0.675,19.613,1.166,19.613,-2.999,-2.380,0.839,happy
6.31,3712,2187,3658,3488,0,0,0,0,0,0,0,35,0,0,2117,3743,0.084,4.647,8.291,2.810,1.234,0.717,-2.892,-16.949,13.748,-0.561,0.378,-0.135,happy
6.32,3571,2164,3505,2910,0,0,0,0,0,0,0,0,91,0,2319,3784,0.115,5.428,7.994,3.456,1.101,0.681,-1.441,1.070,14.480,-0.014,1.702,0.465,happy
6.33,3382,2224,3442,2416,0,0,0,0,0,0,0,0,63,0,2477,3800,0.177,5.054,11.025,4.098,0.498,0.400,0.402,-4.295,14.619,-0.201,0.862,0.233,happy
6.34,3045,1875,3185,1872,0,0,0,0,1,0,2,0,338,0,2695,3828,0.251,6.323,12.388,5.111,-0.499,-0.033,2.057,-2.222,10.070,0.079,0.747,0.172,happy
6.35,1392,321,1981,717,0,0,0,0,0,27,23,0,349,3,2745,3881,-3.050,10.288,14.643,6.318,-1.694,-1.714,2.035,-2.291,9.373,0.028,0.587,0.185,happy
6.36,242,0,0,0,0,0,0,0,0,190,5,0,376,0,2975,3937,-2.938,13.063,15.895,7.881,-2.095,-2.326,1.350,-2.512,10.216,-0.008,0.354,0.213,happy
6.37,0,0,0,0,0,0,0,0,1,375,767,71,658,0,2969,3955,-0.986,11.835,12.953,6.621,-1.878,-2.057,1.180,-2.658,10.149,0.042,0.279,0.117,happy
6.38,0,0,0,0,0,0,0,0,0,534,1325,285,855,1,3103,3978,5.890,6.699,18.466,2.425,-0.562,-3.035,1.496,-2.602,9.981,0.064,0.196,0.050,happy
6.39,0,0,0,0,0,0,0,0,1,686,1865,396,1372,1,3219,3985,-4.132,13.151,19.613,0.581,-0.253,-2.247,1.365,-2.284,9.747,0.048,0.149,0.034,happy
6.40,0,0,0,0,0,0,0,0,0,909,2262,942,1663,2,3279,3989,3.132,-0.093,17.607,-0.760,-0.890,-1.583,1.429,-2.298,9.929,0.028,0.126,0.051,happy
6.41,0,0,0,0,0,0,0,0,3,1043,2426,1045,1886,1,3355,3981,4.022,1.650,10.465,-1.279,-0.464,-1.614,1.401,-2.215,9.871,0.008,0.130,0.074,happy
6.42,0,0,0,0,0,0,0,0,0,1127,2436,1151,2036,2,3421,3956,3.496,0.826,8.387,-1.809,-0.429,-1.338,1.262,-2.263,9.644,0.006,0.135,0.086,happy
6.43,0,0,0,0,0,0,0,0,0,1210,2439,1287,2188,2,3461,3938,3.053,0.381,6.953,-2.092,-0.372,-1.195,1.070,-2.236,9.720,-0.013,0.149,0.101,happy
6.44,0,0,0,0,0,0,0,0,1,1203,2444,1513,2301,2,3466,3892,2.658,1.140,7.489,-2.397,-0.552,-0.949,1.049,-2.157,9.948,-0.036,0.157,0.115,happy
6.45,0,0,0,0,0,0,0,0,1,1316,2549,1695,2409,3,3487,3837,2.562,2.567,8.310,-2.724,-0.686,-0.819,1.288,-2.392,9.725,-0.035,0.179,0.113,happy
6.46,0,0,0,0,0,0,0,0,2,1401,2608,1813,2531,6,3465,3771,2.629,4.113,8.784,-3.237,-0.780,-0.648,1.077,-2.267,9.677,-0.041,0.136,0.110,happy
6.47,0,0,0,0,0,0,0,0,4,1418,2600,1941,2649,1,3449,3655,2.559,4.281,7.611,-3.607,-0.802,-0.479,0.970,-2.198,9.730,-0.044,0.128,0.111,happy
6.48,0,0,0,0,0,0,0,0,2,1461,2615,2019,2719,23,3433,3507,2.531,4.707,6.438,-3.748,-0.809,-0.306,1.034,-2.234,9.823,-0.041,0.124,0.119,happy
6.49,0,0,0,0,0,0,0,0,2,1509,2669,2075,2823,2,3420,3387,2.150,6.134,7.743,-3.784,-0.875,-0.135,1.176,-2.454,9.725,-0.026,0.111,0.110,happy
6.50,0,0,0,0,0,0,0,0,1,1611,2605,2327,2899,3,3403,3391,2.229,7.882,8.796,-3.940,-0.989,0.103,1.279,-2.689,9.572,-0.068,0.111,0.124,happy
6.51,0,0,0,0,0,0,0,0,2,1767,2689,2383,2951,3,3381,3414,2.464,8.516,8.308,-4.078,-1.014,0.419,1.264,-2.564,9.708,-0.069,0.092,0.126,happy
6.52,0,0,0,0,0,0,0,0,2,1879,2700,2537,2997,2,3365,3401,2.258,8.976,8.045,-4.040,-1.009,0.788,1.044,-2.428,9.754,-0.086,0.073,0.122,happy
6.53,0,0,0,0,0,0,0,0,2,1963,2715,2650,3055,2,3336,3388,2.423,9.773,8.284,-3.943,-0.996,1.157,0.989,-2.253,9.850,-0.104,0.079,0.121,happy
6.54,0,0,0,0,0,0,0,0,0,1992,2730,2684,3119,3,3295,3391,2.708,10.137,9.129,-3.813,-0.918,1.545,1.053,-2.593,9.902,-0.090,0.095,0.137,happy
6.55,0,0,0,0,0,0,0,0,1,2059,2741,2727,3165,3,3171,3357,3.189,10.602,9.747,-3.810,-0.739,1.952,0.979,-2.504,9.785,-0.111,0.091,0.120,happy
6.56,0,0,0,0,0,0,0,0,1,2065,2802,2789,3210,1,3015,3279,2.801,10.259,9.893,-3.799,-0.513,2.243,0.781,-2.112,10.022,-0.087,0.074,0.104,happy
6.57,0,0,0,0,0,0,0,0,1,2095,2766,2861,3245,2,2861,3210,2.274,10.147,9.840,-3.722,-0.370,2.427,0.879,-2.351,9.886,-0.079,0.065,0.086,happy
6.58,0,0,0,0,0,0,0,0,0,2137,2822,2957,3283,4,2891,3128,1.604,10.068,10.274,-3.598,-0.327,2.495,0.958,-2.595,9.843,-0.070,0.054,0.106,happy
6.59,0,0,0,0,0,0,0,0,0,2223,2846,3021,3311,3,2873,3063,0.936,9.859,10.769,-3.432,-0.495,2.531,0.950,-2.461,9.814,-0.097,0.059,0.087,happy
6.60,0,0,0,0,0,0,0,0,0,2315,2874,3016,3353,1,2875,2973,0.390,10.130,12.184,-3.278,-0.778,2.509,0.828,-2.713,10.075,-0.081,0.040,0.074,happy
6.61,0,0,0,0,0,0,0,0,23,2365,2851,3055,3386,5,2791,2837,-0.541,10.659,13.635,-3.222,-0.972,2.266,0.883,-2.452,9.804,-0.127,0.046,0.056,happy
6.62,0,0,0,0,0,0,0,0,103,2423,2930,3193,3443,26,2747,2641,-3.273,10.139,13.077,-3.083,-0.974,1.749,0.857,-2.437,9.735,-0.132,0.016,0.034,happy
6.63,0,0,0,0,0,0,0,0,212,2573,2981,3277,3483,41,2685,2215,-4.966,10.343,12.251,-2.636,-1.306,1.139,0.804,-2.638,9.847,-0.145,0.041,0.027,happy
6.64,0,0,0,0,0,0,0,0,265,2616,3002,3319,3491,43,2635,1919,-5.722,11.741,8.554,-1.950,-1.461,0.435,1.001,-2.641,9.682,-0.138,0.012,0.021,happy
6.65,0,0,0,0,0,0,0,0,501,2651,3022,3423,3512,51,2519,1101,-5.329,15.117,4.717,-1.595,-1.641,-0.473,0.903,-2.595,9.747,-0.144,0.026,0.012,happy
6.66,0,0,0,0,0,0,0,0,871,2813,3058,3485,3463,69,2349,415,-4.980,15.316,-2.454,-0.927,-1.915,-0.851,0.946,-2.720,9.625,-0.180,0.035,0.004,happy
6.67,0,0,0,0,0,0,0,0,1064,2831,3050,3530,3385,0,2059,251,-1.245,15.263,-4.733,0.299,-0.516,-0.822,0.898,-2.753,9.687,-0.186,0.046,-0.003,happy
6.68,0,0,0,0,0,0,0,0,1461,2969,3078,3611,3059,57,1579,187,-1.796,14.147,-0.529,1.394,0.261,-0.619,1.080,-2.830,9.618,-0.087,0.039,0.009,happy
6.69,0,0,0,0,0,0,0,0,1619,3048,3017,3669,2779,29,423,143,5.437,0.510,19.324,0.624,4.404,0.016,0.898,-2.298,9.682,-0.063,-0.059,0.089,happy
6.70,0,0,0,0,0,0,0,935,1753,3103,3109,3674,2511,21,248,62,-1.951,-8.100,9.376,2.316,1.232,1.897,0.737,-1.597,9.742,-0.606,0.031,-0.127,happy
6.71,0,0,0,0,0,0,0,2747,1852,3160,3263,3678,2037,21,176,33,-17.619,0.539,11.224,3.342,0.765,-0.112,1.080,-2.854,9.483,-0.654,0.061,-0.065,happy
6.72,0,0,0,0,0,0,112,3309,2215,3309,3101,3645,1061,3,148,0,-2.325,3.311,11.310,2.962,0.729,-0.746,1.161,-2.715,9.313,-0.575,-0.026,-0.117,happy
6.73,221,163,215,209,207,222,1114,3443,2424,3260,3130,3623,533,0,71,0,1.338,6.325,10.920,2.999,0.204,-0.421,1.116,-2.519,9.273,-0.927,-0.265,-0.206,happy
6.74,0,0,0,0,364,0,1846,3420,2459,3191,3135,3605,304,2,105,0,-11.636,4.417,19.613,0.486,-0.808,0.050,1.487,-2.502,9.577,-1.127,-0.330,-0.215,happy
6.75,418,373,197,0,816,0,2194,3470,2409,2941,3150,3511,316,2,55,0,0.438,4.326,7.798,0.546,0.444,-0.301,1.082,-2.090,9.878,-2.449,0.121,-0.324,happy
6.76,803,933,1625,229,1045,0,2400,3467,1947,2309,3155,3293,271,0,0,0,0.029,4.537,9.912,0.503,0.153,-0.154,2.476,-2.859,10.264,-3.673,0.088,-0.367,happy
6.77,1031,1328,2256,944,1365,0,2723,3619,1637,1701,3137,3021,381,0,0,0,-0.108,4.362,9.730,0.151,0.138,-0.122,0.551,-1.113,9.835,-4.504,0.150,-0.401,happy
6.78,1187,1569,2541,1281,1584,0,2922,3696,933,555,2247,1389,155,0,0,0,0.381,3.704,9.527,0.064,0.104,-0.053,0.797,-1.762,12.723,-5.816,0.001,0.085,happy
6.79,1308,1722,2752,1740,1985,87,3022,3696,427,0,10,95,0,0,4,0,0.405,3.474,9.541,0.102,0.110,0.010,-0.012,-8.260,15.876,-7.678,-2.150,1.412,happy
6.80,1472,1936,2913,1989,2256,176,3130,3746,35,37,7,0,0,0,0,0,0.235,3.838,9.335,0.067,0.035,0.014,1.264,-11.267,12.996,-7.759,-2.385,1.805,happy
6.81,1535,2086,3009,2192,2487,419,3217,3747,0,0,0,0,0,0,0,0,0.345,3.694,9.251,0.048,0.048,-0.014,4.436,-8.466,13.211,-4.781,-2.451,2.194,happy
6.82,1617,2175,3114,2331,2659,543,3275,3713,0,0,0,0,0,0,0,0,0.177,3.723,9.359,0.042,0.044,-0.021,1.506,-18.993,19.613,1.571,1.072,2.274,happy
6.83,1712,2271,3235,2433,2769,574,3312,3717,0,0,120,0,0,0,0,0,0.244,3.663,9.354,0.049,0.030,-0.008,3.486,3.603,17.004,2.150,-0.121,1.420,happy
6.84,1795,2358,3235,2532,2835,338,3295,3665,0,0,76,0,0,0,0,0,0.213,3.668,9.383,0.063,0.026,-0.012,1.130,1.410,8.384,3.165,1.084,1.822,happy
6.85,1872,2416,3312,2623,2935,301,3248,3574,0,0,5,0,0,0,0,0,0.225,3.716,9.337,0.076,0.014,-0.013,3.254,-0.694,6.730,3.578,0.447,1.637,happy
6.86,1937,2548,3349,2687,2999,223,3198,3525,0,0,58,0,0,0,0,0,0.247,3.627,9.268,0.081,0.017,-0.014,4.887,-1.293,6.002,3.723,0.322,1.369,happy
6.87,2059,2627,3407,2757,3062,112,3125,3457,0,0,0,0,0,0,0,0,0.201,3.651,9.239,0.088,0.014,-0.023,5.502,-3.043,6.747,3.896,0.140,0.531,happy
6.88,2161,2669,3455,2815,3120,201,3061,3344,0,0,0,0,0,0,0,0,0.299,3.701,9.227,0.093,0.019,-0.023,5.114,-4.458,7.336,3.888,-0.474,-0.326,happy
6.89,2240,2761,3498,2926,3158,152,2970,3289,0,0,0,0,0,0,0,13,0.287,3.721,9.282,0.092,0.038,-0.023,5.176,-5.334,8.729,3.828,-0.756,-0.770,happy
6.90,2330,2819,3541,2998,3184,0,2810,3165,0,0,0,0,0,0,0,0,0.151,3.809,9.287,0.091,0.051,-0.014,4.918,-6.835,10.338,3.873,-0.898,-1.708,happy
6.91,2437,2863,3581,3066,3199,0,2539,2953,0,0,0,0,0,0,0,0,0.254,3.749,9.304,0.086,0.056,-0.012,3.182,-6.455,10.331,3.715,-0.721,-2.326,happy
6.92,2529,2919,3619,3125,3183,0,2283,2757,0,0,0,0,0,0,0,0,0.244,3.740,9.325,0.083,0.064,-0.012,2.140,-6.141,11.114,3.664,-0.661,-2.408,happy
6.93,2559,2962,3655,3178,3152,0,2073,2363,0,0,0,0,0,0,0,0,0.165,3.833,9.290,0.090,0.070,-0.010,-1.037,-5.540,13.283,3.496,-0.988,-1.907,happy
6.94,2631,3008,3694,3217,3138,0,1851,1855,0,0,63,0,0,0,0,0,0.350,3.800,9.218,0.104,0.070,-0.002,-0.900,-6.531,15.692,3.659,-1.371,-1.082,happy
6.95,2691,3058,3713,3294,3081,0,1522,1296,0,0,0,0,0,0,0,0,0.294,3.795,9.270,0.131,0.080,0.005,-0.692,-6.598,15.043,3.715,-1.259,-0.725,happy
6.96,2761,3120,3751,3342,2977,0,1223,195,0,0,0,0,43,0,0,0,0.172,3.869,9.280,0.138,0.093,0.009,-2.097,-9.177,15.938,3.407,-1.883,-0.008,happy
6.97,2804,3197,3774,3385,2795,0,978,0,0,0,0,0,0,0,0,0,0.089,3.919,9.120,0.156,0.106,0.013,0.986,-13.374,12.048,2.700,-2.847,0.288,happy
6.98,2864,3233,3793,3415,2762,0,742,0,0,0,0,0,0,0,0,0,0.208,3.864,9.249,0.168,0.114,0.019,3.239,-15.325,10.422,2.448,-2.556,0.087,happy
6.99,2915,3247,3817,3403,2633,0,414,0,0,0,0,0,0,0,0,0,0.189,3.802,9.421,0.207,0.140,0.031,3.807,-16.826,9.591,2.165,-2.036,-0.469,happy
7.00,2925,3263,3835,3483,2609,0,188,0,0,0,0,0,0,0,0,0,0.148,3.934,9.244,0.240,0.164,0.034,4.185,-17.423,4.800,1.718,-1.180,-1.266,happy
7.01,2965,3309,3858,3521,2381,0,125,0,0,0,0,2,0,0,0,0,0.177,3.907,9.407,0.300,0.195,0.058,-0.338,-17.195,-0.153,1.040,-0.381,-1.720,happy
7.02,3027,3339,3875,3541,2240,0,0,0,0,27,0,13,0,0,0,0,0.213,3.862,9.294,0.345,0.192,0.067,-4.784,-18.701,-2.416,0.133,-0.386,-1.641,happy
7.03,3089,3375,3889,3577,1741,0,0,0,0,0,0,0,0,0,0,0,0.318,4.104,9.153,0.357,0.207,0.071,-5.928,-18.797,-3.661,-0.725,-0.666,-1.283,happy
7.04,3125,3403,3903,3569,1521,0,0,0,0,0,0,0,0,0,0,0,0.045,4.073,9.057,0.546,0.193,0.151,-0.275,-19.613,-7.925,-2.906,-0.295,-1.650,happy
7.05,3169,3437,3920,3598,1354,0,0,0,0,0,0,0,0,0,0,0,0.187,3.687,9.091,0.634,0.192,0.201,5.916,-1.987,8.926,-1.889,2.625,-0.483,happy
7.06,3207,3469,3937,3600,1109,0,0,0,0,0,0,0,0,42,288,0,0.464,3.824,9.179,0.746,0.138,0.268,0.223,6.742,19.063,-1.186,2.208,-0.986,happy
7.07,3280,3418,3939,3654,995,0,0,0,0,0,0,0,0,0,244,376,0.333,4.013,8.715,0.910,0.092,0.352,-6.859,9.701,8.399,-3.345,0.511,-1.120,happy
7.08,3361,3335,3941,3667,771,0,0,0,0,0,0,0,0,0,0,1305,0.543,3.359,9.591,1.078,0.086,0.428,-14.468,3.259,8.205,-4.096,0.614,0.839,happy
7.09,3438,3179,3952,3648,464,0,0,0,0,0,28,0,0,0,42,2267,0.352,4.015,9.108,1.358,0.087,0.519,-8.899,-4.903,14.368,-4.122,0.200,1.538,happy
7.10,3504,2632,3939,3664,310,0,0,0,0,0,0,0,0,0,333,3027,-0.141,3.579,9.141,1.613,0.346,0.580,-0.017,-6.424,12.230,-3.698,-0.151,1.244,happy
7.11,3573,2496,3913,3635,159,0,0,0,0,0,0,0,0,8,815,3356,0.627,4.518,9.230,2.110,0.582,0.622,2.243,-3.764,8.648,-3.392,-0.233,1.215,happy
7.12,3600,2400,3873,3611,0,0,0,0,0,0,0,0,0,0,1261,3495,0.153,4.539,9.045,2.356,0.727,0.645,-13.388,-19.613,19.613,-0.501,6.611,3.854,happy
7.13,3607,2256,3823,3564,0,0,0,0,1,0,0,0,0,0,1670,3592,0.385,4.640,8.566,2.699,0.844,0.694,11.849,-3.237,17.607,1.098,2.080,-0.124,happy
7.14,3583,2251,3761,3497,0,0,0,0,0,0,2,0,7,0,1919,3638,1.626,5.768,9.345,2.927,1.131,0.679,3.967,-8.590,14.415,0.257,2.026,0.794,happy
7.15,3498,2064,3697,3307,0,0,0,0,0,149,28,0,29,0,2087,3731,0.330,6.177,8.128,3.195,1.106,0.599,1.061,-4.128,9.634,-0.023,0.811,0.327,happy
7.16,3327,2077,3583,2454,0,0,0,0,5,298,2,0,133,0,2233,3799,-0.182,5.473,11.159,3.561,0.791,0.450,1.010,-3.474,10.915,0.079,0.405,0.097,happy
7.17,2039,1520,3019,1792,0,0,0,0,0,671,89,0,333,0,2645,3832,-0.333,7.762,13.314,4.911,-0.833,-0.216,1.820,-2.667,9.325,0.031,0.360,0.171,happy
7.18,947,231,1584,312,0,0,0,0,0,1147,7,24,498,0,2791,3796,-2.227,13.855,12.210,6.724,-1.129,-1.213,1.092,-2.382,9.855,-0.051,0.265,0.199,happy
7.19,142,0,0,0,0,0,0,0,0,1301,58,406,535,0,2841,3912,-2.875,11.327,14.770,7.599,-0.771,-2.170,0.824,-2.835,10.144,-0.025,0.207,0.174,happy
7.20,0,0,0,0,0,0,0,0,1,1405,1717,1084,805,3,2886,3939,-2.112,10.388,17.372,5.891,-1.143,-2.289,0.692,-2.605,10.149,0.052,0.205,0.119,happy
7.21,0,0,0,0,0,0,0,0,1,1433,1937,1341,1141,41,3000,3948,0.759,5.744,19.613,1.951,-0.512,-3.455,0.986,-2.648,9.843,0.017,0.167,0.095,happy
7.22,0,0,0,0,0,0,0,0,1,1497,1942,1517,1431,3,3108,3999,-5.708,11.384,17.320,0.519,-1.004,-2.564,0.962,-2.351,9.799,0.017,0.165,0.088,happy
7.23,0,0,0,0,0,0,0,0,3,1609,2106,1695,1595,2,3177,3957,0.184,0.105,16.455,-0.548,-2.169,-2.064,0.831,-2.224,9.656,0.018,0.162,0.091,happy
7.24,0,0,0,0,0,0,0,0,0,1734,2326,1931,1770,39,3145,3927,1.894,2.279,9.689,-0.909,-1.855,-2.325,0.917,-2.581,9.574,0.006,0.110,0.034,happy
7.25,0,0,0,0,0,0,0,0,5,1816,2439,2129,1849,1,3275,3948,2.375,0.871,8.042,-1.572,-1.791,-2.122,0.622,-1.487,9.804,-0.065,0.108,0.080,happy
7.26,0,0,0,0,0,0,0,0,2,1876,2551,2327,1957,3,3300,3929,2.581,1.379,8.416,-1.934,-1.620,-1.967,0.797,-2.787,9.807,-0.084,0.123,0.091,happy
7.27,0,0,0,0,0,0,0,0,1,1981,2592,2456,2027,2,3309,3903,2.638,2.016,8.380,-2.431,-1.562,-1.610,0.960,-2.602,9.706,-0.079,0.100,0.086,happy
7.28,0,0,0,0,0,0,0,0,2,1995,2643,2602,2155,2,3293,3840,2.404,2.239,8.021,-2.765,-1.577,-1.274,0.529,-2.078,10.032,-0.025,0.048,0.054,happy
7.29,0,0,0,0,0,0,0,0,1,2091,2610,2693,2199,2,3251,3837,1.944,2.806,7.843,-3.123,-1.604,-0.930,0.548,-2.215,10.075,-0.084,0.050,0.062,happy
7.30,0,0,0,0,0,0,0,0,1,2065,2602,2775,2221,2,3223,3719,1.262,3.213,7.250,-3.298,-1.693,-0.636,0.857,-2.653,9.708,-0.077,0.044,0.048,happy
7.31,0,0,0,0,0,0,0,0,0,2063,2638,2875,2265,1,3170,3729,0.582,4.154,7.791,-3.426,-1.771,-0.395,0.860,-2.545,9.689,-0.088,0.047,0.057,happy
7.32,0,0,0,0,0,0,0,0,5,1981,2608,2917,2285,0,3159,3693,0.048,5.186,8.607,-3.539,-1.908,-0.153,0.771,-2.502,9.761,-0.104,0.056,0.059,happy
7.33,0,0,0,0,0,0,0,0,79,1959,2638,2968,2265,23,3092,3645,-0.141,6.084,9.163,-3.675,-1.961,0.116,0.764,-2.545,10.163,-0.099,0.058,0.048,happy
7.34,0,0,0,0,0,0,0,0,149,2037,2689,3125,2348,35,2963,3589,-1.700,7.238,9.622,-3.796,-1.988,0.567,0.848,-2.643,9.747,-0.091,0.051,0.033,happy
7.35,0,0,0,0,0,0,0,0,236,2141,2733,3177,2441,44,2748,3401,-2.248,7.788,9.433,-3.706,-1.931,0.760,0.673,-2.555,9.689,-0.080,0.026,0.026,happy
7.36,0,0,0,0,0,0,0,0,231,2203,2751,3219,2471,29,2565,3286,-2.152,8.406,10.520,-3.578,-1.609,0.826,0.630,-2.638,9.924,-0.094,0.022,0.015,happy
7.37,0,0,0,0,0,0,0,0,597,2219,2999,3316,2537,51,2285,2935,-1.484,8.645,10.546,-3.419,-1.394,0.901,0.733,-2.586,9.955,-0.087,0.007,0.017,happy
7.38,0,0,0,0,0,0,0,0,823,2271,2925,3445,2583,48,2111,2485,-0.520,8.504,10.592,-3.131,-1.192,1.048,0.673,-2.662,9.905,-0.065,0.016,0.021,happy
7.39,0,0,0,0,0,0,0,0,839,2229,2943,3471,2611,50,1973,2281,-0.407,9.292,12.938,-2.968,-1.170,1.285,0.702,-2.691,9.766,-0.101,0.015,0.013,happy
7.40,0,0,0,0,0,0,0,0,1215,2279,3053,3553,2571,50,1800,1689,-1.132,9.828,13.393,-3.141,-0.849,1.522,0.742,-2.660,9.677,-0.094,0.010,0.015,happy
7.41,0,0,0,0,0,0,0,0,1370,2351,3007,3642,2387,0,1599,837,-4.599,9.503,12.787,-3.026,-0.667,1.369,0.745,-2.741,9.706,-0.113,0.011,0.014,happy
7.42,0,0,0,0,0,0,0,0,1559,2381,3017,3656,2335,51,1385,442,-3.970,12.177,13.247,-2.880,-0.534,1.102,0.713,-2.634,9.823,-0.111,0.017,0.016,happy
7.43,0,0,0,0,0,0,0,0,1849,2479,3055,3732,2250,45,728,275,-3.697,13.300,4.652,-2.382,0.279,0.743,0.737,-2.775,9.706,-0.092,0.002,0.019,happy
7.44,0,0,0,0,0,0,0,0,2105,2511,3048,3795,2079,22,270,68,-7.980,15.007,-1.786,-1.100,-0.919,-0.234,0.759,-2.686,9.807,-0.137,0.008,0.002,happy
7.45,0,0,0,0,0,0,0,0,2239,2597,3058,3883,1877,0,165,56,-2.617,15.938,-4.489,0.105,-1.333,-0.312,0.821,-2.540,9.752,-0.238,0.015,-0.030,happy
7.46,0,0,0,0,0,0,0,0,2491,2621,3068,3896,1126,15,19,45,2.248,16.592,-10.530,2.209,2.170,0.193,0.383,-2.531,9.936,-0.436,0.126,-0.039,happy
7.47,0,0,0,0,0,0,0,129,2613,2676,3068,3932,807,2,13,37,5.389,6.773,18.938,1.030,3.391,0.009,0.539,-3.292,9.175,-0.470,0.037,-0.085,happy
7.48,0,0,0,0,0,0,0,1861,2747,2655,3089,3951,719,0,0,10,-9.100,-9.754,19.613,1.859,1.571,0.616,0.733,-2.571,9.591,-0.498,0.055,-0.083,happy
7.49,0,0,0,0,0,0,0,2741,2868,2745,3091,3973,435,1,0,0,-8.516,-5.471,2.540,3.648,-0.130,0.473,0.666,-2.519,9.191,-0.647,0.002,-0.134,happy
7.50,0,0,0,0,0,0,0,3107,2984,2735,3094,3981,319,0,0,0,-8.102,6.929,10.757,3.362,1.012,-0.496,1.137,-2.947,9.687,-0.675,-0.196,-0.223,happy
7.51,0,0,0,0,0,0,0,3309,3096,2791,3099,3986,225,0,0,0,-0.816,5.109,11.155,2.829,0.767,-0.155,1.166,-3.503,9.325,-0.950,-0.387,-0.317,happy
7.52,0,0,0,0,0,0,70,3415,3157,2719,3099,3979,167,0,0,0,-1.264,2.916,9.148,2.967,0.686,-0.167,1.602,-2.365,9.603,-1.085,-0.517,-0.377,happy
7.53,0,0,0,0,0,0,462,3431,3198,2620,3096,3965,55,0,0,0,-2.330,2.775,7.810,3.359,0.292,-0.085,1.046,-2.875,9.689,-1.225,-0.490,-0.432,happy
7.54,0,0,0,0,156,0,1200,3377,3231,2479,3104,3941,51,23,0,0,19.613,19.613,19.613,1.842,1.763,-0.891,1.156,-3.402,9.718,-1.643,-0.353,-0.502,happy
7.55,805,400,415,0,694,0,1842,3359,3199,2215,3145,3879,0,0,21,0,-1.709,7.633,10.817,0.177,0.031,-0.048,1.267,-2.883,9.577,-2.162,0.300,-0.529,happy
7.56,1103,945,1906,511,1019,0,2193,3420,3149,1977,3165,3839,0,0,0,0,-0.007,4.252,10.683,0.514,0.053,-0.107,2.591,-4.666,9.503,-2.457,0.504,-0.591,happy
7.57,1279,1418,2455,1102,1315,0,2477,3490,2823,1055,3104,3739,0,0,0,0,-0.120,4.334,9.886,0.143,0.063,-0.078,1.946,-3.742,9.919,-3.117,1.274,-0.508,happy
7.58,1423,1675,2699,1647,1558,0,2692,3521,2134,549,2454,3288,0,0,0,0,0.287,3.749,9.364,0.116,0.001,-0.019,1.068,-2.421,13.063,-4.947,1.285,0.525,happy
7.59,1616,1934,2899,2015,1973,0,2815,3563,1639,373,1922,2839,0,0,0,0,0.261,3.936,9.459,0.100,0.050,0.020,0.891,-7.266,13.290,-5.790,0.715,1.577,happy
7.60,1801,2128,3051,2208,2272,66,2950,3565,547,0,2,671,5,0,0,0,0.105,3.831,9.452,0.070,-0.019,0.045,-0.682,-5.993,16.862,-6.127,-0.350,2.894,happy
7.61,1959,2243,3170,2417,2608,317,3053,3536,0,0,0,0,0,0,0,0,0.268,3.479,9.285,0.076,-0.010,0.022,1.113,-8.504,10.573,-6.391,-0.932,3.099,happy
7.62,1968,2409,3263,2541,2774,239,3115,3536,0,0,2,0,0,0,0,0,0.338,3.766,9.321,0.076,-0.002,0.007,5.207,-8.179,8.068,-4.024,-0.330,3.113,happy
7.63,2043,2558,3325,2663,2950,229,3138,3504,0,0,0,0,0,16,0,0,0.077,3.646,9.330,0.072,0.014,0.004,4.128,-9.041,19.613,0.460,-0.216,1.950,happy
7.64,2109,2630,3379,2722,3030,147,3136,3421,0,0,0,0,0,0,0,0,0.239,3.740,9.218,0.061,0.022,-0.008,8.928,-0.766,8.289,2.137,0.566,0.662,happy
7.65,2130,2737,3440,2850,3135,0,3071,3363,0,0,2,0,0,0,0,0,0.223,3.630,9.474,0.071,0.022,-0.006,6.443,0.096,7.211,2.369,0.831,-0.024,happy
7.66,2174,2784,3467,2903,3165,0,3009,3270,0,0,0,0,0,0,0,0,0.206,3.673,9.290,0.079,0.012,-0.009,4.752,-0.735,5.420,2.513,0.788,-0.553,happy
7.67,2209,2825,3501,2928,3184,0,2930,3168,0,0,0,0,0,0,0,0,0.211,3.816,9.323,0.076,0.021,-0.005,3.158,-0.735,6.993,2.753,0.368,-0.763,happy
7.68,2247,2863,3521,2953,3207,0,2842,3059,0,0,0,0,0,0,0,24,0.261,3.709,9.321,0.083,0.011,-0.010,3.187,-2.308,8.042,3.001,-0.128,-1.043,happy
7.69,2321,2928,3567,2995,3227,0,2693,2891,0,0,0,0,0,0,0,0,0.306,3.797,9.290,0.080,0.015,-0.012,3.043,-3.857,7.793,3.659,-0.162,-1.314,happy
7.70,2367,2928,3602,3027,3253,0,2526,2704,0,0,0,0,0,0,0,0,0.278,3.728,9.270,0.075,0.025,-0.017,1.460,-6.393,9.651,4.108,-0.385,-1.362,happy
7.71,2399,3008,3632,3063,3247,0,2325,2480,0,0,104,0,0,0,0,0,0.194,3.737,9.352,0.067,0.052,-0.015,1.528,-6.749,8.638,4.155,-0.588,-1.382,happy
7.72,2448,3047,3657,3120,3249,0,2102,2149,0,0,0,0,0,0,0,4,0.194,3.704,9.309,0.082,0.054,-0.013,1.997,-7.377,9.029,3.876,-0.645,-1.445,happy
7.73,2495,3049,3689,3123,3223,0,1903,1728,0,0,0,0,0,0,0,0,0.227,3.790,9.239,0.088,0.060,-0.013,3.132,-7.389,11.109,3.755,-0.817,-1.812,happy
7.74,2542,3127,3709,3186,3203,0,1674,1148,0,0,0,0,0,0,0,0,0.199,3.718,9.275,0.098,0.068,-0.004,2.907,-7.226,10.870,3.704,-0.787,-1.964,happy
7.75,2594,3159,3731,3228,3120,0,1397,240,0,0,0,0,33,0,0,0,0.127,3.759,9.311,0.109,0.075,-0.003,1.334,-6.675,10.932,3.498,-0.676,-1.838,happy
7.76,2653,3195,3747,3267,2958,0,1166,0,0,0,0,0,0,0,0,0,0.242,3.809,9.359,0.122,0.073,-0.000,-0.713,-6.452,12.960,3.139,-1.241,-1.376,happy
7.77,2683,3219,3762,3286,2879,0,983,0,0,0,0,0,0,0,0,0,0.273,3.792,9.292,0.129,0.091,-0.001,-1.240,-6.953,14.554,3.154,-1.391,-0.996,happy
7.78,2715,3210,3776,3281,2830,0,767,0,23,0,0,0,0,0,0,0,0.158,3.831,9.294,0.152,0.109,0.005,-1.918,-7.458,15.373,3.187,-1.512,-0.592,happy
7.79,2775,3227,3792,3312,2759,0,559,0,0,0,17,0,0,0,0,0,0.089,3.833,9.199,0.137,0.125,-0.006,-2.950,-7.966,15.119,3.113,-1.775,-0.213,happy
7.80,2835,3242,3804,3355,2775,0,400,0,0,0,0,0,0,0,0,0,0.124,3.855,9.103,0.135,0.122,-0.007,-3.290,-9.026,13.458,2.911,-2.122,0.153,happy
7.81,2863,3307,3793,3381,2694,0,258,0,0,0,0,0,0,0,0,0,0.189,3.847,9.242,0.155,0.124,0.002,-3.175,-10.161,11.372,2.556,-2.420,0.495,happy
7.82,2870,3296,3829,3395,2638,0,96,0,0,0,2,0,0,0,0,0,0.089,3.836,9.278,0.181,0.146,0.006,-3.326,-11.495,9.799,2.007,-2.995,0.589,happy
7.83,2901,3334,3866,3431,2558,0,0,0,0,0,0,0,0,0,0,1,0.022,3.718,9.203,0.214,0.152,0.011,-3.484,-12.639,9.792,1.516,-3.759,0.449,happy
7.84,2928,3346,3861,3426,2461,0,0,0,0,0,0,0,0,0,0,0,0.069,3.828,9.445,0.280,0.161,0.020,-0.996,-15.711,9.170,1.336,-3.907,0.115,happy
7.85,2991,3381,3872,3454,2341,0,0,0,0,0,0,0,0,3,0,0,-0.012,3.931,9.407,0.304,0.176,0.026,1.202,-16.384,5.363,1.256,-2.863,-0.244,happy
7.86,3050,3390,3887,3504,1930,0,0,0,0,0,5,0,0,0,0,0,0.086,2.964,9.270,0.442,0.164,0.090,-1.135,-16.743,0.843,0.883,-1.471,-0.393,happy
7.87,3117,3408,3967,3546,1616,0,0,0,0,0,0,0,0,0,2,0,0.115,3.922,9.210,0.451,0.123,0.103,-3.625,-16.113,-2.574,-0.002,-0.693,-0.389,happy
7.88,3183,3434,3904,3550,1509,0,0,0,0,0,0,0,0,0,0,0,0.081,3.991,9.069,0.515,0.144,0.140,-2.837,-14.396,-2.823,-3.037,-0.557,-0.964,happy
7.89,3280,3456,3924,3568,1289,0,0,0,0,0,0,0,59,0,0,0,0.045,3.819,8.926,0.557,0.153,0.181,5.076,-14.351,-6.622,-2.733,1.668,-0.519,happy
7.90,3353,3483,3920,3551,1222,0,0,0,0,0,0,0,0,0,0,0,0.251,4.044,9.175,0.613,0.141,0.226,10.412,-9.574,16.338,-1.200,3.890,-0.206,happy
7.91,3421,3536,3926,3561,1040,0,0,0,6,9,0,0,0,0,107,3,0.287,4.053,9.117,0.731,0.132,0.276,0.986,2.105,17.928,-1.883,2.514,-0.937,happy
7.92,3504,3440,3934,3568,959,0,0,0,0,0,0,0,0,0,283,293,-0.113,3.680,9.266,0.959,0.090,0.347,-10.341,10.910,7.793,-3.039,1.254,-0.387,happy
7.93,3543,3382,3938,3600,825,0,0,0,0,0,0,0,0,0,239,951,0.637,3.883,9.177,1.089,0.143,0.411,-11.042,-0.814,11.655,-3.188,1.787,1.516,happy
7.94,3600,3183,3927,3569,353,0,0,0,0,0,2,0,0,0,309,2215,0.481,3.455,9.519,1.433,0.268,0.475,-5.004,-7.082,14.382,-2.660,1.291,1.833,happy
7.95,3644,2669,3916,3559,338,0,0,0,0,0,2,27,0,0,649,2919,0.182,4.199,8.981,1.757,0.396,0.538,2.497,-2.789,6.993,-1.934,0.776,0.828,happy
7.96,3663,2539,3889,3518,95,0,0,0,0,0,0,0,0,0,1191,3324,0.536,4.487,9.172,2.017,0.512,0.567,19.613,0.838,18.203,-2.667,-0.195,1.368,happy
7.97,3679,2474,3885,3500,0,0,0,0,0,9,46,0,0,6,1379,3501,0.457,5.083,8.689,2.224,0.635,0.619,-1.877,-19.613,19.613,-0.309,2.337,0.566,happy
7.98,3677,2367,3815,3451,0,0,0,0,0,0,0,0,0,0,1779,3672,0.089,4.690,8.375,2.446,0.750,0.665,0.831,-3.575,12.603,0.183,1.920,0.476,happy
7.99,3644,2241,3760,3377,0,0,0,0,0,87,0,0,0,0,1903,3701,1.130,5.428,8.796,2.700,0.900,0.720,1.039,-3.821,16.652,-0.388,0.622,0.338,happy
8.00,3611,2230,3691,3184,0,0,0,0,0,223,2,0,0,0,2085,3731,0.709,5.461,8.296,2.852,0.882,0.674,1.427,-3.431,10.554,0.114,0.686,0.210,happy
8.01,3408,2118,3603,2254,0,0,0,0,0,269,2,0,0,0,2220,3798,0.134,4.932,9.668,3.231,0.610,0.674,1.092,-2.693,10.137,0.150,0.496,0.088,happy
8.02,3184,2027,3396,1948,0,0,0,0,31,372,0,5,81,0,2407,3829,0.503,6.062,11.782,3.819,-0.101,0.391,0.690,-2.169,10.048,0.081,0.374,0.116,happy
8.03,1906,1294,2559,957,0,0,0,0,0,572,2,77,117,0,2487,3859,-1.326,8.531,15.775,5.463,-1.510,-0.620,1.547,-2.191,9.759,0.030,0.314,0.145,happy
8.04,659,32,548,0,0,0,0,0,0,829,5,1011,468,0,2684,3916,-2.751,8.435,15.143,7.542,-1.891,-1.816,0.812,-2.370,10.130,-0.031,0.260,0.200,happy
8.05,86,0,0,0,0,0,0,0,3,968,7,1591,549,0,2905,3978,-0.867,10.633,9.744,6.878,-2.286,-1.542,0.864,-2.617,10.113,0.062,0.196,0.110,happy
8.06,0,0,0,0,0,0,0,0,1,1184,399,1879,681,0,2953,3996,3.237,7.815,15.409,4.094,-1.208,-2.103,1.063,-2.744,9.948,0.044,0.137,0.070,happy
8.07,0,0,0,0,0,0,0,0,0,1268,0,1907,903,0,3048,4009,1.942,6.314,19.613,0.874,0.145,-3.137,1.065,-2.693,9.790,0.052,0.105,0.018,happy
8.08,0,0,0,0,0,0,0,0,1,1288,2065,2027,1119,2,3149,4019,-1.140,3.618,18.653,-0.628,-0.573,-1.824,1.056,-2.081,9.517,0.014,0.108,0.044,happy
8.09,0,0,0,0,0,0,0,0,2,1358,2280,2214,1431,3,3199,3903,0.524,0.271,11.566,-1.196,-0.903,-2.177,0.941,-2.270,9.890,0.001,0.112,0.069,happy
8.10,0,0,0,0,0,0,0,0,0,1316,2390,2399,1583,6,3257,4015,1.475,1.240,9.809,-1.859,-0.853,-2.200,0.642,-2.081,10.154,0.016,0.098,0.082,happy
8.11,0,0,0,0,0,0,0,0,2,1417,2346,2426,1703,3,3263,4007,2.057,0.565,8.315,-2.182,-0.782,-2.138,0.785,-2.507,9.898,-0.030,0.084,0.075,happy
8.12,0,0,0,0,0,0,0,0,1,1423,2346,2549,1788,3,3315,3989,2.152,1.956,8.535,-2.573,-0.817,-1.997,1.008,-2.622,9.663,-0.031,0.089,0.079,happy
8.13,0,0,0,0,0,0,0,0,0,1340,2469,2613,1843,46,3322,3973,2.205,2.895,8.672,-2.964,-0.908,-1.823,0.819,-2.284,9.759,-0.052,0.072,0.069,happy
8.14,0,0,0,0,0,0,0,0,0,1461,2485,2687,1869,55,3320,3939,2.203,3.625,8.456,-3.389,-1.061,-1.585,0.912,-2.495,9.723,-0.056,0.065,0.070,happy
8.15,0,0,0,0,0,0,0,0,1,1567,2503,2765,1976,3,3289,3900,2.224,3.780,7.379,-3.680,-1.188,-1.301,0.900,-2.234,9.685,-0.065,0.054,0.064,happy
8.16,0,0,0,0,0,0,0,0,1,1627,2513,2823,1907,1,3261,3867,2.157,4.331,6.582,-3.751,-1.294,-1.033,0.946,-2.461,9.790,-0.090,0.058,0.073,happy
8.17,0,0,0,0,0,0,0,0,0,1683,2520,2877,1895,2,3215,3832,1.987,5.655,7.769,-3.780,-1.365,-0.793,0.883,-2.447,9.713,-0.088,0.051,0.067,happy
8.18,0,0,0,0,0,0,0,0,9,1709,2584,2917,1927,3,3205,3800,2.490,6.955,8.464,-3.903,-1.408,-0.457,0.824,-2.531,9.728,-0.081,0.045,0.062,happy
8.19,0,0,0,0,0,0,0,0,0,1784,2590,2975,1949,3,3147,3764,2.634,7.626,8.550,-3.972,-1.410,-0.015,0.785,-2.519,9.776,-0.063,0.036,0.037,happy
8.20,0,0,0,0,0,0,0,0,1,1816,2602,3037,2024,2,3113,3734,2.440,8.265,8.820,-3.958,-1.385,0.489,0.709,-2.349,9.929,-0.055,0.035,0.030,happy
8.21,0,0,0,0,0,0,0,0,0,1871,2408,3047,2019,36,3061,3700,1.602,9.313,9.170,-3.910,-1.406,0.977,0.867,-2.646,9.761,-0.044,0.051,0.044,happy
8.22,0,0,0,0,0,0,0,0,0,1932,2648,3094,2093,2,3021,3669,1.571,9.697,9.060,-3.797,-1.375,1.454,0.804,-2.535,9.780,-0.066,0.037,0.033,happy
8.23,0,0,0,0,0,0,0,0,24,1961,2674,3141,2131,10,2981,3564,1.559,9.541,8.856,-3.613,-1.140,1.819,0.797,-2.622,9.629,-0.038,0.029,0.036,happy
8.24,0,0,0,0,0,0,0,0,27,2004,2715,3205,2135,0,2873,3592,1.465,9.500,9.254,-3.456,-0.876,2.082,0.721,-2.399,9.845,-0.031,0.029,0.032,happy
8.25,0,0,0,0,0,0,0,0,57,2043,2638,3224,2195,22,2792,3533,1.271,9.244,9.972,-3.293,-0.744,2.268,0.807,-2.567,9.716,-0.015,0.015,0.031,happy
8.26,0,0,0,0,0,0,0,0,150,2099,2710,3305,2275,37,2668,3432,1.130,9.311,10.786,-3.146,-0.766,2.391,0.838,-2.607,9.725,-0.046,0.028,0.037,happy
8.27,0,0,0,0,0,0,0,0,187,2120,2858,3369,2379,39,2549,3351,1.255,10.590,13.070,-3.107,-0.924,2.510,0.917,-2.598,9.534,-0.023,0.018,0.038,happy
8.28,0,0,0,0,0,0,0,0,134,2203,2899,3439,2509,29,2351,3001,1.475,10.324,12.397,-3.137,-0.748,2.623,0.709,-2.523,9.541,-0.053,0.002,0.027,happy
8.29,0,0,0,0,0,0,0,0,346,2323,2963,3515,2647,48,2285,2675,0.891,10.582,12.816,-2.729,-0.755,2.532,0.845,-2.576,9.776,-0.063,0.014,0.035,happy
8.30,0,0,0,0,0,0,0,0,542,2347,2981,3573,2697,48,2227,2509,1.776,12.395,12.347,-2.310,-1.116,2.493,0.857,-2.538,9.668,-0.086,-0.007,0.031,happy
8.31,0,0,0,0,0,0,0,0,763,2455,2986,3532,2712,47,1995,2041,3.926,13.810,9.560,-1.927,-0.930,2.413,0.713,-2.648,9.957,-0.131,-0.004,0.022,happy
8.32,0,0,0,0,0,0,0,0,1125,2453,3002,3705,2542,47,1588,1083,-2.229,13.958,4.544,-1.636,-1.579,2.255,0.754,-2.722,9.685,-0.131,-0.003,0.014,happy
8.33,0,0,0,0,0,0,0,0,1226,2538,3017,3737,2428,47,1341,477,-1.884,13.580,-0.290,-0.688,-1.913,1.690,0.828,-2.653,9.653,-0.134,0.005,0.015,happy
8.34,0,0,0,0,0,0,0,0,1406,2619,3043,3799,2265,46,715,454,-0.740,14.873,-1.700,0.029,-0.833,1.095,0.785,-2.782,9.759,-0.131,0.027,0.018,happy
8.35,0,0,0,0,0,0,0,0,1664,2702,3050,3877,2118,39,303,173,0.158,12.677,-2.325,1.128,-0.096,0.931,0.783,-2.892,9.740,-0.060,0.017,0.033,happy
8.36,0,0,0,0,0,0,0,0,1787,2751,3058,3895,1874,35,189,184,19.199,8.095,1.336,2.295,3.354,2.200,0.821,-2.368,9.819,-0.227,0.036,-0.019,happy
8.37,0,0,0,0,0,0,0,0,1845,2771,3058,3923,1497,23,91,85,-2.703,1.475,14.317,1.395,3.541,2.728,0.802,-3.208,9.572,-0.333,0.037,-0.039,happy
8.38,0,0,0,0,0,0,101,1558,1939,2735,3104,3939,1093,12,7,151,-8.698,-6.333,9.608,2.739,1.671,3.197,0.618,-2.749,9.790,-0.603,0.072,-0.062,happy
8.39,0,0,0,0,0,0,54,3003,2196,2695,3058,3964,573,4,2,71,-19.613,4.092,13.159,3.748,0.203,1.143,0.651,-3.974,9.926,-0.616,-0.038,-0.097,happy
8.40,0,0,0,0,0,0,223,3323,2532,2665,3081,3981,219,0,0,0,-4.853,5.377,13.927,3.110,1.248,-1.356,1.590,-3.764,10.116,-0.722,-0.295,-0.211,happy
8.41,0,0,0,0,0,0,626,3408,2615,2590,3089,3981,227,0,0,0,6.414,5.320,6.146,2.815,1.235,-0.625,1.583,-3.622,9.816,-0.851,-0.392,-0.298,happy
8.42,0,0,0,0,302,0,1271,3335,2697,2517,3068,3859,61,0,0,1,19.613,19.613,19.613,0.965,1.188,-0.821,1.053,-2.962,9.328,-1.069,-0.369,-0.374,happy
8.43,630,472,287,0,748,0,1808,3325,2857,2316,3084,3933,0,0,0,0,2.746,7.156,8.803,-0.045,0.131,0.008,1.046,-3.627,9.112,-1.324,-0.219,-0.415,happy
8.44,837,1104,1387,240,1059,0,2140,3349,2860,2035,3145,3879,37,0,0,0,0.536,4.312,9.333,0.208,-0.044,-0.033,1.939,-3.273,9.048,-2.017,0.208,-0.560,happy
8.45,945,1535,2063,578,1392,0,2491,3449,2739,1593,3099,3803,0,0,0,0,0.481,3.749,9.426,0.074,0.039,-0.042,2.440,-4.398,9.797,-2.036,0.475,-0.519,happy
