timestamp,L1,L2,L3,L4,L5,L6,L7,L8,R1,R2,R3,R4,R5,R6,R7,R8,acc_x_left,acc_y_left,acc_z_left,gyro_x_left,gyro_y_left,gyro_z_left,acc_x_right,acc_y_right,acc_z_right,gyro_x_right,gyro_y_right,gyro_z_right,mood
0.00,0,2302,0,0,0,0,0,2681,0,0,0,0,0,0,0,0,-4.602,1.226,0.000,-1.295,1.090,0.000,0.000,0.000,0.000,0.000,0.000,0.000,
0.01,0,2310,0,0,0,0,0,2687,0,0,0,0,0,0,0,0,-4.602,1.226,0.000,0.000,-29.340,-1.023,0.000,0.000,0.000,0.000,0.000,0.000,
0.02,0,2183,0,0,0,0,0,2519,0,0,0,0,0,0,0,0,-4.602,1.226,0.000,0.000,-29.340,-1.023,0.000,0.000,0.000,0.000,0.000,0.000,
0.03,0,2306,0,0,0,0,0,2684,0,0,0,0,0,0,0,0,-4.602,1.226,0.000,0.000,-29.340,-1.023,0.000,0.000,0.000,0.000,0.000,0.000,
0.04,0,2315,0,0,0,0,0,2693,0,0,0,0,0,0,0,0,-4.602,1.226,0.000,0.000,-29.340,-1.023,0.000,0.000,0.000,0.000,0.000,0.000,
0.05,0,2316,0,0,0,0,0,2695,0,0,0,0,0,0,0,0,-4.602,1.226,0.000,0.000,-29.340,-1.023,0.000,0.000,0.000,0.000,0.000,0.000,
0.06,0,2333,0,0,0,0,0,2698,0,0,0,0,0,0,0,0,-4.602,1.226,0.000,0.000,-29.340,-1.023,0.000,0.000,0.000,0.000,0.000,0.000,
0.07,0,2337,0,0,0,0,0,2698,0,0,0,0,0,0,0,0,-4.602,1.226,0.000,0.000,-29.340,-1.023,0.000,0.000,0.000,0.000,0.000,0.000,
0.08,0,2333,0,0,0,0,0,2703,0,0,0,0,0,0,0,0,-4.602,1.226,0.000,0.000,-29.340,-1.023,0.000,0.000,0.000,0.000,0.000,0.000,
0.09,0,2339,0,0,0,0,0,2703,0,0,0,0,0,0,0,0,-4.602,1.226,0.000,0.000,-29.340,-1.023,0.000,0.000,0.000,0.000,0.000,0.000,
0.10,0,2341,0,0,0,0,0,2702,0,0,0,0,0,0,0,0,-4.602,1.226,0.000,0.000,-29.340,-1.023,0.000,0.000,0.000,0.000,0.000,0.000,
0.11,0,2334,0,0,0,0,0,2691,0,0,0,0,0,0,0,0,-4.602,1.226,0.000,0.000,-29.340,-1.023,0.000,0.000,0.000,0.000,0.000,0.000,
0.12,0,2348,0,0,0,0,0,2692,0,0,0,0,0,0,0,0,-4.602,1.226,0.000,0.000,-29.340,-1.023,0.000,0.000,0.000,0.000,0.000,0.000,
0.13,0,2343,0,0,0,0,0,2694,0,0,0,0,0,0,0,0,-4.602,1.226,0.000,0.000,-29.340,-1.023,0.000,0.000,0.000,0.000,0.000,0.000,
0.14,0,2343,0,0,0,0,0,2693,0,0,0,0,0,0,0,0,-4.602,1.226,0.000,0.000,-29.340,-1.023,0.000,0.000,0.000,0.000,0.000,0.000,
0.15,0,2349,0,0,0,0,0,2704,0,0,0,0,0,0,0,0,-4.602,1.226,0.000,0.000,-29.340,-1.023,0.000,0.000,0.000,0.000,0.000,0.000,
0.16,0,2352,0,0,0,0,0,2701,0,0,0,0,0,0,0,0,-4.602,1.226,0.000,0.000,-29.340,-1.023,0.000,0.000,0.000,0.000,0.000,0.000,
0.17,0,2351,0,0,0,0,0,2680,0,0,0,0,0,0,0,0,-4.602,1.226,0.000,0.000,-29.340,-1.023,0.000,0.000,0.000,0.000,0.000,0.000,
0.18,0,2213,0,0,0,0,0,2211,0,0,0,0,0,0,0,0,-4.602,1.226,0.000,0.000,-29.340,-1.023,0.000,0.000,0.000,0.000,0.000,0.000,
0.19,0,2415,0,0,0,0,0,1514,0,0,0,0,0,0,0,0,-4.602,1.226,0.000,0.000,-29.340,-1.023,0.000,0.000,0.000,0.000,0.000,0.000,
0.20,0,2334,0,0,0,0,0,282,0,0,0,0,0,0,0,0,-4.602,1.226,0.000,0.000,-29.340,-1.023,0.000,0.000,0.000,0.000,0.000,0.000,
0.21,0,944,0,0,0,0,0,32,0,0,0,0,0,0,0,0,-4.602,1.226,0.000,0.000,-29.340,-1.023,0.000,0.000,0.000,0.000,0.000,0.000,
0.22,0,751,0,0,0,0,0,230,0,0,0,0,0,0,0,0,-4.602,1.226,0.000,0.000,-29.340,-1.023,0.000,0.000,0.000,0.000,0.000,0.000,
0.23,0,642,0,0,0,0,0,58,0,0,0,0,0,0,0,0,-4.602,1.226,0.000,0.000,-29.340,-1.023,0.000,0.000,0.000,0.000,0.000,0.000,
0.24,0,615,0,0,0,0,0,75,0,0,0,0,0,0,0,0,-4.602,1.226,0.000,0.000,-29.340,-1.023,0.000,0.000,0.000,0.000,0.000,0.000,
0.25,0,755,0,0,0,0,0,29,0,0,0,0,0,0,0,0,-4.602,1.226,0.000,0.000,-29.340,-1.023,0.000,0.000,0.000,0.000,0.000,0.000,
0.26,0,752,0,0,0,0,0,49,0,0,0,0,0,0,0,0,-4.602,1.226,0.000,0.000,-29.340,-1.023,0.000,0.000,0.000,0.000,0.000,0.000,
0.27,0,770,0,0,0,0,0,103,0,0,0,0,0,0,0,0,-4.602,1.226,0.000,0.000,-29.340,-1.023,0.000,0.000,0.000,0.000,0.000,0.000,
0.28,0,833,0,0,0,0,0,83,0,0,0,0,0,0,0,0,-4.602,1.226,0.000,0.000,-29.340,-1.023,0.000,0.000,0.000,0.000,0.000,0.000,
0.29,0,884,0,0,0,0,0,91,0,0,0,0,0,0,0,0,-4.602,1.226,0.000,0.000,-29.340,-1.023,0.000,0.000,0.000,0.000,0.000,0.000,
0.30,0,886,0,0,0,0,0,102,0,0,0,0,0,0,0,0,-4.602,1.226,0.000,0.000,-29.340,-1.023,0.000,0.000,0.000,0.000,0.000,0.000,
0.31,0,865,0,0,0,0,0,81,0,0,0,0,0,0,0,0,-4.602,1.226,0.000,0.000,-29.340,-1.023,0.000,0.000,0.000,0.000,0.000,0.000,
0.32,0,858,0,0,0,0,0,29,0,0,0,0,0,0,0,0,-4.602,1.226,0.000,0.000,-29.340,-1.023,0.000,0.000,0.000,0.000,0.000,0.000,
0.33,0,804,0,0,0,0,0,128,0,0,0,0,0,0,0,0,-4.602,1.226,0.000,0.000,-29.340,-1.023,0.000,0.000,0.000,0.000,0.000,0.000,
0.34,0,657,0,0,0,0,0,110,0,0,0,0,0,0,0,0,-4.602,1.226,0.000,0.000,-29.340,-1.023,0.000,0.000,0.000,0.000,0.000,0.000,
0.35,0,682,0,0,0,0,0,122,0,0,0,0,0,0,0,0,-4.602,1.226,0.000,0.000,-29.340,-1.023,0.000,0.000,0.000,0.000,0.000,0.000,
0.36,0,642,0,0,0,0,0,112,0,0,0,0,0,0,0,0,-4.602,1.226,0.000,0.000,-29.340,-1.023,0.000,0.000,0.000,0.000,0.000,0.000,
0.37,0,681,0,0,0,0,0,137,0,0,0,0,0,0,0,0,-4.602,1.226,0.000,0.000,-29.340,-1.023,0.000,0.000,0.000,0.000,0.000,0.000,
0.38,0,746,0,0,0,0,0,157,0,0,0,0,0,0,0,0,-4.602,1.226,0.000,0.000,-29.340,-1.023,0.000,0.000,0.000,0.000,0.000,0.000,
0.39,0,762,0,0,0,0,0,145,0,0,0,0,0,0,0,0,-4.602,1.226,0.000,0.000,-29.340,-1.023,0.000,0.000,0.000,0.000,0.000,0.000,
0.40,0,790,0,0,0,0,0,174,0,0,0,0,0,0,0,0,-4.602,1.226,0.000,0.000,-29.340,-1.023,0.000,0.000,0.000,0.000,0.000,0.000,
0.41,0,799,0,0,0,0,0,177,0,0,0,0,0,0,0,0,-4.602,1.226,0.000,0.000,-29.340,-1.023,0.000,0.000,0.000,0.000,0.000,0.000,
0.42,0,804,0,0,0,0,0,188,0,0,0,0,0,0,0,0,-4.602,1.226,0.000,0.000,-29.340,-1.023,0.000,0.000,0.000,0.000,0.000,0.000,
0.43,0,813,0,0,0,0,0,197,0,0,0,0,0,0,0,0,-4.602,1.226,0.000,0.000,-29.340,-1.023,0.000,0.000,0.000,0.000,0.000,0.000,
0.44,0,773,0,0,0,0,0,186,0,0,0,0,0,0,0,0,-4.602,1.226,0.000,0.000,-29.340,-1.023,0.000,0.000,0.000,0.000,0.000,0.000,
0.45,0,754,0,0,0,0,0,153,0,0,0,0,0,0,0,0,-4.602,1.226,0.000,0.000,-29.340,-1.023,0.000,0.000,0.000,0.000,0.000,0.000,
0.46,0,694,0,0,0,0,0,61,0,0,0,0,0,0,0,0,-4.602,1.226,0.000,0.000,-29.340,-1.023,0.000,0.000,0.000,0.000,0.000,0.000,
0.47,0,863,0,0,0,0,0,90,0,0,0,0,0,0,0,0,-4.602,1.226,0.000,0.000,-29.340,-1.023,0.000,0.000,0.000,0.000,0.000,0.000,
0.48,0,903,0,0,0,0,0,112,0,0,0,0,0,0,0,0,-4.602,1.226,0.000,0.000,-29.340,-1.023,0.000,0.000,0.000,0.000,0.000,0.000,
0.49,0,1010,0,0,0,0,0,182,0,0,0,0,0,0,0,0,-4.602,1.226,0.000,0.000,-29.340,-1.023,0.000,0.000,0.000,0.000,0.000,0.000,
0.50,0,1062,0,0,0,0,0,128,0,0,0,0,0,0,0,0,-4.602,1.226,0.000,0.000,-29.340,-1.023,0.000,0.000,0.000,0.000,0.000,0.000,
0.51,0,1167,0,0,0,0,0,261,0,0,0,0,0,0,0,0,-4.602,1.226,0.000,0.000,-29.340,-1.023,0.000,0.000,0.000,0.000,0.000,0.000,
0.52,0,1152,0,0,3,0,0,321,0,0,0,0,0,0,0,0,-4.602,1.226,0.000,0.000,-29.340,-1.023,0.000,0.000,0.000,0.000,0.000,0.000,
0.53,0,1145,0,0,0,0,0,305,0,0,0,0,0,0,0,0,-4.602,1.226,0.000,0.000,-29.340,-1.023,0.000,0.000,0.000,0.000,0.000,0.000,
0.54,0,954,0,0,0,0,0,273,0,0,0,0,0,0,0,0,-4.602,1.226,0.000,0.000,-29.340,-1.023,0.000,0.000,0.000,0.000,0.000,0.000,
0.55,0,644,0,0,0,0,0,36,0,0,0,0,0,0,0,0,-4.602,1.226,0.000,0.000,-29.340,-1.023,0.000,0.000,0.000,0.000,0.000,0.000,
0.56,0,547,0,0,0,0,0,0,0,0,0,0,0,0,0,0,-4.602,1.226,0.000,0.000,-29.340,-1.023,0.000,0.000,0.000,0.000,0.000,0.000,
0.57,0,597,0,0,0,0,0,0,0,0,0,0,0,0,0,0,-4.602,1.226,0.000,0.000,-29.340,-1.023,0.000,0.000,0.000,0.000,0.000,0.000,
0.58,0,647,0,0,0,0,0,115,0,0,0,0,0,0,0,0,-4.602,1.226,0.000,0.000,-29.340,-1.023,0.000,0.000,0.000,0.000,0.000,0.000,
0.59,0,769,0,0,0,0,0,381,0,0,0,0,0,0,0,0,-4.602,1.226,0.000,0.000,-29.340,-1.023,0.000,0.000,0.000,0.000,0.000,0.000,
0.60,0,698,0,0,0,0,0,406,0,0,0,0,0,0,0,0,-4.602,1.226,0.000,0.000,-29.340,-1.023,0.000,0.000,0.000,0.000,0.000,0.000,
0.61,0,787,0,0,0,0,0,511,0,0,0,0,0,0,0,0,-4.602,1.226,0.000,0.000,-29.340,-1.023,0.000,0.000,0.000,0.000,0.000,0.000,
0.62,0,741,0,0,0,0,0,457,0,0,0,0,0,0,0,0,-4.602,1.226,0.000,0.000,-29.340,-1.023,0.000,0.000,0.000,0.000,0.000,0.000,
0.63,0,673,0,0,0,0,0,327,0,0,0,0,0,0,0,0,-4.602,1.226,0.000,0.000,-29.340,-1.023,0.000,0.000,0.000,0.000,0.000,0.000,
0.64,0,609,0,0,0,0,0,118,0,0,0,0,0,0,0,0,-4.602,1.226,0.000,0.000,-29.340,-1.023,0.000,0.000,0.000,0.000,0.000,0.000,
0.65,0,574,0,0,0,0,0,85,0,0,0,0,0,0,0,0,-4.602,1.226,0.000,0.000,-29.340,-1.023,0.000,0.000,0.000,0.000,0.000,0.000,
0.66,0,671,0,0,0,0,0,117,0,0,0,0,0,0,0,0,-4.602,1.226,0.000,0.000,-29.340,-1.023,0.000,0.000,0.000,0.000,0.000,0.000,
0.67,0,858,0,0,0,0,0,223,0,0,0,0,0,0,0,0,-4.602,1.226,0.000,0.000,-29.340,-1.023,0.000,0.000,0.000,0.000,0.000,0.000,
0.68,0,1143,0,0,0,0,0,316,0,0,0,0,0,0,0,0,-4.602,1.226,0.000,0.000,-29.340,-1.023,0.000,0.000,0.000,0.000,0.000,0.000,
0.69,0,1136,0,0,0,0,0,294,0,0,0,0,0,0,0,0,-4.602,1.226,0.000,0.000,-29.340,-1.023,0.000,0.000,0.000,0.000,0.000,0.000,
0.70,0,1211,0,0,0,0,0,322,0,0,0,0,0,0,0,0,-4.602,1.226,0.000,0.000,-29.340,-1.023,0.000,0.000,0.000,0.000,0.000,0.000,
0.71,0,1083,0,0,0,0,0,342,0,0,0,0,0,0,0,0,-4.602,1.226,0.000,0.000,-29.340,-1.023,0.000,0.000,0.000,0.000,0.000,0.000,
0.72,0,976,0,0,0,0,0,347,0,0,0,0,0,0,0,0,-4.602,1.226,0.000,0.000,-29.340,-1.023,0.000,0.000,0.000,0.000,0.000,0.000,
0.73,0,881,0,0,0,0,0,336,0,0,0,0,0,0,0,0,-4.602,1.226,0.000,0.000,-29.340,-1.023,0.000,0.000,0.000,0.000,0.000,0.000,
0.74,0,667,0,0,0,0,0,143,0,0,0,0,0,0,0,0,-4.602,1.226,0.000,0.000,-29.340,-1.023,0.000,0.000,0.000,0.000,0.000,0.000,
0.75,0,505,0,0,0,0,0,71,0,0,0,0,0,0,0,0,-4.602,1.226,0.000,0.000,-29.340,-1.023,0.000,0.000,0.000,0.000,0.000,0.000,
0.76,0,468,0,0,0,0,0,0,0,0,0,0,0,0,0,0,-4.602,1.226,0.000,0.000,-29.340,-1.023,0.000,0.000,0.000,0.000,0.000,0.000,
0.77,0,280,0,0,0,0,0,50,0,0,0,0,0,0,0,0,-4.602,1.226,0.000,0.000,-29.340,-1.023,0.000,0.000,0.000,0.000,0.000,0.000,
0.78,0,439,0,0,0,0,0,0,0,0,0,0,0,0,0,0,-4.602,1.226,0.000,0.000,-29.340,-1.023,0.000,0.000,0.000,0.000,0.000,0.000,
0.79,0,487,0,0,0,0,0,0,0,0,0,0,0,0,0,0,-4.602,1.226,0.000,0.000,-29.340,-1.023,0.000,0.000,0.000,0.000,0.000,0.000,
0.80,0,543,0,0,0,0,0,0,0,0,0,0,0,0,0,0,-4.602,1.226,0.000,0.000,-29.340,-1.023,0.000,0.000,0.000,0.000,0.000,0.000,
0.81,0,624,0,0,0,0,0,0,0,0,0,0,0,0,0,0,-4.602,1.226,0.000,0.000,-29.340,-1.023,0.000,0.000,0.000,0.000,0.000,0.000,
0.82,0,612,0,0,0,0,0,103,0,0,0,0,0,0,0,0,-4.602,1.226,0.000,0.000,-29.340,-1.023,0.000,0.000,0.000,0.000,0.000,0.000,
0.83,0,611,0,0,0,0,0,252,0,0,0,0,0,0,0,0,-4.602,1.226,0.000,0.000,-29.340,-1.023,0.000,0.000,0.000,0.000,0.000,0.000,
0.84,0,623,0,0,0,0,0,388,0,0,0,0,0,0,0,0,-4.602,1.226,0.000,0.000,-29.340,-1.023,0.000,0.000,0.000,0.000,0.000,0.000,
0.85,0,615,0,0,0,0,0,271,0,0,0,0,0,0,0,0,-4.602,1.226,0.000,0.000,-29.340,-1.023,0.000,0.000,0.000,0.000,0.000,0.000,
0.86,0,592,0,0,0,0,0,0,0,0,0,0,0,0,0,0,-4.602,1.226,0.000,0.000,-29.340,-1.023,0.000,0.000,0.000,0.000,0.000,0.000,
0.87,0,554,0,0,0,0,0,0,0,0,0,0,0,0,0,0,-4.602,1.226,0.000,0.000,-29.340,-1.023,0.000,0.000,0.000,0.000,0.000,0.000,
0.88,0,544,0,0,0,0,0,0,0,0,0,0,0,0,0,0,-4.602,1.226,0.000,0.000,-29.340,-1.023,0.000,0.000,0.000,0.000,0.000,0.000,
0.89,0,528,0,0,0,0,0,0,0,0,0,0,0,0,0,0,-4.602,1.226,0.000,0.000,-29.340,-1.023,0.000,0.000,0.000,0.000,0.000,0.000,
0.90,0,492,0,0,0,0,0,0,0,0,0,0,0,0,0,0,-4.602,1.226,0.000,0.000,-29.340,-1.023,0.000,0.000,0.000,0.000,0.000,0.000,
0.91,0,487,0,0,0,0,0,0,0,0,0,0,0,0,0,0,-4.602,1.226,0.000,0.000,-29.340,-1.023,0.000,0.000,0.000,0.000,0.000,0.000,
0.92,0,541,0,0,0,0,0,0,0,0,0,0,0,0,0,0,-4.602,1.226,0.000,0.000,-29.340,-1.023,0.000,0.000,0.000,0.000,0.000,0.000,
0.93,0,592,0,0,0,0,0,48,0,0,0,0,0,0,0,0,-4.602,1.226,0.000,0.000,-29.340,-1.023,0.000,0.000,0.000,0.000,0.000,0.000,
0.94,0,848,0,0,0,0,0,624,0,0,0,0,0,0,0,0,-4.602,1.226,0.000,0.000,-29.340,-1.023,0.000,0.000,0.000,0.000,0.000,0.000,
0.95,0,1023,0,0,0,0,0,707,0,0,0,0,0,0,0,0,-4.602,1.226,0.000,0.000,-29.340,-1.023,0.000,0.000,0.000,0.000,0.000,0.000,
0.96,0,1286,0,0,0,0,0,1117,0,0,0,0,0,0,0,0,-4.602,1.226,0.000,0.000,-29.340,-1.023,0.000,0.000,0.000,0.000,0.000,0.000,
0.97,0,1424,0,0,0,0,0,1558,0,0,0,0,0,0,0,0,-4.602,1.226,0.000,0.000,-29.340,-1.023,0.000,0.000,0.000,0.000,0.000,0.000,
0.98,0,1535,0,0,0,0,0,1734,0,0,0,0,0,0,0,0,-4.602,1.226,0.000,0.000,-29.340,-1.023,0.000,0.000,0.000,0.000,0.000,0.000,
0.99,0,1953,0,0,0,0,0,2160,0,0,0,0,0,0,0,0,-4.602,1.226,0.000,0.000,-29.340,-1.023,0.000,0.000,0.000,0.000,0.000,0.000,
1.00,0,2102,0,0,0,0,0,2327,0,0,0,0,0,0,0,0,-4.602,1.226,0.000,0.000,-29.340,-1.023,0.000,0.000,0.000,0.000,0.000,0.000,
1.01,0,2177,0,0,0,0,0,2384,0,0,0,0,0,0,0,0,-4.602,1.226,0.000,0.000,-29.340,-1.023,0.000,0.000,0.000,0.000,0.000,0.000,
1.02,0,2238,0,0,0,0,0,2447,0,0,0,0,0,0,0,0,-4.602,1.226,0.000,0.000,-29.340,-1.023,0.000,0.000,0.000,0.000,0.000,0.000,
1.03,0,2285,0,0,142,0,0,2497,0,0,0,0,0,0,0,0,-4.602,1.226,0.000,0.000,-29.340,-1.023,0.000,0.000,0.000,0.000,0.000,0.000,
1.04,0,2255,0,0,65,0,0,2481,0,0,0,0,0,0,0,0,-4.602,1.226,0.000,0.000,-29.340,-1.023,0.000,0.000,0.000,0.000,0.000,0.000,
1.05,0,2288,0,0,118,0,0,2556,0,0,0,0,0,0,0,0,-4.602,1.226,0.000,0.000,-29.340,-1.023,0.000,0.000,0.000,0.000,0.000,0.000,
1.06,0,2236,30,0,64,0,0,2542,0,0,0,0,0,0,0,0,-4.602,1.226,0.000,0.000,-29.340,-1.023,0.000,0.000,0.000,0.000,0.000,0.000,
1.07,0,2199,7,0,107,0,0,2517,0,0,0,0,0,0,0,0,-4.602,1.226,0.000,0.000,-29.340,-1.023,0.000,0.000,0.000,0.000,0.000,0.000,
1.08,0,2173,0,0,97,0,0,2517,0,0,0,0,0,0,0,0,-4.602,1.226,0.000,0.000,-29.340,-1.023,0.000,0.000,0.000,0.000,0.000,0.000,
1.09,0,2171,0,0,80,0,0,2523,0,0,0,0,0,0,0,0,-4.602,1.226,0.000,0.000,-29.340,-1.023,0.000,0.000,0.000,0.000,0.000,0.000,
1.10,0,2167,0,0,75,0,0,2547,0,0,0,0,0,0,0,0,-4.602,1.226,0.000,0.000,-29.340,-1.023,0.000,0.000,0.000,0.000,0.000,0.000,
1.11,0,2161,0,0,61,0,0,2554,0,0,0,0,0,0,0,0,-4.602,1.226,0.000,0.000,-29.340,-1.023,0.000,0.000,0.000,0.000,0.000,0.000,
1.12,0,2171,37,0,80,0,0,2559,0,0,0,0,0,0,0,0,-4.602,1.226,0.000,0.000,-29.340,-1.023,0.000,0.000,0.000,0.000,0.000,0.000,
1.13,0,2176,14,0,64,0,0,2559,0,0,0,0,0,0,0,0,-4.602,1.226,0.000,0.000,-29.340,-1.023,0.000,0.000,0.000,0.000,0.000,0.000,
1.14,0,2167,28,0,35,0,0,2587,0,0,0,0,0,0,0,0,-4.602,1.226,0.000,0.000,-29.340,-1.023,0.000,0.000,0.000,0.000,0.000,0.000,
1.15,0,2159,27,0,57,0,0,2586,0,0,0,0,0,0,0,0,-4.602,1.226,0.000,0.000,-29.340,-1.023,0.000,0.000,0.000,0.000,0.000,0.000,
1.16,0,2176,46,0,113,0,0,2598,0,0,0,0,0,0,0,0,-4.602,1.226,0.000,0.000,-29.340,-1.023,0.000,0.000,0.000,0.000,0.000,0.000,
1.17,0,2185,4,0,81,0,0,2604,0,0,0,0,0,0,0,0,-4.602,1.226,0.000,0.000,-29.340,-1.023,0.000,0.000,0.000,0.000,0.000,0.000,
1.18,0,2203,73,0,0,0,0,2606,0,0,0,0,0,0,0,0,-4.602,1.226,0.000,0.000,-29.340,-1.023,0.000,0.000,0.000,0.000,0.000,0.000,
1.19,0,2215,20,0,80,0,0,2608,0,0,0,0,0,0,0,0,-4.602,1.226,0.000,0.000,-29.340,-1.023,0.000,0.000,0.000,0.000,0.000,0.000,
1.20,0,2235,62,0,89,0,0,2615,0,0,0,0,0,0,0,0,-4.602,1.226,0.000,0.000,-29.340,-1.023,0.000,0.000,0.000,0.000,0.000,0.000,
1.21,0,2258,48,0,48,0,0,2617,0,0,0,0,0,0,0,0,-4.602,1.226,0.000,0.000,-29.340,-1.023,0.000,0.000,0.000,0.000,0.000,0.000,
1.22,0,2255,73,0,96,0,0,2609,0,0,0,0,0,0,0,0,-4.602,1.226,0.000,0.000,-29.340,-1.023,0.000,0.000,0.000,0.000,0.000,0.000,
1.23,0,2246,79,0,108,0,0,2621,0,0,0,0,0,0,0,0,-4.602,1.226,0.000,0.000,-29.340,-1.023,0.000,0.000,0.000,0.000,0.000,0.000,
1.24,0,2255,45,0,104,0,0,2619,0,0,0,0,0,0,0,0,-4.602,1.226,0.000,0.000,-29.340,-1.023,0.000,0.000,0.000,0.000,0.000,0.000,
1.25,0,2255,49,0,127,0,0,2619,0,0,0,0,0,0,0,0,-4.602,1.226,0.000,0.000,-29.340,-1.023,0.000,0.000,0.000,0.000,0.000,0.000,
1.26,0,2262,61,0,96,0,0,2629,0,0,0,0,0,0,0,0,-4.602,1.226,0.000,0.000,-29.340,-1.023,0.000,0.000,0.000,0.000,0.000,0.000,
1.27,0,2256,64,0,130,0,0,2633,0,0,0,0,0,0,0,0,-4.602,1.226,0.000,0.000,-29.340,-1.023,0.000,0.000,0.000,0.000,0.000,0.000,
1.28,0,2253,64,0,117,0,0,2640,0,0,0,0,0,0,0,0,-4.602,1.226,0.000,0.000,-29.340,-1.023,0.000,0.000,0.000,0.000,0.000,0.000,
1.29,0,2258,105,0,144,0,0,2637,0,0,0,0,0,0,0,0,-4.602,1.226,0.000,0.000,-29.340,-1.023,0.000,0.000,0.000,0.000,0.000,0.000,
1.30,0,2256,91,0,145,0,0,2617,0,0,0,0,0,0,0,0,-4.602,1.226,0.000,0.000,-29.340,-1.023,0.000,0.000,0.000,0.000,0.000,0.000,
1.31,0,2271,92,0,87,0,0,2641,0,0,0,0,0,0,0,0,-4.602,1.226,0.000,0.000,-29.340,-1.023,0.000,0.000,0.000,0.000,0.000,0.000,
1.32,0,2286,80,0,112,0,0,2641,0,0,0,0,0,0,0,0,-4.602,1.226,0.000,0.000,-29.340,-1.023,0.000,0.000,0.000,0.000,0.000,0.000,
1.33,0,2340,96,0,78,0,0,2713,0,0,0,0,0,0,0,0,-4.602,1.226,0.000,0.000,-29.340,-1.023,0.000,0.000,0.000,0.000,0.000,0.000,
1.34,0,2327,112,0,103,0,0,2701,0,0,0,0,0,0,0,0,-4.602,1.226,0.000,0.000,-29.340,-1.023,0.000,0.000,0.000,0.000,0.000,0.000,
1.35,0,2327,98,0,114,0,0,2688,0,0,0,0,0,0,0,0,-4.602,1.226,0.000,0.000,-29.340,-1.023,0.000,0.000,0.000,0.000,0.000,0.000,
1.36,0,2338,89,0,80,0,0,2690,0,0,0,0,0,0,0,0,-4.602,1.226,0.000,0.000,-29.340,-1.023,0.000,0.000,0.000,0.000,0.000,0.000,
1.37,0,2357,86,0,34,0,0,2695,0,0,0,0,0,0,0,0,-4.602,1.226,0.000,0.000,-29.340,-1.023,0.000,0.000,0.000,0.000,0.000,0.000,
1.38,0,2363,43,0,54,0,0,2701,0,0,0,0,0,0,0,0,-4.602,1.226,0.000,0.000,-29.340,-1.023,0.000,0.000,0.000,0.000,0.000,0.000,
1.39,0,2379,81,0,42,0,0,2690,0,0,0,0,0,0,0,0,-4.602,1.226,0.000,0.000,-29.340,-1.023,0.000,0.000,0.000,0.000,0.000,0.000,
1.40,0,2363,101,0,41,0,0,2691,0,0,0,0,0,0,0,0,-4.602,1.226,0.000,0.000,-29.340,-1.023,0.000,0.000,0.000,0.000,0.000,0.000,
1.41,0,2358,67,0,18,0,0,2687,0,0,0,0,0,0,0,0,-4.602,1.226,0.000,0.000,-29.340,-1.023,0.000,0.000,0.000,0.000,0.000,0.000,
1.42,0,2367,93,0,62,0,0,2693,0,0,0,0,0,0,0,0,-4.602,1.226,0.000,0.000,-29.340,-1.023,0.000,0.000,0.000,0.000,0.000,0.000,
1.43,0,2367,91,0,80,0,0,2693,0,0,0,0,0,0,0,0,-4.602,1.226,0.000,0.000,-29.340,-1.023,0.000,0.000,0.000,0.000,0.000,0.000,
1.44,0,2369,95,0,66,0,0,2701,0,0,0,0,0,0,0,0,-4.602,1.226,0.000,0.000,-29.340,-1.023,0.000,0.000,0.000,0.000,0.000,0.000,
1.45,0,2374,112,0,60,0,0,2703,0,0,0,0,0,0,0,0,-4.602,1.226,0.000,0.000,-29.340,-1.023,0.000,0.000,0.000,0.000,0.000,0.000,
1.46,0,2349,107,0,89,0,0,2687,0,0,0,0,0,0,0,0,-4.602,1.226,0.000,0.000,-29.340,-1.023,0.000,0.000,0.000,0.000,0.000,0.000,
1.47,0,2371,112,0,106,0,0,2707,0,0,0,0,0,0,0,0,-4.602,1.226,0.000,0.000,-29.340,-1.023,0.000,0.000,0.000,0.000,0.000,0.000,
1.48,0,2381,102,0,102,0,0,2710,0,0,0,0,0,0,0,0,-4.602,1.226,0.000,0.000,-29.340,-1.023,0.000,0.000,0.000,0.000,0.000,0.000,
1.49,0,2354,112,0,75,0,0,2673,0,0,0,0,0,0,0,0,-4.602,1.226,0.000,0.000,-29.340,-1.023,0.000,0.000,0.000,0.000,0.000,0.000,
1.50,0,2375,128,0,95,0,0,2695,0,0,0,0,0,0,0,0,-4.602,1.226,0.000,0.000,-29.340,-1.023,0.000,0.000,0.000,0.000,0.000,0.000,
1.51,0,2385,127,0,134,0,0,2704,0,0,0,0,0,0,0,0,-4.602,1.226,0.000,0.000,-29.340,-1.023,0.000,0.000,0.000,0.000,0.000,0.000,
1.52,0,2342,140,0,66,0,0,2629,0,0,0,0,0,0,0,0,-4.602,1.226,0.000,0.000,-29.340,-1.023,0.000,0.000,0.000,0.000,0.000,0.000,
1.53,0,2410,166,0,114,0,0,2688,0,0,0,0,0,0,0,0,-4.602,1.226,0.000,0.000,-29.340,-1.023,0.000,0.000,0.000,0.000,0.000,0.000,
1.54,0,2397,154,0,64,0,0,2674,0,0,0,0,0,0,0,0,-4.602,1.226,0.000,0.000,-29.340,-1.023,0.000,0.000,0.000,0.000,0.000,0.000,
1.55,0,2400,123,0,57,0,0,2658,0,0,0,0,0,0,0,0,-4.602,1.226,0.000,0.000,-29.340,-1.023,0.000,0.000,0.000,0.000,0.000,0.000,
1.56,0,2418,155,0,102,0,0,2655,0,0,0,0,0,0,0,0,-4.602,1.226,0.000,0.000,-29.340,-1.023,0.000,0.000,0.000,0.000,0.000,0.000,
1.57,0,2416,117,0,95,0,0,2635,0,0,0,0,0,0,0,0,-4.602,1.226,0.000,0.000,-29.340,-1.023,0.000,0.000,0.000,0.000,0.000,0.000,
1.58,0,2412,109,0,73,0,0,2634,0,0,0,0,0,0,0,0,-4.602,1.226,0.000,0.000,-29.340,-1.023,0.000,0.000,0.000,0.000,0.000,0.000,
1.59,0,2400,33,0,65,0,0,2629,0,0,0,0,0,0,0,0,-4.602,1.226,0.000,0.000,-29.340,-1.023,0.000,0.000,0.000,0.000,0.000,0.000,
1.60,0,2416,59,0,90,0,0,2635,0,0,0,0,0,0,0,0,-4.602,1.226,0.000,0.000,-29.340,-1.023,0.000,0.000,0.000,0.000,0.000,0.000,
1.61,0,2416,65,0,94,0,0,2634,0,0,0,0,0,0,0,0,-4.602,1.226,0.000,0.000,-29.340,-1.023,0.000,0.000,0.000,0.000,0.000,0.000,
1.62,0,2413,80,0,107,0,0,2635,0,0,0,0,0,0,0,0,-4.602,1.226,0.000,0.000,-29.340,-1.023,0.000,0.000,0.000,0.000,0.000,0.000,
1.63,0,2479,64,0,13,0,0,2651,0,0,0,0,0,0,0,0,-4.602,1.226,0.000,0.000,-29.340,-1.023,0.000,0.000,0.000,0.000,0.000,0.000,
1.64,0,2494,105,0,85,0,0,2655,0,0,0,0,0,0,0,0,0.000,1.226,0.000,0.000,-29.340,-1.023,0.000,0.000,0.000,0.000,0.000,0.000,
1.65,0,2466,102,0,20,0,0,2627,0,0,0,0,0,0,0,0,-4.602,1.226,0.000,0.000,-29.340,-1.023,0.000,0.000,0.000,0.000,0.000,0.000,
1.66,0,2449,76,0,18,0,0,2651,0,0,0,0,0,0,0,0,-4.602,1.226,0.000,0.000,-29.340,-1.023,0.000,0.000,0.000,0.000,0.000,0.000,
1.67,0,2379,0,0,58,0,0,2672,0,0,0,0,0,0,0,0,0.000,1.226,0.000,0.000,-29.340,-1.023,0.000,0.000,0.000,0.000,0.000,0.000,
1.68,0,2291,0,0,37,0,0,2672,0,0,0,0,0,0,0,0,-4.602,1.226,0.000,0.000,-29.340,-1.023,0.000,0.000,0.000,0.000,0.000,0.000,
1.69,0,2294,0,0,34,0,0,2673,0,0,0,0,0,0,0,0,-4.602,1.226,0.000,0.000,-29.340,-1.023,0.000,0.000,0.000,0.000,0.000,0.000,
1.70,0,2307,0,0,27,0,0,2689,0,0,0,0,0,0,0,0,-4.602,1.226,0.000,0.000,-29.340,-1.023,0.000,0.000,0.000,0.000,0.000,0.000,
1.71,0,2315,0,0,37,0,0,2689,0,0,0,0,0,0,0,0,-4.602,1.226,0.000,0.000,-29.340,-1.023,0.000,0.000,0.000,0.000,0.000,0.000,
1.72,0,2314,0,0,60,0,0,2687,0,0,0,0,0,0,0,0,-4.602,1.226,0.000,0.000,-29.340,-1.023,0.000,0.000,0.000,0.000,0.000,0.000,
1.73,0,2305,0,0,36,0,0,2685,0,0,0,0,0,0,0,0,-4.602,1.226,0.000,0.000,-29.340,-1.023,0.000,0.000,0.000,0.000,0.000,0.000,
1.74,0,2286,0,0,59,0,0,2682,0,0,0,0,0,0,0,0,-4.602,1.226,0.000,0.000,-29.340,-1.023,0.000,0.000,0.000,0.000,0.000,0.000,
1.75,0,2265,0,0,1,0,0,2657,0,0,0,0,0,0,0,0,-4.602,1.226,0.000,0.000,-29.340,-1.023,0.000,0.000,0.000,0.000,0.000,0.000,
1.76,0,2240,0,0,22,0,0,2643,0,0,0,0,0,0,0,0,-4.602,1.226,0.000,0.000,-29.340,-1.023,0.000,0.000,0.000,0.000,0.000,0.000,
1.77,0,2251,0,0,48,0,0,2672,0,0,0,0,0,0,0,0,-4.602,1.226,0.000,0.000,-29.340,-1.023,0.000,0.000,0.000,0.000,0.000,0.000,
1.78,0,2286,0,0,32,0,0,2702,0,0,0,0,0,0,0,0,-4.602,1.226,0.000,0.000,-29.340,-1.023,0.000,0.000,0.000,0.000,0.000,0.000,
1.79,0,2384,0,0,101,0,0,2727,0,0,0,0,0,0,0,0,-4.602,1.226,0.000,0.000,-29.340,-1.023,0.000,0.000,0.000,0.000,0.000,0.000,
1.80,0,2463,0,0,102,0,0,2737,0,0,0,0,0,0,0,0,-4.602,1.226,0.000,0.000,-29.340,-1.023,0.000,0.000,0.000,0.000,0.000,0.000,
1.81,0,2503,33,0,119,0,0,2745,0,0,0,0,0,0,0,0,-4.602,1.226,0.000,0.000,-29.340,-1.023,0.000,0.000,0.000,0.000,0.000,0.000,
1.82,0,2525,64,0,48,0,0,2765,0,0,0,0,0,0,0,0,-4.602,1.226,0.000,0.000,-29.340,-1.023,0.000,0.000,0.000,0.000,0.000,0.000,
1.83,0,2534,98,0,74,0,0,2775,0,0,0,0,0,0,0,0,-4.602,1.226,0.000,0.000,-29.340,-1.023,0.000,0.000,0.000,0.000,0.000,0.000,
1.84,0,2517,48,0,63,0,0,2775,0,0,0,0,0,0,0,0,-4.602,1.226,0.000,0.000,-29.340,-1.023,0.000,0.000,0.000,0.000,0.000,0.000,
1.85,0,2512,53,0,87,0,0,2781,0,0,0,0,0,0,0,0,-4.602,1.226,0.000,0.000,-29.340,-1.023,0.000,0.000,0.000,0.000,0.000,0.000,
1.86,0,2514,98,0,84,0,0,2786,0,0,0,0,0,0,0,0,-4.602,1.226,0.000,0.000,-29.340,-1.023,0.000,0.000,0.000,0.000,0.000,0.000,
1.87,0,2545,135,0,95,0,0,2811,0,0,0,0,0,0,0,0,-4.602,1.226,0.000,0.000,-29.340,-1.023,0.000,0.000,0.000,0.000,0.000,0.000,
1.88,0,2531,131,0,113,0,0,2801,0,0,0,0,0,0,0,0,-4.602,1.226,0.000,0.000,-29.340,-1.023,0.000,0.000,0.000,0.000,0.000,0.000,
1.89,0,2506,166,0,123,0,0,2763,0,0,0,0,0,0,0,0,-4.602,1.226,0.000,0.000,-29.340,-1.023,0.000,0.000,0.000,0.000,0.000,0.000,
1.90,0,2260,105,0,67,0,0,2502,0,0,0,0,0,0,0,0,-4.602,1.226,0.000,0.000,-29.340,-1.023,0.000,0.000,0.000,0.000,0.000,0.000,
1.91,0,2437,147,0,89,0,0,2683,0,0,0,0,0,0,0,0,-4.602,1.226,0.000,0.000,-29.340,-1.023,0.000,0.000,0.000,0.000,0.000,0.000,
1.92,0,2362,114,0,73,0,0,2613,0,0,0,0,0,0,0,0,-4.602,1.226,0.000,0.000,-29.340,-1.023,0.000,0.000,0.000,0.000,0.000,0.000,
1.93,0,2384,107,0,48,0,0,2625,0,0,0,0,0,0,0,0,-4.602,1.226,0.000,0.000,-29.340,-1.023,0.000,0.000,0.000,0.000,0.000,0.000,
1.94,0,2373,78,0,29,0,0,2617,0,0,0,0,0,0,0,0,-4.602,1.226,0.000,0.000,-29.340,-1.023,0.000,0.000,0.000,0.000,0.000,0.000,
1.95,0,2373,61,0,39,0,0,2625,0,0,0,0,0,0,0,0,-4.602,1.226,0.000,0.000,-29.340,-1.023,0.000,0.000,0.000,0.000,0.000,0.000,
1.96,0,2405,71,0,60,0,0,2653,0,0,0,0,0,0,0,0,-4.602,1.226,0.000,0.000,-29.340,-1.023,0.000,0.000,0.000,0.000,0.000,0.000,
1.97,0,2416,65,0,62,0,0,2667,0,0,0,0,0,0,0,0,-4.602,1.226,0.000,0.000,-29.340,-1.023,0.000,0.000,0.000,0.000,0.000,0.000,
1.98,0,2487,80,0,96,0,0,2741,0,0,0,0,0,0,0,0,-4.602,1.226,0.000,0.000,-29.340,-1.023,0.000,0.000,0.000,0.000,0.000,0.000,
1.99,0,2507,88,0,115,0,0,2752,0,0,0,0,0,0,0,0,-4.602,1.226,0.000,0.000,-29.340,-1.023,0.000,0.000,0.000,0.000,0.000,0.000,
2.00,0,2506,111,0,125,0,0,2757,0,0,0,0,0,0,0,0,-4.602,1.226,0.000,0.000,-29.340,-1.023,0.000,0.000,0.000,0.000,0.000,0.000,
2.01,0,2471,77,0,123,0,0,2702,0,0,0,0,0,0,0,0,-4.602,1.226,0.000,0.000,-29.340,-1.023,0.000,0.000,0.000,0.000,0.000,0.000,
2.02,0,2501,77,0,92,0,0,2716,0,0,0,0,0,0,0,0,-4.602,1.226,0.000,0.000,-29.340,-1.023,0.000,0.000,0.000,0.000,0.000,0.000,
2.03,0,2515,141,0,112,0,0,2751,0,0,0,0,0,0,0,0,-4.602,1.226,0.000,0.000,-29.340,-1.023,0.000,0.000,0.000,0.000,0.000,0.000,
2.04,0,2523,144,0,109,0,0,2752,0,0,0,0,0,0,0,0,-4.602,1.226,0.000,0.000,-29.340,-1.023,0.000,0.000,0.000,0.000,0.000,0.000,
2.05,0,2512,163,0,98,0,0,2742,0,0,0,0,0,0,0,0,-4.602,1.226,0.000,0.000,-29.340,-1.023,0.000,0.000,0.000,0.000,0.000,0.000,
2.06,0,2518,174,0,129,0,0,2753,0,0,0,0,0,0,0,0,-4.602,1.226,0.000,0.000,-29.340,-1.023,0.000,0.000,0.000,0.000,0.000,0.000,
2.07,0,2469,160,0,128,0,0,2693,0,0,0,0,0,0,0,0,-4.602,1.226,0.000,0.000,-29.340,-1.023,0.000,0.000,0.000,0.000,0.000,0.000,
2.08,0,2493,101,0,86,0,0,2733,0,0,0,0,0,0,0,0,-4.602,1.226,0.000,0.000,-29.340,-1.023,0.000,0.000,0.000,0.000,0.000,0.000,
2.09,0,2488,103,0,74,0,0,2733,0,0,0,0,0,0,0,0,-4.602,1.226,0.000,0.000,-29.340,-1.023,0.000,0.000,0.000,0.000,0.000,0.000,
2.10,0,2496,68,0,51,0,0,2739,0,0,0,0,0,0,0,0,-4.602,1.226,0.000,0.000,-29.340,-1.023,0.000,0.000,0.000,0.000,0.000,0.000,
2.11,0,2530,62,0,96,0,0,2757,0,0,0,0,0,0,0,0,-4.602,1.226,0.000,0.000,-29.340,-1.023,0.000,0.000,0.000,0.000,0.000,0.000,
2.12,0,2502,60,0,98,0,0,2755,0,0,0,0,0,0,0,0,-4.602,1.226,0.000,0.000,-29.340,-1.023,0.000,0.000,0.000,0.000,0.000,0.000,
2.13,0,2502,78,0,58,0,0,2757,0,0,0,0,0,0,0,0,-4.602,1.226,0.000,0.000,-29.340,-1.023,0.000,0.000,0.000,0.000,0.000,0.000,
2.14,0,2499,87,0,43,0,0,2762,0,0,0,0,0,0,0,0,-4.602,1.226,0.000,0.000,-29.340,-1.023,0.000,0.000,0.000,0.000,0.000,0.000,
2.15,0,2484,76,0,0,0,0,2766,0,0,0,0,0,0,0,0,-4.602,1.226,0.000,0.000,-29.340,-1.023,0.000,0.000,0.000,0.000,0.000,0.000,
2.16,0,2481,43,0,0,0,0,2768,0,0,0,0,0,0,0,0,-4.602,1.226,0.000,0.000,-29.340,-1.023,0.000,0.000,0.000,0.000,0.000,0.000,
2.17,0,2482,25,0,0,0,0,2768,0,0,0,0,0,0,0,0,-4.602,1.226,0.000,0.000,-29.340,-1.023,0.000,0.000,0.000,0.000,0.000,0.000,
2.18,0,2475,16,0,0,0,0,2763,0,0,0,0,0,0,0,0,-4.602,1.226,0.000,0.000,-29.340,-1.023,0.000,0.000,0.000,0.000,0.000,0.000,
2.19,0,2469,16,0,6,0,0,2762,0,0,0,0,0,0,0,0,-4.602,1.226,0.000,0.000,-29.340,-1.023,0.000,0.000,0.000,0.000,0.000,0.000,
2.20,0,2469,0,0,21,0,0,2765,0,0,0,0,0,0,0,0,-4.602,1.226,0.000,0.000,-29.340,-1.023,0.000,0.000,0.000,0.000,0.000,0.000,
2.21,0,2463,0,0,0,0,0,2763,0,0,0,0,0,0,0,0,-4.602,1.226,0.000,0.000,-29.340,-1.023,0.000,0.000,0.000,0.000,0.000,0.000,
2.22,0,2410,0,0,0,0,0,2727,0,0,0,0,0,0,0,0,-4.602,1.226,0.000,0.000,-29.340,-1.023,0.000,0.000,0.000,0.000,0.000,0.000,
2.23,0,2390,0,0,29,0,0,2719,0,0,0,0,0,0,0,0,-4.602,1.226,0.000,0.000,-29.340,-1.023,0.000,0.000,0.000,0.000,0.000,0.000,
2.24,0,2392,0,0,53,0,0,2726,0,0,0,0,0,0,0,0,-4.602,1.226,0.000,0.000,-29.340,-1.023,0.000,0.000,0.000,0.000,0.000,0.000,
2.25,0,2411,0,0,77,0,0,2731,0,0,0,0,0,0,0,0,-4.602,1.226,0.000,0.000,-29.340,-1.023,0.000,0.000,0.000,0.000,0.000,0.000,
2.26,0,2454,0,0,115,0,0,2733,0,0,0,0,0,0,0,0,-4.602,1.226,0.000,0.000,-29.340,-1.023,0.000,0.000,0.000,0.000,0.000,0.000,
2.27,0,2497,37,0,164,0,0,2739,0,0,0,0,0,0,0,0,-4.602,1.226,0.000,0.000,-29.340,-1.023,0.000,0.000,0.000,0.000,0.000,0.000,
2.28,0,2517,80,0,75,0,0,2737,0,0,0,0,0,0,0,0,-4.602,1.226,0.000,0.000,-29.340,-1.023,0.000,0.000,0.000,0.000,0.000,0.000,
2.29,0,2514,123,0,65,0,0,2747,0,0,0,0,0,0,0,0,-4.602,1.226,0.000,0.000,-29.340,-1.023,0.000,0.000,0.000,0.000,0.000,0.000,
2.30,0,2525,144,0,73,0,0,2749,0,0,0,0,0,0,0,0,-4.602,1.226,0.000,0.000,-29.340,-1.023,0.000,0.000,0.000,0.000,0.000,0.000,
2.31,0,2541,166,0,0,0,0,2739,0,0,0,0,0,0,0,0,-4.602,1.226,0.000,0.000,-29.340,-1.023,0.000,0.000,0.000,0.000,0.000,0.000,
2.32,0,2559,193,48,73,0,0,2736,0,0,0,0,0,0,0,0,-4.602,1.226,0.000,0.000,-29.340,-1.023,0.000,0.000,0.000,0.000,0.000,0.000,
2.33,0,2693,395,61,42,0,0,2835,0,0,0,0,0,0,0,0,-4.602,1.226,0.000,0.000,-29.340,-1.023,0.000,0.000,0.000,0.000,0.000,0.000,
2.34,0,2704,528,176,49,0,0,2810,0,0,0,0,0,0,0,0,-4.602,1.226,0.000,0.000,-29.340,-1.023,0.000,0.000,0.000,0.000,0.000,0.000,
2.35,0,2622,451,130,0,0,0,2727,0,0,0,0,0,0,0,0,-4.602,1.226,0.000,0.000,-29.340,-1.023,0.000,0.000,0.000,0.000,0.000,0.000,
2.36,0,2583,436,144,15,0,1,2718,0,0,0,0,0,0,0,0,-4.602,1.226,0.000,0.000,-29.340,-1.023,0.000,0.000,0.000,0.000,0.000,0.000,
2.37,0,2559,386,112,29,0,3,2705,0,0,0,0,0,0,0,0,-4.602,1.226,0.000,0.000,-29.340,-1.023,0.000,0.000,0.000,0.000,0.000,0.000,
2.38,0,2598,363,112,44,0,2,2720,0,0,0,0,0,0,0,0,-4.602,1.226,0.000,0.000,-29.340,-1.023,0.000,0.000,0.000,0.000,0.000,0.000,
2.39,0,2619,377,99,19,0,0,2756,0,0,0,0,0,0,0,0,-4.602,1.226,0.000,0.000,-29.340,-1.023,0.000,0.000,0.000,0.000,0.000,0.000,
2.40,0,2638,391,114,26,0,0,2782,0,0,0,0,0,0,0,0,-4.602,1.226,0.000,0.000,-29.340,-1.023,0.000,0.000,0.000,0.000,0.000,0.000,
2.41,0,2663,381,112,17,0,0,2795,0,0,0,0,0,0,0,0,-4.602,1.226,0.000,0.000,-29.340,-1.023,0.000,0.000,0.000,0.000,0.000,0.000,
2.42,0,2669,374,138,26,0,0,2793,0,0,0,0,0,0,0,0,-4.602,1.226,0.000,0.000,-29.340,-1.023,0.000,0.000,0.000,0.000,0.000,0.000,
2.43,0,2659,382,143,41,0,0,2797,0,0,0,0,0,0,0,0,-4.602,1.226,0.000,0.000,-29.340,-1.023,0.000,0.000,0.000,0.000,0.000,0.000,
2.44,0,2660,367,129,58,0,0,2799,0,0,0,0,0,0,0,0,-4.602,1.226,0.000,0.000,-29.340,-1.023,0.000,0.000,0.000,0.000,0.000,0.000,
2.45,0,2669,374,128,27,0,0,2800,0,0,0,0,0,0,0,0,-4.602,1.226,0.000,0.000,-29.340,-1.023,0.000,0.000,0.000,0.000,0.000,0.000,
2.46,0,2682,369,124,18,0,12,2803,0,0,0,0,0,0,0,0,-4.602,1.226,0.000,0.000,-29.340,-1.023,0.000,0.000,0.000,0.000,0.000,0.000,
2.47,0,2645,374,114,47,0,19,2755,0,0,0,0,0,0,0,0,-4.602,1.226,0.000,0.000,-29.340,-1.023,0.000,0.000,0.000,0.000,0.000,0.000,
2.48,0,2678,369,138,84,0,16,2797,0,0,0,0,0,0,0,0,-4.602,1.226,0.000,0.000,-29.340,-1.023,0.000,0.000,0.000,0.000,0.000,0.000,
2.49,0,2663,340,144,94,0,15,2783,0,0,0,0,0,0,0,0,-4.602,1.226,0.000,0.000,-29.340,-1.023,0.000,0.000,0.000,0.000,0.000,0.000,
2.50,0,2655,319,110,75,0,0,2781,0,0,0,0,0,0,0,0,-4.602,1.226,0.000,0.000,-29.340,-1.023,0.000,0.000,0.000,0.000,0.000,0.000,
2.51,0,2623,298,64,82,0,0,2770,0,0,0,0,0,0,0,0,-4.602,1.226,0.000,0.000,-29.340,-1.023,0.000,0.000,0.000,0.000,0.000,0.000,
2.52,0,2625,214,0,48,0,0,2811,0,0,0,0,0,0,0,0,-4.602,1.226,0.000,0.000,-29.340,-1.023,0.000,0.000,0.000,0.000,0.000,0.000,
2.53,0,2559,97,0,0,0,0,2806,0,0,0,0,0,0,0,0,-4.602,1.226,0.000,0.000,-29.340,-1.023,0.000,0.000,0.000,0.000,0.000,0.000,
2.54,0,2522,32,0,0,0,0,2804,0,0,0,0,0,0,0,0,-4.602,1.226,0.000,0.000,-29.340,-1.023,0.000,0.000,0.000,0.000,0.000,0.000,
2.55,0,2448,13,0,0,0,0,2805,0,0,0,0,0,0,0,0,-4.602,1.226,0.000,0.000,-29.340,-1.023,0.000,0.000,0.000,0.000,0.000,0.000,
2.56,0,2413,0,0,0,0,0,2805,0,0,0,0,0,0,0,0,-4.602,1.226,0.000,0.000,-29.340,-1.023,0.000,0.000,0.000,0.000,0.000,0.000,
2.57,0,2413,0,0,0,0,0,2812,0,0,0,0,0,0,0,0,-4.602,1.226,0.000,0.000,-29.340,-1.023,0.000,0.000,0.000,0.000,0.000,0.000,
2.58,0,2416,0,0,0,0,0,2809,0,0,0,0,0,0,0,0,-4.602,1.226,0.000,0.000,-29.340,-1.023,0.000,0.000,0.000,0.000,0.000,0.000,
2.59,0,2429,0,0,0,0,0,2793,0,0,0,0,0,0,0,0,-4.602,1.226,0.000,0.000,-29.340,-1.023,0.000,0.000,0.000,0.000,0.000,0.000,
2.60,0,2447,0,0,7,0,0,2782,0,0,0,0,0,0,0,0,-4.602,1.226,0.000,0.000,-29.340,-1.023,0.000,0.000,0.000,0.000,0.000,0.000,
2.61,0,2460,0,0,0,0,0,2726,0,0,0,0,0,0,0,0,-4.602,1.226,0.000,0.000,-29.340,-1.023,0.000,0.000,0.000,0.000,0.000,0.000,
2.62,0,2506,5,0,0,0,0,2802,0,0,0,0,0,0,0,0,-4.602,1.226,0.000,0.000,-29.340,-1.023,0.000,0.000,0.000,0.000,0.000,0.000,
2.63,0,2513,16,0,0,0,0,2804,0,0,0,0,0,0,0,0,-4.602,1.226,0.000,0.000,-29.340,-1.023,0.000,0.000,0.000,0.000,0.000,0.000,
2.64,0,2522,23,0,4,0,0,2801,0,0,0,0,0,0,0,0,-4.602,1.226,0.000,0.000,-29.340,-1.023,0.000,0.000,0.000,0.000,0.000,0.000,
2.65,0,2530,35,0,37,0,0,2801,0,0,0,0,0,0,0,0,-4.602,1.226,0.000,0.000,-29.340,-1.023,0.000,0.000,0.000,0.000,0.000,0.000,
2.66,0,2522,49,0,48,0,0,2786,0,0,0,0,0,0,0,0,-4.602,1.226,0.000,0.000,-29.340,-1.023,0.000,0.000,0.000,0.000,0.000,0.000,
2.67,0,2523,64,0,26,0,0,2768,0,0,0,0,0,0,0,0,-4.602,1.226,0.000,0.000,-29.340,-1.023,0.000,0.000,0.000,0.000,0.000,0.000,
2.68,0,2545,69,0,16,0,0,2798,0,0,0,0,0,0,0,0,-4.602,1.226,0.000,0.000,-29.340,-1.023,0.000,0.000,0.000,0.000,0.000,0.000,
2.69,0,2556,69,0,12,0,0,2797,0,0,0,0,0,0,0,0,-4.602,1.226,0.000,0.000,-29.340,-1.023,0.000,0.000,0.000,0.000,0.000,0.000,
2.70,0,2538,76,0,27,0,0,2774,0,0,0,0,0,0,0,0,-4.602,1.226,0.000,0.000,-29.340,-1.023,0.000,0.000,0.000,0.000,0.000,0.000,
2.71,0,2540,92,0,37,0,0,2768,0,0,0,0,0,0,0,0,-4.602,1.226,0.000,0.000,-29.340,-1.023,0.000,0.000,0.000,0.000,0.000,0.000,
2.72,0,2543,113,0,34,0,0,2770,0,0,0,0,0,0,0,0,-4.602,1.226,0.000,0.000,-29.340,-1.023,0.000,0.000,0.000,0.000,0.000,0.000,
2.73,0,2551,123,0,47,0,0,2778,0,0,0,0,0,0,0,0,-4.602,1.226,0.000,0.000,-29.340,-1.023,0.000,0.000,0.000,0.000,0.000,0.000,
2.74,0,2544,135,0,64,0,0,2773,0,0,0,0,0,0,0,0,-4.602,1.226,0.000,0.000,-29.340,-1.023,0.000,0.000,0.000,0.000,0.000,0.000,
2.75,0,2513,114,0,16,0,0,2775,0,0,0,0,0,0,0,0,-4.602,1.226,0.000,0.000,-29.340,-1.023,0.000,0.000,0.000,0.000,0.000,0.000,
2.76,0,2514,112,0,37,0,0,2789,0,0,0,0,0,0,0,0,-4.602,1.226,0.000,0.000,-29.340,-1.023,0.000,0.000,0.000,0.000,0.000,0.000,
2.77,0,2517,121,0,45,0,0,2793,0,0,0,0,0,0,0,0,-4.602,1.226,0.000,0.000,-29.340,-1.023,0.000,0.000,0.000,0.000,0.000,0.000,
2.78,0,2512,79,0,16,0,0,2765,0,0,0,0,0,0,0,0,-4.602,1.226,0.000,0.000,-29.340,-1.023,0.000,0.000,0.000,0.000,0.000,0.000,
2.79,0,2509,43,0,15,0,0,2786,0,0,0,0,0,0,0,0,-4.602,1.226,0.000,0.000,-29.340,-1.023,0.000,0.000,0.000,0.000,0.000,0.000,
2.80,0,2483,0,0,33,0,0,2782,0,0,0,0,0,0,0,0,-4.602,1.226,0.000,0.000,-29.340,-1.023,0.000,0.000,0.000,0.000,0.000,0.000,
2.81,0,2437,0,0,18,0,0,2781,0,0,0,0,0,0,0,0,-4.602,1.226,0.000,0.000,-29.340,-1.023,0.000,0.000,0.000,0.000,0.000,0.000,
2.82,0,2370,0,0,0,0,0,2769,0,0,0,0,0,0,0,0,-4.602,1.226,0.000,0.000,-29.340,-1.023,0.000,0.000,0.000,0.000,0.000,0.000,
2.83,0,2374,0,0,0,0,0,2778,0,0,0,0,0,0,0,0,-4.602,1.226,0.000,0.000,-29.340,-1.023,0.000,0.000,0.000,0.000,0.000,0.000,
2.84,0,2375,0,0,0,0,0,2795,0,0,0,0,0,0,0,0,-4.602,1.226,0.000,0.000,-29.340,-1.023,0.000,0.000,0.000,0.000,0.000,0.000,
2.85,0,2405,0,0,19,0,0,2794,0,0,0,0,0,0,0,0,-4.602,1.226,0.000,0.000,-29.340,-1.023,0.000,0.000,0.000,0.000,0.000,0.000,
2.86,0,2414,0,0,48,0,0,2815,0,0,0,0,0,0,0,0,-4.602,1.226,0.000,0.000,-29.340,-1.023,0.000,0.000,0.000,0.000,0.000,0.000,
2.87,0,2401,0,0,0,0,0,2797,0,0,0,0,0,0,0,0,-4.602,1.226,0.000,0.000,-29.340,-1.023,0.000,0.000,0.000,0.000,0.000,0.000,
2.88,0,2417,0,0,80,0,0,2795,0,0,0,0,0,0,0,0,-4.602,1.226,0.000,0.000,-29.340,-1.023,0.000,0.000,0.000,0.000,0.000,0.000,
2.89,0,2427,0,0,73,0,0,2793,0,0,0,0,0,0,0,0,-4.602,1.226,0.000,0.000,-29.340,-1.023,0.000,0.000,0.000,0.000,0.000,0.000,
2.90,0,2437,0,0,80,0,0,2790,0,0,0,0,0,0,0,0,-4.602,1.226,0.000,0.000,-29.340,-1.023,0.000,0.000,0.000,0.000,0.000,0.000,
2.91,0,2439,0,0,86,0,0,2784,0,0,0,0,0,0,0,0,-4.602,1.226,0.000,0.000,-29.340,-1.023,0.000,0.000,0.000,0.000,0.000,0.000,
2.92,0,2439,0,0,96,0,0,2775,0,0,0,0,0,0,0,0,-4.602,1.226,0.000,0.000,-29.340,-1.023,0.000,0.000,0.000,0.000,0.000,0.000,
2.93,0,2442,0,0,80,0,0,2752,0,0,0,0,0,0,0,0,-4.602,1.226,0.000,0.000,-29.340,-1.023,0.000,0.000,0.000,0.000,0.000,0.000,
2.94,0,2386,0,0,53,0,0,2642,0,0,0,0,0,0,0,0,-4.602,1.226,0.000,0.000,-29.340,-1.023,0.000,0.000,0.000,0.000,0.000,0.000,
2.95,0,2505,62,0,0,0,0,2758,0,0,0,0,0,0,0,0,-4.602,1.226,0.000,0.000,-29.340,-1.023,0.000,0.000,0.000,0.000,0.000,0.000,
2.96,0,2505,48,0,74,0,0,2773,0,0,0,0,0,0,0,0,-4.602,1.226,0.000,0.000,-29.340,-1.023,0.000,0.000,0.000,0.000,0.000,0.000,
2.97,0,2479,38,0,22,0,0,2751,0,0,0,0,0,0,0,0,-4.602,1.226,0.000,0.000,-29.340,-1.023,0.000,0.000,0.000,0.000,0.000,0.000,
2.98,0,2477,52,0,101,0,0,2736,0,0,0,0,0,0,0,0,-4.602,1.226,0.000,0.000,-29.340,-1.023,0.000,0.000,0.000,0.000,0.000,0.000,
2.99,0,2485,53,0,110,0,0,2734,0,0,0,0,0,0,0,0,-4.602,1.226,0.000,0.000,-29.340,-1.023,0.000,0.000,0.000,0.000,0.000,0.000,
3.00,0,2497,65,0,37,0,0,2734,0,0,0,0,0,0,0,0,-4.602,1.226,0.000,0.000,-29.340,-1.023,0.000,0.000,0.000,0.000,0.000,0.000,
3.01,0,2498,80,0,34,0,0,2738,0,0,0,0,0,0,0,0,-4.602,1.226,0.000,0.000,-29.340,-1.023,0.000,0.000,0.000,0.000,0.000,0.000,
3.02,0,2506,86,0,74,0,0,2736,0,0,0,0,0,0,0,0,-4.602,1.226,0.000,0.000,-29.340,-1.023,0.000,0.000,0.000,0.000,0.000,0.000,
3.03,0,2483,80,0,75,0,0,2726,0,0,0,0,0,0,0,0,-4.602,1.226,0.000,0.000,-29.340,-1.023,0.000,0.000,0.000,0.000,0.000,0.000,
3.04,0,2510,30,0,64,0,0,2763,0,0,0,0,0,0,0,0,-4.602,1.226,0.000,0.000,-29.340,-1.023,0.000,0.000,0.000,0.000,0.000,0.000,
3.05,0,2522,12,0,35,0,0,2768,0,0,0,0,0,0,0,0,-0.575,0.153,0.000,0.000,-3.673,-0.128,0.000,0.000,0.000,0.000,0.000,0.000,
3.06,0,2512,43,0,65,0,0,2753,0,0,0,0,0,0,0,0,1.080,1.894,9.550,-0.125,0.098,-0.108,0.000,0.000,0.000,0.000,0.000,0.000,
3.07,0,2514,48,0,57,0,0,2754,0,0,0,0,0,0,0,0,1.159,1.870,9.459,0.153,-0.309,-0.079,0.000,0.000,0.000,0.000,0.000,0.000,
3.08,0,2518,45,0,59,0,0,2754,0,0,0,0,0,0,0,0,1.537,2.071,9.584,0.324,-0.658,-0.133,0.000,0.000,0.000,0.000,0.000,0.000,
3.09,0,2515,33,0,62,0,0,2759,0,0,0,0,0,0,0,0,-0.575,0.153,0.000,0.000,-3.673,-0.128,0.000,0.000,0.000,0.000,0.000,0.000,
3.10,0,2528,42,0,49,0,0,2770,0,0,0,0,0,0,0,0,2.200,2.907,9.924,0.047,0.075,-0.075,0.000,0.000,0.000,0.000,0.000,0.000,
3.11,0,2541,29,0,48,0,0,2774,0,0,0,0,0,0,0,0,1.681,2.476,9.809,-0.029,-0.035,-0.179,0.000,0.000,0.000,0.000,0.000,0.000,
3.12,0,2531,40,0,44,0,0,2768,0,0,0,0,0,0,0,0,1.731,1.973,9.555,0.108,-0.069,-0.041,0.000,0.000,0.000,0.000,0.000,0.000,
3.13,0,2535,111,0,47,0,0,2768,0,0,0,0,0,0,0,0,1.779,2.234,9.646,0.147,0.029,0.044,0.000,0.000,0.000,0.000,0.000,0.000,
3.14,0,2535,64,0,58,0,0,2769,0,0,0,0,0,0,0,0,1.573,2.363,9.708,0.217,0.053,0.106,0.000,0.000,0.000,0.000,0.000,0.000,
3.15,0,2512,33,0,50,0,0,2759,0,0,0,0,0,0,0,0,1.525,2.397,9.783,0.081,-0.002,0.073,0.000,0.000,0.000,0.000,0.000,0.000,
3.16,0,2537,54,0,62,0,0,2768,0,0,0,0,0,0,0,0,1.496,2.327,9.685,-0.042,-0.116,-0.055,0.000,0.000,0.000,0.000,0.000,0.000,
3.17,0,2538,58,0,65,0,0,2768,0,0,0,0,0,0,0,0,1.784,2.205,9.527,-0.115,0.042,-0.060,0.000,0.000,0.000,0.000,0.000,0.000,
3.18,0,2494,80,0,51,0,0,2746,0,0,0,0,0,0,0,0,1.805,2.138,9.512,-0.127,0.074,-0.050,0.000,0.000,0.000,0.000,0.000,0.000,
3.19,0,2541,72,0,67,0,0,2768,0,0,0,0,0,0,0,0,1.674,1.990,9.464,-0.065,0.230,0.020,0.000,0.000,0.000,0.000,0.000,0.000,
3.20,0,2541,60,0,70,0,0,2768,0,0,0,0,0,0,0,0,1.185,1.908,9.644,0.023,0.395,0.126,0.000,0.000,0.000,0.000,0.000,0.000,
3.21,0,2533,54,0,99,0,0,2767,0,0,0,0,0,0,0,0,1.235,1.935,9.787,0.105,0.467,0.296,0.000,0.000,0.000,0.000,0.000,0.000,
3.22,0,2542,55,0,67,0,0,2765,0,0,0,0,0,0,0,0,1.341,2.241,9.665,0.071,0.203,0.190,0.000,0.000,0.000,0.000,0.000,0.000,
3.23,0,2545,68,0,58,0,0,2767,0,0,0,0,0,0,0,0,1.120,2.078,9.828,-0.020,0.105,0.011,0.000,0.000,0.000,0.000,0.000,0.000,
3.24,0,2544,75,0,66,0,0,2768,0,0,0,0,0,0,0,0,1.623,2.095,9.687,-0.019,0.150,0.011,0.000,0.000,0.000,0.000,0.000,0.000,
3.25,0,2544,96,0,60,0,0,2768,0,0,0,0,0,0,0,0,1.702,2.174,9.613,0.012,0.361,0.101,0.000,0.000,0.000,0.000,0.000,0.000,
3.26,0,2549,87,0,57,0,0,2771,0,0,0,0,0,0,0,0,1.049,2.107,9.663,-0.020,0.478,0.146,0.000,0.000,0.000,0.000,0.000,0.000,
3.27,0,2545,49,0,35,0,0,2768,0,0,0,0,0,0,0,0,1.238,2.239,9.682,-0.187,0.376,-0.094,0.000,0.000,0.000,0.000,0.000,0.000,
3.28,0,2520,78,0,24,0,0,2745,0,0,0,0,0,0,0,0,1.171,1.884,9.618,-0.054,0.188,-0.132,0.000,0.000,0.000,0.000,0.000,0.000,
3.29,0,2527,66,0,19,0,0,2752,0,0,0,0,0,0,0,0,1.702,2.169,9.826,-0.037,0.290,-0.104,0.000,0.000,0.000,0.000,0.000,0.000,
3.30,0,2523,64,0,38,0,0,2749,0,0,0,0,0,0,0,0,1.314,1.915,9.716,-0.048,0.475,-0.033,0.000,0.000,0.000,0.000,0.000,0.000,
3.31,0,2522,68,0,46,0,0,2751,0,0,0,0,0,0,0,0,1.264,1.949,9.637,-0.038,0.716,0.035,0.000,0.000,0.000,0.000,0.000,0.000,
3.32,0,2523,80,0,64,0,0,2753,0,0,0,0,0,0,0,0,1.132,1.994,9.673,0.025,0.778,0.122,0.000,0.000,0.000,0.000,0.000,0.000,
3.33,0,2521,94,0,62,0,0,2754,0,0,0,0,0,0,0,0,0.891,1.963,9.641,0.066,0.594,0.055,0.000,0.000,0.000,0.000,0.000,0.000,
3.34,0,2525,71,0,52,0,0,2761,0,0,0,0,0,0,0,0,0.838,2.061,9.754,0.134,0.339,-0.040,0.000,0.000,0.000,0.000,0.000,0.000,
3.35,0,2526,76,0,66,0,0,2763,0,0,0,0,0,0,0,0,1.056,2.040,9.594,0.141,0.271,-0.081,0.000,0.000,0.000,0.000,0.000,0.000,
3.36,0,2531,95,0,57,0,0,2763,0,0,0,0,0,0,0,0,0.972,2.126,9.833,0.154,0.374,-0.029,0.000,0.000,0.000,0.000,0.000,0.000,
3.37,0,2521,61,0,77,0,0,2761,0,0,0,0,0,0,0,0,0.991,2.193,9.792,0.010,0.626,-0.039,0.000,0.000,0.000,0.000,0.000,0.000,
3.38,0,2446,63,0,34,0,0,2650,0,0,0,0,0,0,0,0,0.678,2.234,9.625,-0.169,0.913,-0.209,0.000,0.000,0.000,0.000,0.000,0.000,
3.39,0,2512,74,0,55,0,0,2768,0,0,0,0,0,0,0,0,19.345,6.088,14.657,-0.467,1.302,-0.767,0.000,0.000,0.000,0.000,0.000,0.000,
3.40,0,2527,113,0,62,0,0,2755,0,0,0,0,0,0,0,0,-1.939,1.530,9.591,-0.559,0.836,-0.883,0.000,0.000,0.000,0.000,0.000,0.000,
3.41,0,2544,121,0,47,0,0,2770,0,0,0,0,0,0,0,0,0.407,1.650,9.646,-0.778,1.138,-0.397,0.000,0.000,0.000,0.000,0.000,0.000,
3.42,0,2525,66,0,38,0,0,2765,0,0,0,0,0,0,0,0,0.227,1.762,9.981,-0.426,1.007,-0.051,0.000,0.000,0.000,0.000,0.000,0.000,
3.43,0,2540,80,0,25,0,0,2779,0,0,0,0,0,0,0,0,-0.472,1.630,9.634,-0.129,0.843,0.014,0.000,0.000,0.000,0.000,0.000,0.000,
3.44,0,2541,80,0,34,0,0,2782,0,0,0,0,0,0,0,0,-0.206,1.501,9.646,0.166,0.604,0.060,0.000,0.000,0.000,0.000,0.000,0.000,
3.45,0,2537,94,0,48,0,0,2771,0,0,0,0,0,0,0,0,-0.292,1.695,9.850,0.358,0.383,0.163,0.000,0.000,0.000,0.000,0.000,0.000,
3.46,0,2482,79,0,53,0,0,2733,0,0,0,0,0,0,0,0,-0.215,1.846,9.881,0.327,0.257,0.141,0.000,0.000,0.000,0.000,0.000,0.000,
3.47,0,2544,77,0,58,0,0,2782,0,0,0,0,0,0,0,0,-0.055,1.899,10.084,0.144,0.374,0.074,0.000,0.000,0.000,0.000,0.000,0.000,
3.48,0,2544,64,0,10,0,0,2778,0,0,0,0,0,0,0,0,-0.433,1.978,9.857,0.020,0.429,-0.004,0.000,0.000,0.000,0.000,0.000,0.000,
3.49,0,2544,27,0,5,0,0,2778,0,0,0,0,0,0,0,0,-0.802,1.772,9.706,-0.035,0.189,-0.254,0.000,0.000,0.000,0.000,0.000,0.000,
3.50,0,2542,52,0,16,0,0,2782,0,0,0,0,0,0,0,0,-0.474,1.678,9.704,0.100,-0.074,-0.319,0.000,0.000,0.000,0.000,0.000,0.000,
3.51,0,2547,64,0,0,0,0,2781,0,0,0,0,0,0,0,0,-0.510,1.645,9.603,0.301,-0.339,-0.261,0.000,0.000,0.000,0.000,0.000,0.000,
3.52,0,2546,79,0,0,0,0,2779,0,0,0,0,0,0,0,0,-0.187,1.714,9.692,0.524,-0.496,-0.130,0.000,0.000,0.000,0.000,0.000,0.000,
3.53,0,2525,96,0,0,0,0,2752,0,0,0,0,0,0,0,0,-0.225,2.073,9.922,0.563,-0.418,-0.038,0.000,0.000,0.000,0.000,0.000,0.000,
3.54,0,2539,84,0,16,0,0,2759,0,0,0,0,0,0,0,0,-0.244,2.174,9.888,0.459,-0.403,-0.070,0.000,0.000,0.000,0.000,0.000,0.000,
3.55,0,2541,93,0,37,0,0,2759,0,0,0,0,0,0,0,0,-0.426,2.423,10.044,0.395,-0.465,-0.099,0.000,0.000,0.000,0.000,0.000,0.000,
3.56,0,2511,107,0,16,0,0,2722,0,0,0,0,0,0,0,0,-0.254,2.179,9.898,0.246,-0.385,-0.233,0.000,0.000,0.000,0.000,0.000,0.000,
3.57,0,2548,107,0,43,0,0,2762,0,0,0,0,0,0,0,0,-0.259,1.990,9.766,0.328,-0.443,-0.183,0.000,0.000,0.000,0.000,0.000,0.000,
3.58,0,2543,100,0,21,0,0,2766,0,0,0,0,0,0,0,0,-0.249,2.239,9.871,0.390,-0.608,-0.234,0.000,0.000,0.000,0.000,0.000,0.000,
3.59,0,2519,80,0,0,0,0,2748,0,0,0,0,0,0,0,0,-0.089,2.184,9.912,0.350,-0.666,-0.257,0.000,0.000,0.000,0.000,0.000,0.000,
3.60,0,2525,15,0,0,0,0,2762,0,0,0,0,0,0,0,0,0.084,2.231,9.910,0.299,-0.552,-0.231,0.000,0.000,0.000,0.000,0.000,0.000,
3.61,0,2491,28,0,0,0,0,2762,0,0,0,0,0,0,0,0,0.575,2.124,9.725,0.469,-0.422,0.031,0.000,0.000,0.000,0.000,0.000,0.000,
3.62,0,2473,0,0,0,0,0,2766,0,0,0,0,0,0,0,0,0.699,2.322,9.589,0.529,-0.238,0.402,0.000,0.000,0.000,0.000,0.000,0.000,
3.63,0,2467,0,0,0,0,0,2761,0,0,0,0,0,0,0,0,0.764,2.428,9.483,0.909,-0.611,0.864,0.000,0.000,0.000,0.000,0.000,0.000,
3.64,0,2467,0,0,3,0,0,2771,0,0,0,0,0,0,0,0,0.536,3.273,10.001,1.075,-1.468,0.873,0.000,0.000,0.000,0.000,0.000,0.000,
3.65,0,2431,0,0,10,0,0,2733,0,0,0,0,0,0,0,0,1.188,2.873,10.008,0.146,-0.584,0.528,0.000,0.000,0.000,0.000,0.000,0.000,
3.66,0,2314,0,0,0,0,0,2609,0,0,0,0,0,0,0,0,0.536,2.978,9.716,-0.546,-0.119,0.210,0.000,0.000,0.000,0.000,0.000,0.000,
3.67,0,2389,0,0,30,0,0,2704,0,0,0,0,0,0,0,0,0.591,2.440,9.495,-0.609,-0.388,0.158,0.000,0.000,0.000,0.000,0.000,0.000,
3.68,0,2382,0,0,8,0,0,2709,0,0,0,0,0,0,0,0,0.893,2.320,9.517,-0.526,-0.356,0.075,0.000,0.000,0.000,0.000,0.000,0.000,
3.69,0,2357,0,0,0,0,0,2710,0,0,0,0,0,0,0,0,0.943,2.303,9.495,-0.320,-0.344,0.058,0.000,0.000,0.000,0.000,0.000,0.000,
3.70,0,2355,0,0,0,0,0,2706,0,0,0,0,0,0,0,0,1.123,2.274,9.488,-0.180,-0.244,0.049,0.000,0.000,0.000,0.000,0.000,0.000,
3.71,0,2352,0,0,0,0,0,2709,0,0,0,0,0,0,0,0,1.125,2.315,9.567,-0.122,-0.110,0.063,0.000,0.000,0.000,0.000,0.000,0.000,
3.72,0,2353,0,0,0,0,0,2713,0,0,0,0,0,0,0,0,1.018,2.296,9.697,-0.151,-0.053,0.065,0.000,0.000,0.000,0.000,0.000,0.000,
3.73,0,2362,0,0,14,0,0,2710,0,0,0,0,0,0,0,0,0.869,2.291,9.641,-0.158,-0.056,0.037,0.000,0.000,0.000,0.000,0.000,0.000,
3.74,0,2369,0,0,43,0,0,2707,0,0,0,0,0,0,0,0,1.051,2.212,9.730,-0.044,-0.078,0.016,0.000,0.000,0.000,0.000,0.000,0.000,
3.75,0,2379,0,0,43,0,0,2710,0,0,0,0,0,0,0,0,1.571,2.382,9.711,0.094,-0.133,0.010,0.000,0.000,0.000,0.000,0.000,0.000,
3.76,0,2383,0,0,55,0,0,2714,0,0,0,0,0,0,0,0,1.259,2.466,9.783,0.048,-0.019,0.020,0.000,0.000,0.000,0.000,0.000,0.000,
3.77,0,2386,0,0,48,0,0,2715,0,0,0,0,0,0,0,0,1.178,2.306,9.716,0.054,-0.023,0.012,0.000,0.000,0.000,0.000,0.000,0.000,
3.78,0,2395,0,0,49,0,0,2708,0,0,0,0,0,0,0,0,1.180,2.270,9.639,0.040,-0.015,0.012,0.000,0.000,0.000,0.000,0.000,0.000,
3.79,0,2224,0,0,4,0,0,2527,0,0,0,0,0,0,0,0,1.120,2.229,9.728,0.047,-0.012,0.010,0.000,0.000,0.000,0.000,0.000,0.000,
3.80,0,2394,0,0,45,0,0,2704,0,0,0,0,0,0,0,0,1.216,2.282,9.646,0.043,-0.004,0.008,0.000,0.000,0.000,0.000,0.000,0.000,
3.81,0,2394,0,0,47,0,0,2704,0,0,0,0,0,0,0,0,1.183,2.291,9.651,0.040,-0.004,0.011,0.000,0.000,0.000,0.000,0.000,0.000,
3.82,0,2385,0,0,27,0,0,2701,0,0,0,0,0,0,0,0,1.161,2.291,9.708,0.037,-0.002,0.010,0.000,0.000,0.000,0.000,0.000,0.000,
3.83,0,2387,0,0,33,0,0,2703,0,0,0,0,0,0,0,0,1.199,2.277,9.711,0.042,0.005,0.011,0.000,0.000,0.000,0.000,0.000,0.000,
3.84,0,2382,0,0,16,0,0,2703,0,0,0,0,0,0,0,0,1.152,2.289,9.637,0.038,0.005,0.010,0.000,0.000,0.000,0.000,0.000,0.000,
3.85,0,2368,0,0,0,0,0,2695,0,0,0,0,0,0,0,0,1.171,2.241,9.661,0.036,0.006,0.009,0.000,0.000,0.000,0.000,0.000,0.000,
3.86,0,2353,0,0,0,0,0,2700,0,0,0,0,0,0,0,0,1.188,2.243,9.598,0.033,0.004,0.011,0.000,0.000,0.000,0.000,0.000,0.000,
3.87,0,2351,0,0,0,0,0,2704,0,0,0,0,0,0,0,0,1.204,2.282,9.596,0.034,0.005,0.010,0.000,0.000,0.000,0.000,0.000,0.000,
3.88,0,2333,0,0,0,0,0,2704,0,0,0,0,0,0,0,0,1.152,2.251,9.658,0.031,0.002,0.010,0.000,0.000,0.000,0.000,0.000,0.000,
3.89,0,2318,0,0,0,0,0,2695,0,0,0,0,0,0,0,0,1.140,2.241,9.668,0.040,-0.003,0.005,0.000,0.000,0.000,0.000,0.000,0.000,
3.90,0,2320,0,0,7,0,0,2707,0,0,0,0,0,0,0,0,1.185,2.243,9.697,0.038,-0.007,0.011,0.000,0.000,0.000,0.000,0.000,0.000,
3.91,0,2306,0,0,14,0,0,2705,0,0,0,0,0,0,0,0,1.216,2.239,9.680,0.034,-0.001,0.011,0.000,0.000,0.000,0.000,0.000,0.000,
3.92,0,2303,0,0,16,0,0,2710,0,0,0,0,0,0,0,0,1.209,2.224,9.639,0.040,-0.007,0.005,0.000,0.000,0.000,0.000,0.000,0.000,
3.93,0,2303,0,0,16,0,0,2707,0,0,0,0,0,0,0,0,1.173,2.227,9.639,0.042,-0.002,0.008,0.000,0.000,0.000,0.000,0.000,0.000,
3.94,0,2280,0,0,20,0,0,2684,0,0,0,0,0,0,0,0,1.290,2.243,9.668,0.043,-0.012,0.008,0.000,0.000,0.000,0.000,0.000,0.000,
3.95,0,2293,0,0,26,0,0,2704,0,0,0,0,0,0,0,0,1.156,2.239,9.608,0.040,-0.009,0.006,0.000,0.000,0.000,0.000,0.000,0.000,
3.96,0,2297,0,0,29,0,0,2709,0,0,0,0,0,0,0,0,1.228,2.246,9.663,0.039,-0.004,0.003,0.000,0.000,0.000,0.000,0.000,0.000,
3.97,0,2300,0,0,22,0,0,2711,0,0,0,0,0,0,0,0,1.233,2.251,9.644,0.038,0.003,0.007,0.000,0.000,0.000,0.000,0.000,0.000,
3.98,0,2304,0,0,16,0,0,2711,0,0,0,0,0,0,0,0,1.271,2.253,9.673,0.045,0.002,0.003,0.000,0.000,0.000,0.000,0.000,0.000,
3.99,0,2302,0,0,16,0,0,2717,0,0,0,0,0,0,0,0,1.269,2.224,9.646,0.044,0.006,0.003,0.000,0.000,0.000,0.000,0.000,0.000,
4.00,0,2309,0,0,19,0,0,2718,0,0,0,0,0,0,0,0,1.255,2.251,9.641,0.042,0.012,-0.002,0.000,0.000,0.000,0.000,0.000,0.000,
4.01,0,2315,0,0,30,0,0,2717,0,0,0,0,0,0,0,0,1.276,2.246,9.646,0.043,0.015,0.001,0.000,0.000,0.000,0.000,0.000,0.000,
4.02,0,2319,0,0,21,0,0,2720,0,0,0,0,0,0,0,0,1.231,2.200,9.649,0.046,0.014,-0.004,0.000,0.000,0.000,0.000,0.000,0.000,
4.03,0,2164,0,0,25,0,0,2540,0,0,0,0,0,0,0,0,1.238,2.255,9.656,0.047,0.017,-0.004,0.000,0.000,0.000,0.000,0.000,0.000,
4.04,0,2339,0,0,52,0,0,2721,0,0,0,0,0,0,0,0,1.250,2.212,9.653,0.052,0.013,-0.005,0.000,0.000,0.000,0.000,0.000,0.000,
4.05,0,2351,0,0,61,0,0,2725,0,0,0,0,0,0,0,0,1.267,2.227,9.673,0.047,0.020,-0.011,0.000,0.000,0.000,0.000,0.000,0.000,
4.06,0,2368,0,0,70,0,0,2730,0,0,0,0,0,0,0,0,1.312,2.210,9.673,0.056,0.018,-0.009,0.000,0.000,0.000,0.000,0.000,0.000,
4.07,0,2383,0,0,69,0,0,2729,0,0,0,0,0,0,0,0,1.279,2.265,9.680,0.051,0.020,-0.006,0.000,0.000,0.000,0.000,0.000,0.000,
4.08,0,2389,0,0,44,0,0,2727,0,0,0,0,0,0,0,0,1.310,2.253,9.634,0.055,0.024,-0.011,0.000,0.000,0.000,0.000,0.000,0.000,
4.09,0,2400,0,0,48,0,0,2727,0,0,0,0,0,0,0,0,1.240,2.212,9.641,0.050,0.021,-0.008,0.000,0.000,0.000,0.000,0.000,0.000,
4.10,0,2407,0,0,70,0,0,2731,0,0,0,0,0,0,0,0,1.245,2.234,9.689,0.050,0.023,-0.010,0.000,0.000,0.000,0.000,0.000,0.000,
4.11,0,2409,0,0,71,0,0,2726,0,0,0,0,0,0,0,0,1.288,2.255,9.718,0.052,0.023,-0.013,0.000,0.000,0.000,0.000,0.000,0.000,
4.12,0,2419,0,0,81,0,0,2727,0,0,0,0,0,0,0,0,1.245,2.239,9.641,0.050,0.021,-0.006,0.000,0.000,0.000,0.000,0.000,0.000,
4.13,0,2419,0,0,68,0,0,2723,0,0,0,0,0,0,0,0,1.231,2.234,9.601,0.047,0.016,-0.003,0.000,0.000,0.000,0.000,0.000,0.000,
4.14,0,2427,0,0,77,0,0,2726,0,0,0,0,0,0,0,0,1.307,2.255,9.704,0.048,0.018,-0.005,0.000,0.000,0.000,0.000,0.000,0.000,
4.15,0,2430,0,0,61,0,0,2722,0,0,0,0,0,0,0,0,1.243,2.241,9.651,0.046,0.018,-0.001,0.000,0.000,0.000,0.000,0.000,0.000,
4.16,0,2433,0,0,60,0,0,2730,0,0,0,0,0,0,0,0,1.274,2.277,9.663,0.046,0.017,-0.004,0.000,0.000,0.000,0.000,0.000,0.000,
4.17,0,2434,0,0,66,0,0,2721,0,0,0,0,0,0,0,0,1.264,2.296,9.651,0.043,0.017,-0.003,0.000,0.000,0.000,0.000,0.000,0.000,
4.18,0,2435,0,0,78,0,0,2731,0,0,0,0,0,0,0,0,1.235,2.251,9.682,0.043,0.020,0.003,0.000,0.000,0.000,0.000,0.000,0.000,
4.19,0,2445,0,0,71,0,0,2729,0,0,0,0,0,0,0,0,1.300,2.277,9.629,0.046,0.015,-0.004,0.000,0.000,0.000,0.000,0.000,0.000,
4.20,0,2253,0,0,23,0,0,2519,0,0,0,0,0,0,0,0,1.312,2.241,9.670,0.045,0.015,-0.003,0.000,0.000,0.000,0.000,0.000,0.000,
4.21,0,2409,2,0,67,0,0,2688,0,0,0,0,0,0,0,0,1.338,2.215,9.594,0.043,0.012,-0.003,0.000,0.000,0.000,0.000,0.000,0.000,
4.22,0,2448,11,0,60,0,0,2725,0,0,0,0,0,0,0,0,1.262,2.231,9.608,0.043,0.018,-0.002,0.000,0.000,0.000,0.000,0.000,0.000,
4.23,0,2447,19,0,34,0,0,2723,0,0,0,0,0,0,0,0,1.281,2.282,9.656,0.046,0.013,-0.002,0.000,0.000,0.000,0.000,0.000,0.000,
4.24,0,2352,9,0,6,0,0,2647,0,0,0,0,0,0,0,0,1.290,2.215,9.668,0.049,0.012,-0.002,0.000,0.000,0.000,0.000,0.000,0.000,
4.25,0,2451,16,0,20,0,0,2726,0,0,0,0,0,0,0,0,1.302,2.236,9.718,0.053,0.010,-0.001,0.000,0.000,0.000,0.000,0.000,0.000,
4.26,0,2457,16,0,49,0,0,2733,0,0,0,0,0,0,0,0,1.314,2.246,9.649,0.049,0.008,-0.001,0.000,0.000,0.000,0.000,0.000,0.000,
4.27,0,2454,16,0,49,0,0,2723,0,0,0,0,0,0,0,0,1.322,2.227,9.622,0.049,0.016,0.002,0.000,0.000,0.000,0.000,0.000,0.000,
4.28,0,2473,27,0,77,0,0,2735,0,0,0,0,0,0,0,0,1.295,2.255,9.632,0.044,0.007,-0.003,0.000,0.000,0.000,0.000,0.000,0.000,
4.29,0,2467,18,0,55,0,0,2735,0,0,0,0,0,0,0,0,1.329,2.286,9.615,0.041,0.009,0.000,0.000,0.000,0.000,0.000,0.000,0.000,
4.30,0,2471,17,0,32,0,0,2733,0,0,0,0,0,0,0,0,1.353,2.291,9.656,0.037,0.011,0.000,0.000,0.000,0.000,0.000,0.000,0.000,
4.31,0,2468,15,0,48,0,0,2733,0,0,0,0,0,0,0,0,1.329,2.253,9.625,0.038,0.011,-0.001,0.000,0.000,0.000,0.000,0.000,0.000,
4.32,0,2480,0,0,55,0,0,2742,0,0,0,0,0,0,0,0,1.295,2.239,9.673,0.030,0.013,-0.003,0.000,0.000,0.000,0.000,0.000,0.000,
4.33,0,2479,0,0,64,0,0,2733,0,0,0,0,0,0,0,0,1.346,2.258,9.627,0.038,0.008,-0.005,0.000,0.000,0.000,0.000,0.000,0.000,
4.34,0,2469,0,0,65,0,0,2736,0,0,0,0,0,0,0,0,1.346,2.251,9.618,0.041,0.009,-0.001,0.000,0.000,0.000,0.000,0.000,0.000,
4.35,0,2465,0,0,69,0,0,2735,0,0,0,0,0,0,0,0,1.319,2.207,9.608,0.034,0.009,-0.002,0.000,0.000,0.000,0.000,0.000,0.000,
4.36,0,2465,0,0,64,0,0,2735,0,0,0,0,0,0,0,0,1.300,2.231,9.646,0.039,0.005,0.003,0.000,0.000,0.000,0.000,0.000,0.000,
4.37,0,2455,0,0,64,0,0,2731,0,0,0,0,0,0,0,0,1.314,2.222,9.603,0.039,0.010,0.004,0.000,0.000,0.000,0.000,0.000,0.000,
4.38,0,2457,0,0,55,0,0,2732,0,0,0,0,0,0,0,0,1.300,2.236,9.591,0.036,0.008,0.002,0.000,0.000,0.000,0.000,0.000,0.000,
4.39,0,2459,0,0,64,0,0,2733,0,0,0,0,0,0,0,0,1.322,2.210,9.661,0.037,0.003,0.001,0.000,0.000,0.000,0.000,0.000,0.000,
4.40,0,2463,0,0,28,0,0,2723,0,0,0,0,0,0,0,0,1.288,2.279,9.673,0.048,0.001,-0.002,0.000,0.000,0.000,0.000,0.000,0.000,
4.41,0,2457,0,0,17,0,0,2725,0,0,0,0,0,0,0,0,1.391,2.277,9.637,0.042,-0.002,0.000,0.000,0.000,0.000,0.000,0.000,0.000,
4.42,0,2466,0,0,5,0,0,2722,0,0,0,0,0,0,0,0,1.437,2.140,9.574,0.061,-0.002,0.004,0.000,0.000,0.000,0.000,0.000,0.000,
4.43,0,2474,0,0,0,0,0,2709,0,0,0,0,0,0,0,0,1.238,2.351,9.651,0.046,-0.011,-0.007,0.000,0.000,0.000,0.000,0.000,0.000,
4.44,0,2477,0,0,0,0,0,2709,0,0,0,0,0,0,0,0,1.279,2.227,9.637,0.035,0.007,0.002,0.000,0.000,0.000,0.000,0.000,0.000,
4.45,0,2483,0,0,0,0,0,2707,0,0,0,0,0,0,0,0,1.448,2.267,9.639,0.048,-0.000,0.001,0.000,0.000,0.000,0.000,0.000,0.000,
4.46,0,2463,0,0,0,0,0,2687,0,0,0,0,0,0,0,0,1.317,2.294,9.699,0.022,-0.005,-0.001,0.000,0.000,0.000,0.000,0.000,0.000,
4.47,0,2480,0,0,0,0,0,2697,0,0,0,0,0,0,0,0,1.381,2.284,9.570,0.022,-0.009,0.001,0.000,0.000,0.000,0.000,0.000,0.000,
4.48,0,2481,0,0,0,0,0,2688,0,0,0,0,0,0,0,0,1.214,2.169,9.620,0.024,-0.009,0.002,0.000,0.000,0.000,0.000,0.000,0.000,
4.49,0,2487,0,0,0,0,0,2685,0,0,0,0,0,0,0,0,1.475,2.308,9.570,0.034,-0.010,0.001,0.000,0.000,0.000,0.000,0.000,0.000,
4.50,0,2462,0,0,0,0,0,2629,0,0,0,0,0,0,0,0,1.377,2.167,9.567,0.038,-0.003,0.003,0.000,0.000,0.000,0.000,0.000,0.000,
4.51,0,2501,0,0,0,0,0,2678,0,0,0,0,0,0,0,0,1.542,2.289,9.577,0.039,0.006,0.009,0.000,0.000,0.000,0.000,0.000,0.000,
4.52,0,2509,0,0,0,0,0,2673,0,0,0,0,0,0,0,0,1.334,2.243,9.615,0.034,0.006,-0.005,0.000,0.000,0.000,0.000,0.000,0.000,
4.53,0,2500,0,0,0,0,0,2659,0,0,0,0,0,0,0,0,1.372,2.210,9.594,0.031,0.005,0.008,0.000,0.000,0.000,0.000,0.000,0.000,
4.54,0,2504,0,0,0,0,0,2640,0,0,0,0,0,0,0,0,1.516,2.270,9.694,0.030,-0.001,0.012,0.000,0.000,0.000,0.000,0.000,0.000,
4.55,0,2495,0,0,0,0,0,2612,0,0,0,0,0,0,0,0,1.319,2.114,9.663,0.036,0.018,0.011,0.000,0.000,0.000,0.000,0.000,0.000,
4.56,0,2480,0,0,0,0,0,2559,0,0,0,0,0,0,0,0,1.602,2.342,9.639,0.042,0.015,0.023,0.000,0.000,0.000,0.000,0.000,0.000,
4.57,0,2466,0,0,0,0,0,2540,0,0,0,0,0,0,0,0,1.547,2.251,9.639,0.027,0.039,0.013,0.000,0.000,0.000,0.000,0.000,0.000,
4.58,0,2451,0,0,0,0,0,2498,0,0,0,0,0,0,0,0,1.480,2.203,9.694,0.029,0.047,0.003,0.000,0.000,0.000,0.000,0.000,0.000,
4.59,0,2414,0,0,0,0,0,2438,0,0,0,0,0,0,0,0,1.362,2.267,9.675,0.022,0.047,0.007,0.000,0.000,0.000,0.000,0.000,0.000,
4.60,0,2337,0,0,0,0,0,2385,0,0,0,0,0,0,0,0,1.413,2.258,9.706,0.010,0.043,0.017,0.000,0.000,0.000,0.000,0.000,0.000,
4.61,0,2205,0,0,0,0,0,2245,0,0,0,0,0,0,0,0,1.302,2.286,9.740,0.005,0.032,0.030,0.000,0.000,0.000,0.000,0.000,0.000,
4.62,0,2177,0,0,0,0,0,2192,0,0,0,0,0,0,0,0,1.556,2.241,9.641,-0.015,0.036,0.026,0.000,0.000,0.000,0.000,0.000,0.000,
4.63,0,2074,0,0,0,0,0,2073,0,0,0,0,0,0,0,0,1.528,2.172,9.625,-0.022,0.044,0.025,0.000,0.000,0.000,0.000,0.000,0.000,
4.64,0,1902,0,0,0,0,0,1926,0,0,0,0,0,0,0,0,1.484,2.198,9.718,-0.037,0.054,0.019,0.000,0.000,0.000,0.000,0.000,0.000,
4.65,0,1676,0,0,0,0,0,1776,0,0,0,0,0,0,0,0,1.367,2.277,9.704,-0.052,0.050,0.021,0.000,0.000,0.000,0.000,0.000,0.000,
4.66,0,1417,0,0,0,0,0,1485,0,0,0,0,0,0,0,0,1.470,1.836,9.797,-0.063,0.024,0.021,0.000,0.000,0.000,0.000,0.000,0.000,
4.67,0,1204,0,0,0,0,0,1263,0,0,0,0,0,0,0,0,1.034,2.107,9.898,-0.058,-0.015,0.016,0.000,0.000,0.000,0.000,0.000,0.000,
4.68,0,1119,0,0,0,0,0,1035,0,0,0,0,0,0,0,0,1.271,2.011,9.618,-0.043,-0.038,0.004,0.000,0.000,0.000,0.000,0.000,0.000,
4.69,0,1057,0,0,0,0,0,854,0,0,0,0,0,0,0,0,1.290,2.179,9.864,-0.077,-0.036,-0.009,0.000,0.000,0.000,0.000,0.000,0.000,
4.70,0,894,0,0,0,0,0,738,0,0,0,0,0,0,0,0,1.468,1.944,9.656,-0.018,-0.024,-0.022,0.000,0.000,0.000,0.000,0.000,0.000,
4.71,0,964,0,0,0,0,0,694,0,0,0,0,0,0,0,0,1.456,1.925,9.440,-0.014,-0.000,-0.073,0.000,0.000,0.000,0.000,0.000,0.000,
4.72,0,905,0,0,0,0,0,625,0,0,0,0,0,0,0,0,0.979,1.992,9.766,-0.025,-0.038,-0.152,0.000,0.000,0.000,0.000,0.000,0.000,
4.73,0,897,0,0,0,0,0,560,0,0,0,0,0,0,0,0,0.905,1.911,10.089,-0.055,-0.181,-0.269,0.000,0.000,0.000,0.000,0.000,0.000,
4.74,0,801,0,0,0,0,0,510,0,0,0,0,0,0,0,0,1.676,2.102,10.216,-0.074,-0.330,-0.316,0.000,0.000,0.000,0.000,0.000,0.000,
4.75,0,807,0,0,0,0,0,467,0,0,0,0,0,0,0,0,2.224,1.867,10.036,-0.090,-0.190,-0.270,0.000,0.000,0.000,0.000,0.000,0.000,
4.76,0,791,0,0,0,0,0,384,0,0,0,0,0,0,0,0,2.114,2.011,10.226,-0.111,-0.252,-0.237,0.000,0.000,0.000,0.000,0.000,0.000,
4.77,0,791,0,0,0,0,0,336,0,0,0,0,0,0,0,0,2.392,1.966,9.871,-0.105,-0.273,-0.192,0.000,0.000,0.000,0.000,0.000,0.000,
4.78,0,749,0,0,0,0,0,310,0,0,0,0,0,0,0,0,2.476,1.942,9.730,-0.064,-0.113,-0.178,0.000,0.000,0.000,0.000,0.000,0.000,
4.79,0,770,0,0,0,0,0,333,0,0,0,0,0,0,0,0,1.803,1.906,9.768,-0.039,-0.025,-0.175,0.000,0.000,0.000,0.000,0.000,0.000,
4.80,0,780,0,0,0,0,0,346,0,0,0,0,0,0,0,0,1.717,2.152,10.221,-0.054,-0.013,-0.204,0.000,0.000,0.000,0.000,0.000,0.000,
4.81,0,784,0,0,0,0,0,325,0,0,0,0,0,0,0,0,1.932,2.128,10.156,-0.101,0.019,-0.251,0.000,0.000,0.000,0.000,0.000,0.000,
4.82,0,752,0,0,0,0,0,317,0,0,0,0,0,0,0,0,1.834,1.903,9.764,-0.108,0.025,-0.325,0.000,0.000,0.000,0.000,0.000,0.000,
4.83,0,761,0,0,0,0,0,309,0,0,0,0,0,0,0,0,1.097,1.846,9.749,-0.138,0.213,-0.533,0.000,0.000,0.000,0.000,0.000,0.000,
4.84,0,732,0,0,0,0,0,324,0,0,0,0,0,0,0,0,0.692,1.968,10.130,-0.116,0.145,-0.698,0.000,0.000,0.000,0.000,0.000,0.000,
4.85,0,751,0,0,0,0,0,314,0,0,0,0,0,0,0,0,1.367,1.882,10.046,-0.123,-0.088,-0.809,0.000,0.000,0.000,0.000,0.000,0.000,
4.86,0,793,0,0,0,0,0,283,0,0,0,0,0,0,0,0,2.416,1.738,9.883,-0.146,-0.171,-0.767,0.000,0.000,0.000,0.000,0.000,0.000,
4.87,0,784,0,0,0,0,0,246,0,0,0,0,0,0,0,0,3.141,1.836,9.811,-0.178,-0.179,-0.637,0.000,0.000,0.000,0.000,0.000,0.000,
4.88,0,778,0,0,0,0,0,274,0,0,0,0,0,0,0,0,2.811,1.851,9.373,-0.211,-0.165,-0.518,0.000,0.000,0.000,0.000,0.000,0.000,
4.89,0,652,0,0,0,0,0,246,0,0,0,0,0,0,0,0,3.421,1.884,9.026,-0.152,-0.268,-0.310,0.000,0.000,0.000,0.000,0.000,0.000,
4.90,0,744,0,0,0,0,0,271,0,0,0,0,0,0,0,0,4.724,0.455,6.970,0.061,-0.470,0.108,0.000,0.000,0.000,0.000,0.000,0.000,
4.91,0,727,0,0,0,0,0,287,0,0,0,0,0,0,0,0,5.454,0.855,6.594,0.297,-0.824,0.662,0.000,0.000,0.000,0.000,0.000,0.000,
4.92,0,688,0,0,0,0,0,267,0,0,0,0,0,0,0,0,6.108,1.341,7.712,0.643,-1.110,1.314,0.000,0.000,0.000,0.000,0.000,0.000,
4.93,0,743,0,0,0,0,0,272,0,0,0,0,0,0,0,0,4.374,1.927,8.914,0.835,-1.216,1.676,0.000,0.000,0.000,0.000,0.000,0.000,
4.94,0,752,0,0,0,0,0,220,0,0,0,0,0,0,0,0,3.587,2.334,9.668,0.805,-1.040,1.853,0.000,0.000,0.000,0.000,0.000,0.000,
4.95,0,698,0,0,0,0,0,211,0,0,0,0,0,0,0,0,1.628,2.528,9.263,0.755,-1.087,1.618,0.000,0.000,0.000,0.000,0.000,0.000,
4.96,0,735,0,0,0,0,0,304,0,0,0,0,0,0,0,0,2.337,2.655,9.869,0.629,-1.078,1.510,0.000,0.000,0.000,0.000,0.000,0.000,
4.97,0,467,0,0,0,0,0,255,0,0,0,0,0,0,0,0,-11.308,4.228,18.859,0.594,-1.618,1.360,0.000,0.000,0.000,0.000,0.000,0.000,
4.98,0,726,0,0,0,0,0,355,0,0,0,0,0,0,0,0,1.709,2.255,9.878,0.299,-0.367,0.493,0.000,0.000,0.000,0.000,0.000,0.000,
4.99,0,816,0,0,0,0,0,292,0,0,0,0,0,0,0,0,1.693,2.557,9.641,0.487,-1.239,0.671,0.000,0.000,0.000,0.000,0.000,0.000,
5.00,0,857,0,0,0,0,0,271,0,0,0,0,0,0,0,0,2.176,2.217,10.597,0.105,-0.689,0.652,0.000,0.000,0.000,0.000,0.000,0.000,
5.01,0,843,0,0,0,0,0,230,0,0,0,0,0,0,0,0,1.559,1.951,10.135,0.165,-0.586,0.571,0.000,0.000,0.000,0.000,0.000,0.000,
5.02,0,837,0,0,0,0,0,239,0,0,0,0,0,0,0,0,0.790,2.054,10.429,0.131,-0.398,0.564,0.000,0.000,0.000,0.000,0.000,0.000,
5.03,0,715,0,0,0,0,0,241,0,0,0,0,0,0,0,0,-3.223,0.907,7.587,0.317,-0.142,0.200,0.000,0.000,0.000,0.000,0.000,0.000,
5.04,0,738,0,0,0,0,0,255,0,0,0,0,0,0,0,0,3.318,2.222,9.574,0.086,-0.278,-0.121,0.000,0.000,0.000,0.000,0.000,0.000,
5.05,0,709,0,0,0,0,0,212,0,0,0,0,0,0,0,0,3.950,2.334,10.798,-0.183,-0.104,0.050,0.000,0.000,0.000,0.000,0.000,0.000,
5.06,0,743,0,0,0,0,0,223,0,0,0,0,0,0,0,0,2.837,2.033,9.931,-0.224,0.211,0.012,0.000,0.000,0.000,0.000,0.000,0.000,
5.07,0,694,0,0,0,0,0,208,0,0,0,0,0,0,0,0,2.021,1.923,9.574,-0.272,0.303,-0.052,0.000,0.000,0.000,0.000,0.000,0.000,
5.08,0,624,0,0,0,0,0,189,0,0,0,0,0,0,0,0,2.143,1.791,9.084,-0.305,0.297,-0.168,0.000,0.000,0.000,0.000,0.000,0.000,
5.09,0,654,0,0,0,0,0,208,0,0,0,0,0,0,0,0,2.480,1.863,8.902,-0.253,0.237,-0.237,0.000,0.000,0.000,0.000,0.000,0.000,
5.10,0,565,0,0,0,0,0,179,0,0,0,0,0,0,0,0,3.093,1.918,8.851,-0.245,0.319,-0.263,0.000,0.000,0.000,0.000,0.000,0.000,
5.11,0,576,0,0,0,0,0,193,0,0,0,0,0,0,0,0,3.440,1.961,8.902,-0.230,0.371,-0.240,0.000,0.000,0.000,0.000,0.000,0.000,
5.12,0,566,0,0,0,0,0,176,0,0,0,0,0,0,0,0,3.460,2.006,8.851,-0.221,0.457,-0.209,0.000,0.000,0.000,0.000,0.000,0.000,
5.13,0,496,0,0,0,0,0,154,0,0,0,0,0,0,0,0,3.402,2.021,8.859,-0.212,0.466,-0.196,0.000,0.000,0.000,0.000,0.000,0.000,
5.14,0,511,0,0,0,0,0,176,0,0,0,0,0,0,0,0,3.120,1.911,8.882,-0.149,0.523,-0.223,0.000,0.000,0.000,0.000,0.000,0.000,
5.15,0,496,0,0,0,0,0,178,0,0,0,0,0,0,0,0,3.223,1.915,8.598,-0.119,0.291,-0.237,0.000,0.000,0.000,0.000,0.000,0.000,
5.16,0,481,0,0,0,0,0,157,0,0,0,0,0,0,0,0,2.835,2.512,9.146,-0.143,0.329,-0.314,0.000,0.000,0.000,0.000,0.000,0.000,
5.17,0,534,0,0,0,0,0,182,0,0,0,0,0,0,0,0,3.299,2.526,9.376,-0.135,0.270,-0.214,0.000,0.000,0.000,0.000,0.000,0.000,
5.18,0,491,0,0,0,0,0,172,0,0,0,0,0,0,0,0,3.072,2.162,8.892,-0.087,0.312,-0.172,0.000,0.000,0.000,0.000,0.000,0.000,
5.19,0,453,0,0,0,0,0,146,0,0,0,0,0,0,0,0,2.626,2.342,9.069,0.046,0.339,-0.165,0.000,0.000,0.000,0.000,0.000,0.000,
5.20,0,485,0,0,0,0,0,169,0,0,0,0,0,0,0,0,2.698,2.512,9.337,0.072,0.352,-0.124,0.000,0.000,0.000,0.000,0.000,0.000,
5.21,0,438,0,0,0,0,0,151,0,0,0,0,0,0,0,0,2.835,2.181,9.251,0.170,0.495,0.028,0.000,0.000,0.000,0.000,0.000,0.000,
5.22,0,454,0,0,0,0,0,156,0,0,0,0,0,0,0,0,1.935,1.884,8.950,0.245,0.618,0.018,0.000,0.000,0.000,0.000,0.000,0.000,
5.23,0,449,0,0,0,0,0,159,0,0,0,0,0,0,0,0,2.229,1.970,9.720,0.269,0.611,0.088,0.000,0.000,0.000,0.000,0.000,0.000,
5.24,0,454,0,0,0,0,0,164,0,0,0,0,0,0,0,0,2.021,1.496,9.103,0.397,0.714,0.216,0.000,0.000,0.000,0.000,0.000,0.000,
5.25,0,464,0,0,0,0,0,168,0,0,0,0,0,0,0,0,2.607,1.774,9.835,0.287,0.772,0.139,0.000,0.000,0.000,0.000,0.000,0.000,
5.26,0,465,0,0,0,0,0,176,0,0,0,0,0,0,0,0,1.776,2.574,10.839,0.172,0.881,0.018,0.000,0.000,0.000,0.000,0.000,0.000,
5.27,0,463,0,0,0,0,0,173,0,0,0,0,0,0,0,0,2.346,1.949,10.894,0.226,1.067,0.117,0.000,0.000,0.000,0.000,0.000,0.000,
5.28,0,403,0,0,0,0,0,155,0,0,0,0,0,0,0,0,2.313,1.812,12.043,-0.148,1.418,0.130,0.000,0.000,0.000,0.000,0.000,0.000,
5.29,0,379,0,0,0,0,0,176,0,0,0,0,0,0,0,0,1.717,1.872,12.725,-0.580,1.916,0.099,0.000,0.000,0.000,0.000,0.000,0.000,
5.30,0,386,0,0,0,0,0,172,0,0,0,0,0,0,0,0,-0.278,0.809,10.025,-0.696,1.471,-0.194,0.000,0.000,0.000,0.000,0.000,0.000,
5.31,0,402,0,0,0,0,0,160,0,0,0,0,0,0,0,0,1.173,0.512,9.436,-0.615,1.355,-0.352,0.000,0.000,0.000,0.000,0.000,0.000,
5.32,0,410,0,0,0,0,0,169,0,0,0,0,0,0,0,0,1.125,0.187,8.030,-0.388,0.960,-0.512,0.000,0.000,0.000,0.000,0.000,0.000,
5.33,0,414,0,0,0,0,0,80,0,0,0,0,0,0,0,0,1.956,0.364,8.523,-0.232,1.259,-0.479,0.000,0.000,0.000,0.000,0.000,0.000,
5.34,0,399,0,0,0,0,0,130,0,0,0,0,0,0,0,0,3.503,1.470,10.499,-0.394,1.363,-0.258,0.000,0.000,0.000,0.000,0.000,0.000,
5.35,0,395,0,0,0,0,0,20,0,0,0,0,0,0,0,0,2.842,1.204,9.867,-0.213,0.966,-0.242,0.000,0.000,0.000,0.000,0.000,0.000,
5.36,0,395,0,0,0,0,0,15,0,0,0,0,0,0,0,0,3.014,0.962,9.062,-0.111,0.612,-0.084,0.000,0.000,0.000,0.000,0.000,0.000,
5.37,0,439,0,0,0,0,0,36,0,0,0,0,0,0,0,0,2.509,1.238,9.117,-0.081,0.283,0.013,0.000,0.000,0.000,0.000,0.000,0.000,
5.38,0,443,0,0,0,0,0,142,0,0,0,0,0,0,0,0,2.354,1.372,8.952,-0.003,0.063,0.129,0.000,0.000,0.000,0.000,0.000,0.000,
5.39,0,474,0,0,0,0,0,174,0,0,0,0,0,0,0,0,2.105,1.441,8.564,0.096,-0.008,0.189,0.000,0.000,0.000,0.000,0.000,0.000,
5.40,0,466,0,0,0,0,0,147,0,0,0,0,0,0,0,0,1.566,1.626,8.511,0.202,-0.195,0.205,0.000,0.000,0.000,0.000,0.000,0.000,
5.41,0,462,0,0,0,0,0,176,0,0,0,0,0,0,0,0,1.513,2.014,8.710,0.285,-0.380,0.178,0.000,0.000,0.000,0.000,0.000,0.000,
5.42,0,454,0,0,0,0,0,179,0,0,0,0,0,0,0,0,1.415,2.143,8.748,0.341,-0.458,0.133,0.000,0.000,0.000,0.000,0.000,0.000,
5.43,0,445,0,0,0,0,0,174,0,0,0,0,0,0,0,0,1.274,2.401,9.081,0.362,-0.478,0.086,0.000,0.000,0.000,0.000,0.000,0.000,
5.44,0,445,0,0,0,0,0,182,0,0,0,0,0,0,0,0,1.362,2.504,9.177,0.388,-0.532,0.032,0.000,0.000,0.000,0.000,0.000,0.000,
5.45,0,487,0,0,0,0,0,192,0,0,0,0,0,0,0,0,1.525,2.512,9.139,0.404,-0.545,0.008,0.000,0.000,0.000,0.000,0.000,0.000,
5.46,0,439,0,0,0,0,0,179,0,0,0,0,0,0,0,0,1.427,2.421,9.163,0.388,-0.481,-0.031,0.000,0.000,0.000,0.000,0.000,0.000,
5.47,0,451,0,0,0,0,0,204,0,0,0,0,0,0,0,0,1.223,2.382,9.206,0.409,-0.551,-0.055,0.000,0.000,0.000,0.000,0.000,0.000,
5.48,0,448,0,0,0,0,0,180,0,0,0,0,0,0,0,0,1.465,2.373,9.419,0.385,-0.509,-0.065,0.000,0.000,0.000,0.000,0.000,0.000,
5.49,0,463,0,0,0,0,0,192,0,0,0,0,0,0,0,0,1.245,2.215,9.280,0.391,-0.470,-0.085,0.000,0.000,0.000,0.000,0.000,0.000,
5.50,0,477,0,0,0,0,0,198,0,0,0,0,0,0,0,0,1.053,2.466,9.663,0.369,-0.444,-0.081,0.000,0.000,0.000,0.000,0.000,0.000,
5.51,0,488,0,0,0,0,0,184,0,0,0,0,0,0,0,0,1.185,2.076,9.270,0.443,-0.395,-0.057,0.000,0.000,0.000,0.000,0.000,0.000,
5.52,0,497,0,0,0,0,0,208,0,0,0,0,0,0,0,0,0.948,2.411,9.560,0.296,-0.288,-0.141,0.000,0.000,0.000,0.000,0.000,0.000,
5.53,0,499,0,0,0,0,0,203,0,0,0,0,0,0,0,0,1.077,2.327,9.708,0.328,-0.223,-0.245,0.000,0.000,0.000,0.000,0.000,0.000,
5.54,0,509,0,0,0,0,0,206,0,0,0,0,0,0,0,0,1.228,1.329,9.024,0.341,-0.223,-0.207,0.000,0.000,0.000,0.000,0.000,0.000,
5.55,0,497,0,0,0,0,0,213,0,0,0,0,0,0,0,0,1.425,1.185,8.950,0.361,-0.239,-0.309,0.000,0.000,0.000,0.000,0.000,0.000,
5.56,0,496,0,0,0,0,0,222,0,0,0,0,0,0,0,0,1.999,1.209,9.524,0.345,-0.100,-0.369,0.000,0.000,0.000,0.000,0.000,0.000,
5.57,0,480,0,0,0,0,0,211,0,0,0,0,0,0,0,0,2.042,0.927,9.548,0.316,-0.323,-0.375,0.000,0.000,0.000,0.000,0.000,0.000,
5.58,0,1097,0,0,0,0,0,0,0,0,0,0,0,0,0,0,2.576,-3.493,19.613,-0.343,0.953,0.118,0.000,0.000,0.000,0.000,0.000,0.000,
5.59,0,470,0,0,0,0,0,177,0,0,0,0,0,0,0,0,-2.164,-0.280,3.409,-0.770,0.112,-0.392,0.000,0.000,0.000,0.000,0.000,0.000,
5.60,0,755,0,0,0,0,0,179,0,0,0,0,0,0,0,0,1.077,1.377,11.265,-0.304,-0.044,-0.871,0.000,0.000,0.000,0.000,0.000,0.000,
5.61,0,912,0,0,0,0,0,201,0,0,0,0,0,0,0,0,3.055,1.786,9.969,-0.197,0.004,-0.397,0.000,0.000,0.000,0.000,0.000,0.000,
5.62,0,976,0,0,0,0,0,335,0,0,0,0,0,0,0,0,3.225,1.422,8.543,-0.044,0.308,-0.376,0.000,0.000,0.000,0.000,0.000,0.000,
5.63,0,991,0,0,0,0,0,412,0,0,0,0,0,0,0,0,0.639,2.454,10.716,0.102,0.427,-0.153,0.000,0.000,0.000,0.000,0.000,0.000,
5.64,0,1023,0,0,0,0,0,435,0,0,0,0,0,0,0,0,-0.235,2.179,10.463,-0.019,-0.049,-0.201,0.000,0.000,0.000,0.000,0.000,0.000,
5.65,0,1006,0,0,0,0,0,369,0,0,0,0,0,0,0,0,0.019,1.767,9.402,0.006,-0.268,-0.346,0.000,0.000,0.000,0.000,0.000,0.000,
5.66,0,962,0,0,0,0,0,332,0,0,0,0,0,0,0,0,1.444,1.602,9.517,-0.029,-0.170,-0.380,0.000,0.000,0.000,0.000,0.000,0.000,
5.67,0,904,0,0,0,0,0,304,0,0,0,0,0,0,0,0,1.563,1.618,9.586,-0.033,-0.086,-0.393,0.000,0.000,0.000,0.000,0.000,0.000,
5.68,0,848,0,0,0,0,0,319,0,0,0,0,0,0,0,0,1.633,1.853,9.486,-0.013,-0.044,-0.364,0.000,0.000,0.000,0.000,0.000,0.000,
5.69,0,875,0,0,0,0,0,432,0,0,0,0,0,0,0,0,1.700,2.181,9.304,0.006,0.137,-0.303,0.000,0.000,0.000,0.000,0.000,0.000,
5.70,0,949,0,0,0,0,0,528,0,0,0,0,0,0,0,0,1.863,2.586,9.555,0.091,0.085,-0.163,0.000,0.000,0.000,0.000,0.000,0.000,
5.71,0,1051,0,0,0,0,0,585,0,0,0,0,0,0,0,0,2.358,2.722,9.723,0.093,0.033,-0.031,0.000,0.000,0.000,0.000,0.000,0.000,
5.72,0,1099,0,0,0,0,0,595,0,0,0,0,0,0,0,0,1.535,2.004,9.821,0.009,0.071,0.017,0.000,0.000,0.000,0.000,0.000,0.000,
5.73,0,1175,0,0,0,0,0,695,0,0,0,0,0,0,0,0,1.532,1.695,9.620,0.048,0.027,-0.015,0.000,0.000,0.000,0.000,0.000,0.000,
5.74,0,1225,0,0,0,0,0,730,0,0,0,0,0,0,0,0,1.891,1.935,9.534,0.071,0.064,-0.023,0.000,0.000,0.000,0.000,0.000,0.000,
5.75,0,1245,0,0,0,0,0,800,0,0,0,0,0,0,0,0,1.650,1.915,9.632,0.057,0.124,-0.030,0.000,0.000,0.000,0.000,0.000,0.000,
5.76,0,1219,0,0,0,0,0,844,0,0,0,0,0,0,0,0,1.405,1.765,9.653,0.082,0.126,-0.030,0.000,0.000,0.000,0.000,0.000,0.000,
5.77,0,1193,0,0,0,0,0,898,0,0,0,0,0,0,0,0,1.262,1.856,9.697,0.107,0.095,-0.032,0.000,0.000,0.000,0.000,0.000,0.000,
5.78,0,1297,0,0,0,0,0,1078,0,0,0,0,0,0,0,0,1.384,1.879,9.668,0.124,0.073,-0.032,0.000,0.000,0.000,0.000,0.000,0.000,
5.79,0,1318,0,0,0,0,0,1231,0,0,0,0,0,0,0,0,1.300,1.970,9.718,0.148,0.041,-0.023,0.000,0.000,0.000,0.000,0.000,0.000,
5.80,0,1349,0,0,0,0,0,1338,0,0,0,0,0,0,0,0,1.334,2.057,9.761,0.113,0.037,-0.025,0.000,0.000,0.000,0.000,0.000,0.000,
5.81,0,1341,0,0,0,0,0,1500,0,0,0,0,0,0,0,0,1.372,2.016,9.708,0.107,0.032,-0.020,0.000,0.000,0.000,0.000,0.000,0.000,
5.82,0,1387,0,0,0,0,0,1602,0,0,0,0,0,0,0,0,1.463,2.006,9.694,0.099,0.031,-0.019,0.000,0.000,0.000,0.000,0.000,0.000,
5.83,0,1420,0,0,0,0,0,1662,0,0,0,0,0,0,0,0,1.487,1.937,9.649,0.106,0.053,-0.027,0.000,0.000,0.000,0.000,0.000,0.000,
5.84,0,1488,0,0,0,0,0,1771,0,0,0,0,0,0,0,0,1.470,2.016,9.644,0.113,0.062,-0.042,0.000,0.000,0.000,0.000,0.000,0.000,
5.85,0,1535,0,0,0,0,0,1851,0,0,0,0,0,0,0,0,1.307,2.004,9.665,0.127,0.063,-0.043,0.000,0.000,0.000,0.000,0.000,0.000,
5.86,0,1631,0,0,0,0,0,1934,0,0,0,0,0,0,0,0,1.377,2.095,9.723,0.116,0.049,-0.037,0.000,0.000,0.000,0.000,0.000,0.000,
5.87,0,1694,0,0,0,0,0,1977,0,0,0,0,0,0,0,0,1.279,2.085,9.728,0.107,0.034,-0.029,0.000,0.000,0.000,0.000,0.000,0.000,
5.88,0,1783,0,0,0,0,0,2031,0,0,0,0,0,0,0,0,1.314,2.033,9.697,0.097,0.029,-0.023,0.000,0.000,0.000,0.000,0.000,0.000,
5.89,0,1889,0,0,0,0,0,2084,0,0,0,0,0,0,0,0,1.489,2.109,9.687,0.092,0.021,-0.029,0.000,0.000,0.000,0.000,0.000,0.000,
5.90,0,1965,0,0,0,0,0,2122,0,0,0,0,0,0,0,0,1.554,2.059,9.653,0.089,0.042,-0.040,0.000,0.000,0.000,0.000,0.000,0.000,
5.91,0,1987,0,0,0,0,0,2188,0,0,0,0,0,0,0,0,1.355,2.021,9.668,0.088,0.055,-0.040,0.000,0.000,0.000,0.000,0.000,0.000,
5.92,0,2014,0,0,0,0,0,2230,0,0,0,0,0,0,0,0,1.281,2.076,9.603,0.099,0.048,-0.047,0.000,0.000,0.000,0.000,0.000,0.000,
5.93,0,2032,0,0,0,0,0,2257,0,0,0,0,0,0,0,0,1.281,2.152,9.692,0.093,0.034,-0.039,0.000,0.000,0.000,0.000,0.000,0.000,
5.94,0,2080,0,0,0,0,0,2299,0,0,0,0,0,0,0,0,1.425,2.105,9.677,0.087,0.028,-0.029,0.000,0.000,0.000,0.000,0.000,0.000,
5.95,0,2130,0,0,0,0,0,2336,0,0,0,0,0,0,0,0,1.331,2.150,9.713,0.080,0.026,-0.030,0.000,0.000,0.000,0.000,0.000,0.000,
5.96,0,2160,0,0,0,0,0,2366,0,0,0,0,0,0,0,0,1.405,2.128,9.720,0.077,0.022,-0.027,0.000,0.000,0.000,0.000,0.000,0.000,
5.97,0,2178,0,0,0,0,0,2369,0,0,0,0,0,0,0,0,1.312,2.112,9.761,0.072,0.012,-0.016,0.000,0.000,0.000,0.000,0.000,0.000,
5.98,0,2191,0,0,0,0,0,2384,0,0,0,0,0,0,0,0,1.480,2.095,9.622,0.074,0.014,-0.016,0.000,0.000,0.000,0.000,0.000,0.000,
5.99,0,2256,0,0,0,0,0,2432,0,0,0,0,0,0,0,0,1.353,2.162,9.692,0.074,0.012,-0.013,0.000,0.000,0.000,0.000,0.000,0.000,
6.00,0,2293,0,0,0,0,0,2445,0,0,0,0,0,0,0,0,1.274,2.100,9.742,0.066,0.018,-0.015,0.000,0.000,0.000,0.000,0.000,0.000,
6.01,0,2309,0,0,17,0,0,2435,0,0,0,0,0,0,0,0,1.472,2.145,9.687,0.071,0.010,-0.018,0.000,0.000,0.000,0.000,0.000,0.000,
6.02,0,2320,0,0,0,0,0,2460,0,0,0,0,0,0,0,0,1.343,2.138,9.694,0.064,0.009,-0.017,0.000,0.000,0.000,0.000,0.000,0.000,
6.03,0,2350,5,0,0,0,0,2475,0,0,0,0,0,0,0,0,1.432,2.138,9.627,0.066,0.012,-0.017,0.000,0.000,0.000,0.000,0.000,0.000,
6.04,0,2368,0,0,0,0,0,2494,0,0,0,0,0,0,0,0,1.398,2.136,9.680,0.058,0.013,-0.010,0.000,0.000,0.000,0.000,0.000,0.000,
6.05,0,2352,13,0,0,0,0,2483,0,0,0,0,0,0,0,0,1.367,2.143,9.653,0.046,0.014,-0.013,0.000,0.000,0.000,0.000,0.000,0.000,
6.06,0,2384,21,0,16,0,0,2497,0,0,0,0,0,0,0,0,1.391,2.200,9.704,0.044,0.013,-0.007,0.000,0.000,0.000,0.000,0.000,0.000,
6.07,0,2382,43,0,37,0,0,2487,0,0,0,0,0,0,0,0,1.396,2.109,9.625,0.043,0.012,-0.001,0.000,0.000,0.000,0.000,0.000,0.000,
6.08,0,2332,16,0,27,0,0,2458,0,0,0,0,0,0,0,0,1.408,2.160,9.673,0.039,0.009,-0.003,0.000,0.000,0.000,0.000,0.000,0.000,
6.09,0,2375,29,0,74,0,0,2497,0,0,0,0,0,0,0,0,1.472,2.212,9.646,0.035,0.017,0.000,0.000,0.000,0.000,0.000,0.000,0.000,
6.10,0,2373,0,0,73,0,0,2493,0,0,0,0,0,0,0,0,1.477,2.124,9.618,0.041,0.011,-0.001,0.000,0.000,0.000,0.000,0.000,0.000,
6.11,0,2371,16,0,45,0,0,2495,0,0,0,0,0,0,0,0,1.398,2.150,9.653,0.028,0.010,-0.004,0.000,0.000,0.000,0.000,0.000,0.000,
6.12,0,2379,16,0,91,0,0,2493,0,0,0,0,0,0,0,0,1.472,2.164,9.644,0.038,0.012,-0.001,0.000,0.000,0.000,0.000,0.000,0.000,
6.13,0,2366,16,0,77,0,0,2496,0,0,0,0,0,0,0,0,1.520,2.152,9.610,0.040,0.016,-0.008,0.000,0.000,0.000,0.000,0.000,0.000,
6.14,0,2365,21,0,0,0,0,2497,0,0,0,0,0,0,0,0,1.460,2.143,9.622,0.040,0.027,-0.003,0.000,0.000,0.000,0.000,0.000,0.000,
6.15,0,2330,7,0,0,0,0,2481,0,0,0,0,0,0,0,0,1.439,2.097,9.598,0.040,0.030,-0.006,0.000,0.000,0.000,0.000,0.000,0.000,
6.16,0,2331,0,0,0,0,0,2486,0,0,0,0,0,0,0,0,1.403,2.119,9.606,0.037,0.022,-0.007,0.000,0.000,0.000,0.000,0.000,0.000,
6.17,0,2333,0,0,0,0,0,2482,0,0,0,0,0,0,0,0,1.427,2.131,9.713,0.036,0.022,-0.007,0.000,0.000,0.000,0.000,0.000,0.000,
6.18,0,2245,0,0,0,0,0,2435,0,0,0,0,0,0,0,0,1.391,2.107,9.646,0.044,0.023,-0.009,0.000,0.000,0.000,0.000,0.000,0.000,
6.19,0,2321,0,0,0,0,0,2480,0,0,0,0,0,0,0,0,1.348,2.088,9.627,0.045,0.015,-0.005,0.000,0.000,0.000,0.000,0.000,0.000,
6.20,0,2337,2,0,0,0,0,2481,0,0,0,0,0,0,0,0,1.425,2.157,9.627,0.044,0.012,-0.008,0.000,0.000,0.000,0.000,0.000,0.000,
6.21,0,2333,0,0,0,0,0,2474,0,0,0,0,0,0,0,0,1.501,2.133,9.644,0.046,0.016,-0.004,0.000,0.000,0.000,0.000,0.000,0.000,
6.22,0,2341,0,0,0,0,0,2447,0,0,0,0,0,0,0,0,1.489,2.157,9.613,0.045,0.023,-0.006,0.000,0.000,0.000,0.000,0.000,0.000,
6.23,0,2326,0,0,0,0,0,2423,0,0,0,0,0,0,0,0,1.391,2.138,9.653,0.027,0.028,-0.001,0.000,0.000,0.000,0.000,0.000,0.000,
6.24,0,2291,0,0,0,0,0,2393,0,0,0,0,0,0,0,0,1.451,2.140,9.618,0.032,0.028,0.001,0.000,0.000,0.000,0.000,0.000,0.000,
6.25,0,2233,0,0,0,0,0,2326,0,0,0,0,0,0,0,0,1.523,2.076,9.639,0.029,0.040,-0.001,0.000,0.000,0.000,0.000,0.000,0.000,
6.26,0,2269,0,0,0,0,0,2346,0,0,0,0,0,0,0,0,1.360,2.088,9.656,0.044,0.042,-0.015,0.000,0.000,0.000,0.000,0.000,0.000,
6.27,0,2269,0,0,0,0,0,2317,0,0,0,0,0,0,0,0,1.338,2.081,9.622,0.051,0.037,-0.021,0.000,0.000,0.000,0.000,0.000,0.000,
6.28,0,2263,0,0,0,0,0,2302,0,0,0,0,0,0,0,0,1.250,2.157,9.692,0.054,0.024,-0.011,0.000,0.000,0.000,0.000,0.000,0.000,
6.29,0,2268,0,0,0,0,0,2285,0,0,0,0,0,0,0,0,1.458,2.203,9.716,0.046,0.026,-0.003,0.000,0.000,0.000,0.000,0.000,0.000,
6.30,0,2256,0,0,0,0,0,2235,0,0,0,0,0,0,0,0,1.295,2.112,9.661,0.048,0.013,0.005,0.000,0.000,0.000,0.000,0.000,0.000,
6.31,0,2257,0,0,0,0,0,2192,0,0,0,0,0,0,0,0,1.365,2.179,9.625,0.058,-0.008,0.006,0.000,0.000,0.000,0.000,0.000,0.000,
6.32,0,2245,0,0,0,0,0,2151,0,0,0,0,0,0,0,0,1.355,2.138,9.687,0.052,-0.024,0.009,0.000,0.000,0.000,0.000,0.000,0.000,
6.33,0,2256,0,0,0,0,0,2131,0,0,0,0,0,0,0,0,1.501,2.109,9.677,0.046,-0.026,0.015,0.000,0.000,0.000,0.000,0.000,0.000,
6.34,0,2256,0,0,0,0,0,2102,0,0,0,0,0,0,0,0,1.513,2.040,9.625,0.054,-0.016,0.006,0.000,0.000,0.000,0.000,0.000,0.000,
6.35,0,2271,0,0,0,0,0,2078,0,0,0,0,0,0,0,0,1.547,2.073,9.582,0.057,-0.007,-0.004,0.000,0.000,0.000,0.000,0.000,0.000,
6.36,0,2285,0,0,0,0,0,2065,0,0,0,0,0,0,0,0,1.523,2.136,9.646,0.062,0.001,-0.008,0.000,0.000,0.000,0.000,0.000,0.000,
6.37,0,2304,0,0,0,0,0,2041,0,0,0,0,0,0,0,0,1.587,2.097,9.567,0.072,0.012,-0.021,0.000,0.000,0.000,0.000,0.000,0.000,
6.38,0,2323,0,0,0,0,0,2032,0,0,0,0,0,0,0,0,1.415,2.116,9.629,0.080,0.010,-0.021,0.000,0.000,0.000,0.000,0.000,0.000,
6.39,0,2356,0,0,0,0,0,2017,0,0,0,0,0,0,0,0,1.355,2.152,9.697,0.083,-0.012,-0.021,0.000,0.000,0.000,0.000,0.000,0.000,
6.40,0,2381,0,0,0,0,0,2007,0,0,0,0,0,0,0,0,1.561,2.217,9.680,0.073,-0.017,-0.011,0.000,0.000,0.000,0.000,0.000,0.000,
6.41,0,2282,0,0,0,0,0,1841,0,0,0,0,0,0,0,0,1.535,2.085,9.558,0.082,-0.006,-0.019,0.000,0.000,0.000,0.000,0.000,0.000,
6.42,0,2433,0,0,0,0,0,1949,0,0,0,0,0,0,0,0,1.532,2.112,9.603,0.087,-0.005,-0.023,0.000,0.000,0.000,0.000,0.000,0.000,
6.43,0,2447,0,0,0,0,0,1910,0,0,0,0,0,0,0,0,1.516,2.138,9.649,0.089,0.005,-0.026,0.000,0.000,0.000,0.000,0.000,0.000,
6.44,0,2473,0,0,0,0,0,1906,0,0,0,0,0,0,0,0,1.568,2.212,9.649,0.095,0.015,-0.030,0.000,0.000,0.000,0.000,0.000,0.000,
6.45,0,2492,0,0,0,0,0,1921,0,0,0,0,0,0,0,0,1.547,2.193,9.653,0.082,0.037,-0.022,0.000,0.000,0.000,0.000,0.000,0.000,
6.46,0,2485,30,0,0,0,0,1949,0,0,0,0,0,0,0,0,1.425,2.150,9.663,0.085,0.026,-0.032,0.000,0.000,0.000,0.000,0.000,0.000,
6.47,0,2522,48,0,33,0,0,2001,0,0,0,0,0,0,0,0,1.487,2.203,9.589,0.080,0.017,-0.031,0.000,0.000,0.000,0.000,0.000,0.000,
6.48,0,2539,41,0,3,0,0,2060,0,0,0,0,0,0,0,0,1.484,2.286,9.663,0.071,0.022,-0.023,0.000,0.000,0.000,0.000,0.000,0.000,
6.49,0,2540,52,0,9,0,0,2091,0,0,0,0,0,0,0,0,1.583,2.181,9.625,0.068,0.026,-0.030,0.000,0.000,0.000,0.000,0.000,0.000,
6.50,0,2547,51,0,33,0,0,2156,0,0,0,0,0,0,0,0,1.578,2.119,9.586,0.083,0.042,-0.046,0.000,0.000,0.000,0.000,0.000,0.000,
6.51,0,2559,93,0,29,0,0,2205,0,0,0,0,0,0,0,0,1.417,2.176,9.682,0.089,0.039,-0.048,0.000,0.000,0.000,0.000,0.000,0.000,
6.52,0,2559,130,0,59,0,0,2268,0,0,0,0,0,0,0,0,1.398,2.241,9.720,0.086,0.020,-0.038,0.000,0.000,0.000,0.000,0.000,0.000,
6.53,0,2601,129,0,7,0,0,2305,0,0,0,0,0,0,0,0,1.396,2.224,9.622,0.086,0.013,-0.025,0.000,0.000,0.000,0.000,0.000,0.000,
6.54,0,2619,148,0,0,0,0,2337,0,0,0,0,0,0,0,0,1.568,2.258,9.572,0.070,0.009,-0.017,0.000,0.000,0.000,0.000,0.000,0.000,
6.55,0,2625,155,0,31,0,0,2368,0,0,0,0,0,0,0,0,1.422,2.217,9.644,0.064,0.010,-0.014,0.000,0.000,0.000,0.000,0.000,0.000,
6.56,0,2630,194,0,0,0,0,2398,0,0,0,0,0,0,0,0,1.398,2.203,9.639,0.086,-0.017,-0.007,0.000,0.000,0.000,0.000,0.000,0.000,
6.57,0,2642,176,0,16,0,0,2415,0,0,0,0,0,0,0,0,1.432,2.243,9.632,0.088,-0.034,-0.001,0.000,0.000,0.000,0.000,0.000,0.000,
6.58,0,2646,202,0,16,0,0,2449,0,0,0,0,0,0,0,0,1.489,2.284,9.625,0.069,-0.039,0.001,0.000,0.000,0.000,0.000,0.000,0.000,
6.59,0,2677,178,0,0,0,0,2455,0,0,0,0,0,0,0,0,1.384,2.172,9.586,0.081,-0.067,0.006,0.000,0.000,0.000,0.000,0.000,0.000,
6.60,0,2698,189,0,0,0,0,2480,0,0,0,0,0,0,0,0,1.472,2.310,9.651,0.075,-0.089,0.021,0.000,0.000,0.000,0.000,0.000,0.000,
6.61,0,2728,171,0,0,0,0,2489,0,0,0,0,0,0,0,0,1.410,2.301,9.670,0.068,-0.116,0.029,0.000,0.000,0.000,0.000,0.000,0.000,
6.62,0,2747,175,0,0,0,0,2512,0,0,0,0,0,0,0,0,1.437,2.298,9.663,0.089,-0.141,0.027,0.000,0.000,0.000,0.000,0.000,0.000,
6.63,0,2755,188,0,0,0,0,2502,0,0,0,0,0,0,0,0,1.609,2.222,9.529,0.084,-0.140,0.023,0.000,0.000,0.000,0.000,0.000,0.000,
6.64,0,2771,192,0,0,0,60,2512,0,0,0,0,0,0,0,0,1.932,2.255,9.558,0.079,-0.115,0.021,0.000,0.000,0.000,0.000,0.000,0.000,
6.65,0,2781,181,0,79,0,118,2487,0,0,0,0,0,0,0,0,1.808,2.370,9.675,0.092,-0.109,0.001,0.000,0.000,0.000,0.000,0.000,0.000,
6.66,0,2800,190,0,129,0,125,2459,0,0,0,0,0,0,0,0,1.705,2.315,9.653,0.074,-0.104,0.005,0.000,0.000,0.000,0.000,0.000,0.000,
6.67,0,2755,213,0,163,0,135,2384,0,0,0,0,0,0,0,0,1.693,2.327,9.579,0.070,-0.091,0.007,0.000,0.000,0.000,0.000,0.000,0.000,
6.68,0,2800,208,0,137,0,179,2345,0,0,0,0,0,0,0,0,1.769,2.308,9.548,0.059,-0.081,0.004,0.000,0.000,0.000,0.000,0.000,0.000,
6.69,0,2818,213,0,57,0,176,2294,0,0,0,0,0,0,0,0,1.774,2.267,9.579,0.072,-0.076,-0.011,0.000,0.000,0.000,0.000,0.000,0.000,
6.70,0,2810,244,0,89,0,185,2209,0,0,0,0,0,0,0,0,1.851,2.291,9.560,0.083,-0.070,-0.024,0.000,0.000,0.000,0.000,0.000,0.000,
6.71,0,2802,304,0,504,0,189,2175,0,0,0,0,0,0,0,0,1.733,2.349,9.649,0.079,-0.066,-0.009,0.000,0.000,0.000,0.000,0.000,0.000,
6.72,0,2811,334,0,454,0,197,2159,0,0,0,0,0,0,0,0,1.954,2.337,9.515,0.067,-0.049,-0.002,0.000,0.000,0.000,0.000,0.000,0.000,
6.73,0,2803,339,0,464,0,197,2101,0,0,0,0,0,0,0,0,1.784,2.320,9.606,0.072,-0.055,0.002,0.000,0.000,0.000,0.000,0.000,0.000,
6.74,0,2847,377,0,495,0,196,2053,0,0,0,0,0,0,0,0,1.748,2.452,9.572,0.047,-0.047,0.006,0.000,0.000,0.000,0.000,0.000,0.000,
6.75,0,2864,399,0,544,0,203,1989,0,0,0,0,0,0,0,0,1.875,2.320,9.529,0.048,-0.042,0.015,0.000,0.000,0.000,0.000,0.000,0.000,
6.76,0,2890,384,0,565,0,174,1873,0,0,0,0,0,0,0,0,1.774,2.315,9.582,0.038,-0.051,0.010,0.000,0.000,0.000,0.000,0.000,0.000,
6.77,0,2873,326,0,557,0,221,1807,0,0,0,0,0,0,0,0,1.760,2.346,9.570,0.033,-0.049,0.007,0.000,0.000,0.000,0.000,0.000,0.000,
6.78,0,2869,336,0,543,0,147,1759,0,0,0,0,0,0,0,0,1.803,2.274,9.517,0.027,-0.054,0.011,0.000,0.000,0.000,0.000,0.000,0.000,
6.79,0,2882,295,0,507,0,176,1751,0,0,0,0,0,0,0,0,1.810,2.310,9.608,0.031,-0.065,0.013,0.000,0.000,0.000,0.000,0.000,0.000,
6.80,0,2867,271,0,559,0,178,1712,0,0,0,0,0,0,0,0,1.935,2.327,9.527,0.016,-0.056,0.021,0.000,0.000,0.000,0.000,0.000,0.000,
6.81,0,2869,244,0,555,0,176,1737,0,0,0,0,0,0,0,0,1.824,2.303,9.627,0.021,-0.065,0.022,0.000,0.000,0.000,0.000,0.000,0.000,
6.82,0,2864,196,0,594,0,230,1743,0,0,0,0,0,0,0,0,1.906,2.339,9.572,0.013,-0.059,0.026,0.000,0.000,0.000,0.000,0.000,0.000,
6.83,0,2864,165,0,583,0,274,1830,0,0,0,0,0,0,0,0,1.949,2.270,9.493,0.022,-0.010,0.024,0.000,0.000,0.000,0.000,0.000,0.000,
6.84,0,2815,163,0,567,0,301,1835,0,0,0,0,0,0,0,0,1.889,2.325,9.553,0.011,-0.037,0.025,0.000,0.000,0.000,0.000,0.000,0.000,
6.85,0,2834,162,0,607,0,272,1910,0,0,0,0,0,0,0,0,1.994,2.234,9.479,0.021,-0.031,0.018,0.000,0.000,0.000,0.000,0.000,0.000,
6.86,0,2821,167,0,557,0,323,2033,0,0,0,0,0,0,0,0,2.025,2.313,9.572,0.026,-0.019,0.009,0.000,0.000,0.000,0.000,0.000,0.000,
6.87,0,2821,153,0,590,0,385,2119,0,0,0,0,0,0,0,0,2.006,2.277,9.481,0.027,0.006,0.004,0.000,0.000,0.000,0.000,0.000,0.000,
6.88,0,2764,144,0,585,0,370,2134,0,0,0,0,0,0,0,0,1.968,2.301,9.598,0.024,0.009,0.001,0.000,0.000,0.000,0.000,0.000,0.000,
6.89,0,2802,128,0,624,0,383,2206,0,0,0,0,0,0,0,0,1.968,2.174,9.459,0.019,0.028,0.006,0.000,0.000,0.000,0.000,0.000,0.000,
6.90,0,2788,112,0,576,0,418,2257,0,0,0,0,0,0,0,0,2.006,2.270,9.586,0.026,0.028,0.006,0.000,0.000,0.000,0.000,0.000,0.000,
6.91,0,2779,64,0,607,0,357,2303,0,0,0,0,0,0,0,0,2.102,2.377,9.574,0.001,0.029,0.010,0.000,0.000,0.000,0.000,0.000,0.000,
6.92,0,2783,43,0,642,0,405,2315,0,0,0,0,0,0,0,0,1.899,2.270,9.579,-0.003,0.031,0.023,0.000,0.000,0.000,0.000,0.000,0.000,
6.93,0,2645,0,0,604,0,402,2189,0,0,0,0,0,0,0,0,2.021,2.253,9.325,-0.004,0.028,0.030,0.000,0.000,0.000,0.000,0.000,0.000,
6.94,0,2764,0,0,627,0,418,2359,0,0,0,0,0,0,0,0,1.894,2.143,9.498,0.020,0.034,0.008,0.000,0.000,0.000,0.000,0.000,0.000,
6.95,0,2709,0,0,548,0,400,2332,0,0,0,0,0,0,0,0,1.915,2.255,9.618,0.027,0.032,0.001,0.000,0.000,0.000,0.000,0.000,0.000,
6.96,0,2737,0,0,541,0,428,2371,0,0,0,0,0,0,0,0,1.908,2.234,9.594,0.022,0.038,0.009,0.000,0.000,0.000,0.000,0.000,0.000,
6.97,0,2731,0,0,469,0,417,2374,0,0,0,0,0,0,0,0,1.937,2.272,9.510,0.015,0.034,0.014,0.000,0.000,0.000,0.000,0.000,0.000,
6.98,0,2672,0,0,442,0,387,2330,0,0,0,0,0,0,0,0,1.848,2.203,9.601,0.015,0.030,0.012,0.000,0.000,0.000,0.000,0.000,0.000,
6.99,0,2696,0,0,558,0,402,2389,0,0,0,0,0,0,0,0,1.894,2.207,9.546,0.020,0.021,0.014,0.000,0.000,0.000,0.000,0.000,0.000,
7.00,0,2669,0,0,549,0,374,2394,0,0,0,0,0,0,0,0,1.860,2.239,9.615,0.010,0.001,0.015,0.000,0.000,0.000,0.000,0.000,0.000,
7.01,0,2665,0,0,498,0,375,2407,0,0,0,0,0,0,0,0,1.774,2.191,9.680,0.013,-0.024,0.013,0.000,0.000,0.000,0.000,0.000,0.000,
7.02,0,2667,0,0,542,0,380,2414,0,0,0,0,0,0,0,0,1.901,2.155,9.546,0.035,-0.038,0.013,0.000,0.000,0.000,0.000,0.000,0.000,
7.03,0,2672,0,0,576,0,414,2416,0,0,0,0,0,0,0,0,1.891,2.116,9.555,0.050,-0.061,0.011,0.000,0.000,0.000,0.000,0.000,0.000,
7.04,0,2679,0,0,555,0,419,2407,0,0,0,0,0,0,0,0,1.973,2.325,9.670,0.049,-0.073,0.011,0.000,0.000,0.000,0.000,0.000,0.000,
7.05,0,2674,0,0,567,0,442,2405,0,0,0,0,0,0,0,0,1.987,2.253,9.618,0.036,-0.077,0.017,0.000,0.000,0.000,0.000,0.000,0.000,
7.06,0,2695,0,0,639,0,459,2422,0,0,0,0,0,0,0,0,2.042,2.265,9.670,0.025,-0.087,0.026,0.000,0.000,0.000,0.000,0.000,0.000,
7.07,0,2672,0,0,667,0,446,2413,0,0,0,0,0,0,0,0,2.088,2.181,9.517,0.012,-0.089,0.034,0.000,0.000,0.000,0.000,0.000,0.000,
7.08,0,2645,0,0,639,0,485,2387,0,0,0,0,0,0,0,0,2.107,2.136,9.498,0.015,-0.081,0.034,0.000,0.000,0.000,0.000,0.000,0.000,
7.09,0,2617,0,0,627,0,467,2395,0,0,0,0,0,0,0,0,2.025,2.136,9.558,0.025,-0.077,0.030,0.000,0.000,0.000,0.000,0.000,0.000,
7.10,0,2583,0,0,601,0,487,2369,0,0,0,0,0,0,0,0,2.095,2.112,9.510,0.035,-0.067,0.009,0.000,0.000,0.000,0.000,0.000,0.000,
7.11,0,2557,0,0,621,0,511,2369,0,0,0,0,0,0,0,0,2.112,2.191,9.515,0.031,-0.065,0.012,0.000,0.000,0.000,0.000,0.000,0.000,
7.12,0,2531,0,0,650,0,509,2359,0,0,0,0,0,0,0,0,2.133,2.157,9.488,0.038,-0.050,0.006,0.000,0.000,0.000,0.000,0.000,0.000,
7.13,0,2498,0,0,659,0,525,2341,0,0,0,0,0,0,0,0,2.160,2.193,9.553,0.036,-0.032,0.003,0.000,0.000,0.000,0.000,0.000,0.000,
7.14,0,2480,0,0,647,0,529,2311,0,0,0,0,0,0,0,0,2.191,2.109,9.467,0.032,-0.024,-0.000,0.000,0.000,0.000,0.000,0.000,0.000,
7.15,0,2462,0,0,661,0,531,2317,0,0,0,0,0,0,0,0,2.227,2.090,9.436,0.036,0.003,-0.009,0.000,0.000,0.000,0.000,0.000,0.000,
7.16,0,2472,0,0,677,0,521,2298,0,0,0,0,0,0,0,0,2.169,2.162,9.459,0.049,0.023,-0.021,0.000,0.000,0.000,0.000,0.000,0.000,
7.17,0,2484,0,0,707,0,528,2311,0,0,0,0,0,0,0,0,2.116,2.088,9.467,0.052,0.028,-0.025,0.000,0.000,0.000,0.000,0.000,0.000,
7.18,0,2483,0,0,667,0,576,2346,0,0,0,0,0,0,0,0,2.114,2.207,9.529,0.053,0.034,-0.023,0.000,0.000,0.000,0.000,0.000,0.000,
7.19,0,2480,0,0,611,0,592,2352,0,0,0,0,0,0,0,0,2.167,2.157,9.419,0.049,0.042,-0.019,0.000,0.000,0.000,0.000,0.000,0.000,
7.20,0,2491,0,0,627,0,605,2399,0,0,0,0,0,0,0,0,2.040,2.114,9.589,0.059,0.042,-0.029,0.000,0.000,0.000,0.000,0.000,0.000,
7.21,0,2491,0,0,615,0,642,2429,0,0,0,0,0,0,0,0,2.270,2.195,9.522,0.058,0.054,-0.031,0.000,0.000,0.000,0.000,0.000,0.000,
7.22,0,2439,0,0,567,0,646,2418,0,0,0,0,0,0,0,0,1.939,2.088,9.560,0.057,0.071,-0.037,0.000,0.000,0.000,0.000,0.000,0.000,
7.23,0,2501,0,0,560,0,688,2528,0,0,0,0,0,0,0,0,2.531,2.191,9.692,0.037,0.102,-0.011,0.000,0.000,0.000,0.000,0.000,0.000,
7.24,0,2490,0,0,588,0,688,2525,0,0,0,0,0,0,0,0,2.006,2.207,9.601,0.040,0.100,-0.037,0.000,0.000,0.000,0.000,0.000,0.000,
7.25,0,2481,0,0,491,0,700,2559,0,0,0,0,0,0,0,0,2.126,2.387,9.771,0.040,0.036,-0.026,0.000,0.000,0.000,0.000,0.000,0.000,
7.26,0,2484,0,0,479,0,707,2595,0,0,0,0,0,0,0,0,2.126,2.222,9.606,0.027,0.024,0.002,0.000,0.000,0.000,0.000,0.000,0.000,
7.27,0,2504,0,0,511,0,731,2677,0,0,0,0,0,0,0,0,2.045,2.265,9.534,0.017,0.029,-0.002,0.000,0.000,0.000,0.000,0.000,0.000,
7.28,0,2503,0,0,529,0,765,2703,0,0,0,0,0,0,0,0,2.093,2.172,9.445,0.041,0.007,-0.005,0.000,0.000,0.000,0.000,0.000,0.000,
7.29,0,2447,0,0,525,0,770,2690,0,0,0,0,0,0,0,0,2.169,2.133,9.572,0.026,0.047,0.001,0.000,0.000,0.000,0.000,0.000,0.000,
7.30,0,2477,0,0,482,0,788,2721,0,0,0,0,0,0,0,0,2.435,2.284,9.898,-0.003,0.000,0.019,0.000,0.000,0.000,0.000,0.000,0.000,
7.31,0,2432,0,0,485,0,772,2704,0,0,0,0,0,0,0,0,2.131,2.095,9.390,0.055,-0.026,-0.020,0.000,0.000,0.000,0.000,0.000,0.000,
7.32,0,2448,0,0,509,0,800,2753,0,0,0,0,0,0,0,0,1.951,2.030,9.333,-0.236,0.373,0.197,0.000,0.000,0.000,0.000,0.000,0.000,
7.33,0,2489,0,0,487,0,816,2768,0,0,0,0,0,0,0,0,2.195,2.207,9.641,0.087,0.027,-0.019,0.000,0.000,0.000,0.000,0.000,0.000,
7.34,0,2306,0,0,420,0,720,2545,0,0,0,0,0,0,0,0,1.970,2.073,9.464,0.045,0.115,-0.037,0.000,0.000,0.000,0.000,0.000,0.000,
7.35,0,2559,0,0,450,0,822,2820,0,0,0,0,0,0,0,0,2.195,2.186,9.500,0.069,0.060,-0.041,0.000,0.000,0.000,0.000,0.000,0.000,
7.36,0,2606,0,0,487,0,838,2846,0,0,0,0,0,0,0,0,2.121,2.066,9.342,0.106,0.064,-0.025,0.000,0.000,0.000,0.000,0.000,0.000,
7.37,0,2621,0,0,509,0,816,2832,0,0,0,0,0,0,0,0,2.052,1.992,9.369,0.049,0.167,0.041,0.000,0.000,0.000,0.000,0.000,0.000,
7.38,0,2640,0,0,527,0,837,2837,0,0,0,0,0,0,0,0,1.353,2.114,8.878,0.139,-0.079,-0.143,0.000,0.000,0.000,0.000,0.000,0.000,
7.39,0,2638,0,0,597,0,885,2825,0,0,0,0,0,0,0,0,1.776,2.286,9.821,0.043,0.042,-0.046,0.000,0.000,0.000,0.000,0.000,0.000,
7.40,0,2686,0,0,583,0,902,2864,0,0,0,0,0,0,0,0,2.090,1.968,9.342,0.088,0.089,-0.021,0.000,0.000,0.000,0.000,0.000,0.000,
7.41,0,2675,0,0,501,0,939,2847,0,0,0,0,0,0,0,0,2.176,2.167,9.507,0.092,0.031,-0.043,0.000,0.000,0.000,0.000,0.000,0.000,
7.42,0,2711,0,0,510,0,944,2896,0,0,0,0,0,0,0,0,1.832,2.263,9.728,0.092,0.004,-0.055,0.000,0.000,0.000,0.000,0.000,0.000,
7.43,0,2747,0,0,559,0,976,2931,0,0,0,0,0,0,0,0,2.095,2.389,9.692,0.077,0.026,-0.017,0.000,0.000,0.000,0.000,0.000,0.000,
7.44,0,2735,0,0,564,0,1008,2887,0,0,0,0,0,0,0,0,1.942,2.253,9.567,0.081,0.026,-0.017,0.000,0.000,0.000,0.000,0.000,0.000,
7.45,0,2738,0,0,448,0,1014,2880,0,0,0,0,0,0,0,0,2.222,2.205,9.352,0.068,0.043,-0.011,0.000,0.000,0.000,0.000,0.000,0.000,
7.46,0,2725,0,0,464,0,1049,2844,0,0,0,0,0,0,0,0,2.109,2.109,9.404,0.086,0.052,-0.037,0.000,0.000,0.000,0.000,0.000,0.000,
7.47,0,2803,0,0,418,0,1087,2916,0,0,0,0,0,0,0,0,2.140,2.195,9.448,0.114,0.061,-0.042,0.000,0.000,0.000,0.000,0.000,0.000,
7.48,0,2825,0,0,425,0,1103,2909,0,0,0,0,0,0,0,0,1.963,2.037,9.385,0.132,0.041,-0.056,0.000,0.000,0.000,0.000,0.000,0.000,
7.49,0,2827,0,0,560,0,1135,2880,0,0,0,0,0,0,0,0,2.109,2.234,9.491,0.149,0.025,-0.088,0.000,0.000,0.000,0.000,0.000,0.000,
7.50,0,2951,62,0,483,0,1121,2963,0,0,0,0,0,0,0,0,1.942,2.200,9.481,0.176,-0.038,-0.098,0.000,0.000,0.000,0.000,0.000,0.000,
7.51,0,2891,54,0,550,0,1102,2894,0,0,0,0,0,0,0,0,2.119,2.504,9.608,0.140,-0.080,-0.107,0.000,0.000,0.000,0.000,0.000,0.000,
7.52,0,2939,118,0,583,0,1146,2957,0,0,0,0,0,0,0,0,2.291,2.567,9.697,0.161,-0.097,-0.115,0.000,0.000,0.000,0.000,0.000,0.000,
7.53,0,2928,161,0,533,0,1116,2937,0,0,0,0,0,0,0,0,2.066,2.399,9.632,0.115,-0.007,-0.052,0.000,0.000,0.000,0.000,0.000,0.000,
7.54,0,2975,237,0,591,0,1123,2963,0,0,0,0,0,0,0,0,1.990,2.612,9.924,0.086,-0.001,-0.054,0.000,0.000,0.000,0.000,0.000,0.000,
7.55,0,2971,240,0,601,0,1130,2977,0,0,0,0,0,0,0,0,1.980,2.310,9.443,0.119,0.007,-0.039,0.000,0.000,0.000,0.000,0.000,0.000,
7.56,0,2979,291,0,638,0,1136,2960,0,0,0,0,0,0,0,0,2.234,2.428,9.663,0.032,-0.020,-0.064,0.000,0.000,0.000,0.000,0.000,0.000,
7.57,0,3015,324,0,593,0,1198,2991,0,0,0,0,0,0,0,0,1.946,2.413,9.574,0.067,0.013,-0.052,0.000,0.000,0.000,0.000,0.000,0.000,
7.58,0,3045,353,0,682,0,1206,3013,0,0,0,0,0,0,0,0,2.023,2.344,9.450,0.069,-0.021,-0.027,0.000,0.000,0.000,0.000,0.000,0.000,
7.59,0,3023,377,0,745,0,1178,2985,0,0,0,0,0,0,0,0,2.081,2.437,9.618,0.063,0.024,-0.031,0.000,0.000,0.000,0.000,0.000,0.000,
7.60,0,3053,490,0,651,0,1211,3020,0,0,0,0,0,0,0,0,2.112,2.294,9.503,0.089,0.027,-0.044,0.000,0.000,0.000,0.000,0.000,0.000,
7.61,0,3056,474,0,539,0,1237,3034,0,0,0,0,0,0,0,0,2.073,2.411,9.476,0.094,0.035,-0.055,0.000,0.000,0.000,0.000,0.000,0.000,
7.62,0,3088,508,0,654,0,1242,3057,0,0,0,0,0,0,0,0,2.035,2.856,10.216,0.117,0.066,-0.080,0.000,0.000,0.000,0.000,0.000,0.000,
7.63,0,3104,511,0,656,0,1233,3065,0,0,0,0,0,0,0,0,1.982,2.564,9.740,0.068,0.023,-0.041,0.000,0.000,0.000,0.000,0.000,0.000,
7.64,0,3114,502,0,673,0,1295,3097,0,0,0,0,0,0,0,0,2.052,2.354,9.412,0.037,-0.015,-0.068,0.000,0.000,0.000,0.000,0.000,0.000,
7.65,0,3136,528,0,816,0,1342,3117,0,0,0,0,0,0,0,0,2.368,2.377,9.278,0.056,0.041,-0.050,0.000,0.000,0.000,0.000,0.000,0.000,
7.66,0,3066,528,0,704,0,1339,3056,0,0,0,0,0,0,0,0,2.406,2.306,9.340,0.077,0.040,-0.048,0.000,0.000,0.000,0.000,0.000,0.000,
7.67,0,3120,579,0,775,0,1339,3114,0,0,0,0,0,0,0,0,2.090,2.349,9.474,0.074,0.020,0.001,0.000,0.000,0.000,0.000,0.000,0.000,
7.68,0,3124,567,0,784,0,1328,3136,0,0,0,0,0,0,0,0,2.291,2.550,9.414,0.048,0.046,-0.039,0.000,0.000,0.000,0.000,0.000,0.000,
7.69,0,3099,592,0,798,0,1318,3103,0,0,0,0,0,0,0,0,2.014,2.385,9.529,0.058,0.027,-0.037,0.000,0.000,0.000,0.000,0.000,0.000,
7.70,0,3103,602,0,684,0,1360,3122,0,0,0,0,0,0,0,0,2.057,2.454,9.519,0.084,-0.008,-0.048,0.000,0.000,0.000,0.000,0.000,0.000,
7.71,0,3113,633,0,742,0,1360,3137,0,0,0,0,0,0,0,0,1.954,2.334,9.503,0.059,0.069,-0.045,0.000,0.000,0.000,0.000,0.000,0.000,
7.72,0,3133,719,0,742,0,1374,3152,0,0,0,0,0,0,0,0,2.088,2.437,9.495,0.070,0.061,-0.028,0.000,0.000,0.000,0.000,0.000,0.000,
7.73,0,3120,772,0,820,0,1374,3135,0,0,0,0,0,0,0,0,2.090,2.380,9.364,0.063,0.081,-0.012,0.000,0.000,0.000,0.000,0.000,0.000,
7.74,0,3159,757,0,717,0,1375,3189,0,0,0,0,0,0,0,0,2.207,2.476,9.369,0.038,0.096,-0.027,0.000,0.000,0.000,0.000,0.000,0.000,
7.75,0,3005,746,0,691,0,1290,3095,0,0,0,0,0,0,0,0,2.169,2.579,9.488,0.028,0.068,-0.057,0.000,0.000,0.000,0.000,0.000,0.000,
7.76,0,3173,915,0,891,0,1418,3202,0,0,0,0,0,0,0,0,1.911,2.466,9.522,0.029,0.058,-0.038,0.000,0.000,0.000,0.000,0.000,0.000,
7.77,0,3181,918,0,947,0,1424,3206,0,0,0,0,0,0,0,0,2.025,2.392,9.261,0.037,0.050,-0.014,0.000,0.000,0.000,0.000,0.000,0.000,
7.78,0,3180,935,0,957,0,1442,3214,0,0,0,0,0,0,0,0,2.260,2.430,9.297,0.041,0.070,-0.008,0.000,0.000,0.000,0.000,0.000,0.000,
7.79,0,3123,916,0,944,0,1397,3168,0,0,0,0,0,0,0,0,2.064,2.437,9.459,0.019,0.062,-0.018,0.000,0.000,0.000,0.000,0.000,0.000,
7.80,0,3201,925,0,998,0,1442,3231,0,0,0,0,0,0,0,0,2.042,2.370,9.390,0.024,0.094,-0.025,0.000,0.000,0.000,0.000,0.000,0.000,
7.81,0,3148,948,0,1001,0,1451,3175,0,0,0,0,0,0,0,0,1.968,2.387,9.522,0.049,0.050,-0.005,0.000,0.000,0.000,0.000,0.000,0.000,
7.82,0,3183,953,0,976,0,1466,3216,0,0,0,0,0,0,0,0,2.057,2.327,9.359,0.053,0.100,-0.005,0.000,0.000,0.000,0.000,0.000,0.000,
7.83,0,3189,963,0,950,0,1461,3225,0,0,0,0,0,0,0,0,1.992,2.480,9.553,0.054,0.081,-0.019,0.000,0.000,0.000,0.000,0.000,0.000,
7.84,0,3228,951,0,853,0,1465,3255,0,0,0,0,0,0,0,0,1.891,2.512,9.550,0.037,0.053,-0.020,0.000,0.000,0.000,0.000,0.000,0.000,
7.85,0,3223,939,0,862,0,1459,3268,0,0,0,0,0,0,0,0,1.949,2.684,9.682,-0.026,0.038,-0.031,0.000,0.000,0.000,0.000,0.000,0.000,
7.86,0,3209,848,0,861,0,1478,3280,0,0,0,0,0,0,0,0,1.918,2.389,9.357,-0.056,0.006,-0.030,0.000,0.000,0.000,0.000,0.000,0.000,
7.87,0,3168,735,0,783,0,1488,3248,0,0,0,0,0,0,0,0,2.140,2.535,9.625,-0.072,0.109,0.016,0.000,0.000,0.000,0.000,0.000,0.000,
7.88,0,3173,686,0,756,0,1498,3282,0,0,0,0,0,0,0,0,2.241,2.638,9.850,-0.081,0.061,0.048,0.000,0.000,0.000,0.000,0.000,0.000,
7.89,0,3146,530,0,665,0,1504,3282,0,0,0,0,0,0,0,0,1.805,2.476,9.584,-0.107,-0.043,-0.022,0.000,0.000,0.000,0.000,0.000,0.000,
7.90,0,3113,352,0,631,0,1509,3289,0,0,0,0,0,0,0,0,1.896,2.512,9.670,-0.104,-0.019,-0.010,0.000,0.000,0.000,0.000,0.000,0.000,
7.91,0,3085,219,0,611,0,1474,3301,0,0,0,0,0,0,0,0,2.184,2.385,9.574,-0.113,0.013,0.044,0.000,0.000,0.000,0.000,0.000,0.000,
7.92,0,3031,129,0,655,0,1474,3290,0,0,0,0,0,0,0,0,2.064,2.198,9.558,-0.090,0.021,0.014,0.000,0.000,0.000,0.000,0.000,0.000,
7.93,0,2988,45,0,656,0,1488,3319,0,0,0,0,0,0,0,0,1.829,2.751,9.917,-0.210,-0.173,-0.022,0.000,0.000,0.000,0.000,0.000,0.000,
7.94,0,2896,0,0,610,0,1478,3330,0,0,0,0,0,0,0,0,2.188,2.844,10.575,-0.352,-0.179,0.056,0.000,0.000,0.000,0.000,0.000,0.000,
7.95,0,2762,0,0,554,0,1434,3344,0,0,0,0,0,0,0,0,2.229,2.480,9.869,-0.500,-0.330,0.135,0.000,0.000,0.000,0.000,0.000,0.000,
7.96,0,2416,0,0,317,0,1342,3204,0,0,0,0,0,0,0,0,2.255,1.882,9.337,-0.485,-0.258,0.147,0.000,0.000,0.000,0.000,0.000,0.000,
7.97,0,2403,0,0,161,0,1417,3396,0,0,0,0,0,0,0,0,2.193,1.827,9.246,-0.427,-0.151,0.121,0.000,0.000,0.000,0.000,0.000,0.000,
7.98,0,2243,0,0,60,0,1388,3403,0,0,0,0,0,0,0,0,2.303,1.913,9.847,-0.383,-0.104,0.082,0.000,0.000,0.000,0.000,0.000,0.000,
7.99,0,1959,0,0,0,0,1406,3419,0,0,0,0,0,0,0,0,2.492,1.753,9.069,-0.370,-0.066,0.090,0.000,0.000,0.000,0.000,0.000,0.000,
8.00,0,1574,0,0,0,0,1337,3424,0,0,0,0,0,0,0,0,2.274,1.516,9.373,-0.367,0.033,0.036,0.000,0.000,0.000,0.000,0.000,0.000,
8.01,0,1320,0,0,0,0,1253,3421,0,0,0,0,0,0,0,0,2.509,1.482,9.227,-0.301,0.148,-0.004,0.000,0.000,0.000,0.000,0.000,0.000,
8.02,0,1130,0,0,0,0,1203,3434,0,0,0,0,0,0,0,0,2.227,1.393,9.069,-0.217,0.216,0.001,0.000,0.000,0.000,0.000,0.000,0.000,
8.03,0,1023,0,0,0,0,1219,3446,0,0,0,0,0,0,0,0,1.923,1.365,9.256,-0.123,0.198,0.010,0.000,0.000,0.000,0.000,0.000,0.000,
8.04,0,1037,0,0,0,0,1211,3433,0,0,0,0,0,0,0,0,1.748,1.312,8.904,-0.030,0.172,0.022,0.000,0.000,0.000,0.000,0.000,0.000,
8.05,0,1023,0,0,0,0,1152,3375,0,0,0,0,0,0,0,0,1.968,1.219,8.854,0.100,0.166,0.007,0.000,0.000,0.000,0.000,0.000,0.000,
8.06,0,1073,0,0,0,0,1168,3419,0,0,0,0,0,0,0,0,1.961,1.281,8.990,0.196,0.230,-0.012,0.000,0.000,0.000,0.000,0.000,0.000,
8.07,0,1156,0,0,0,0,1218,3438,0,0,0,0,0,0,0,0,1.300,0.895,8.574,0.345,0.183,-0.047,0.000,0.000,0.000,0.000,0.000,0.000,
8.08,0,1242,0,0,0,0,1235,3472,0,0,0,0,0,0,0,0,1.803,1.274,9.036,0.459,0.358,-0.096,0.000,0.000,0.000,0.000,0.000,0.000,
8.09,0,1744,0,0,126,0,1232,3456,0,0,0,0,0,0,0,0,2.265,1.882,10.206,0.559,0.420,-0.139,0.000,0.000,0.000,0.000,0.000,0.000,
8.10,0,2069,0,0,181,0,1195,3456,0,0,0,0,0,0,0,0,1.858,3.371,11.650,0.300,0.149,-0.090,0.000,0.000,0.000,0.000,0.000,0.000,
8.11,0,2160,0,0,284,0,1178,3439,0,0,0,0,0,0,0,0,1.896,1.997,9.835,0.123,0.053,-0.017,0.000,0.000,0.000,0.000,0.000,0.000,
8.12,0,2215,0,0,272,0,1207,3435,0,0,0,0,0,0,0,0,1.810,1.872,9.752,0.130,0.022,-0.025,0.000,0.000,0.000,0.000,0.000,0.000,
8.13,0,2245,0,0,239,0,1205,3414,0,0,0,0,0,0,0,0,2.248,2.155,9.625,0.107,0.054,0.019,0.000,0.000,0.000,0.000,0.000,0.000,
8.14,0,2266,0,0,297,0,1232,3390,0,0,0,0,0,0,0,0,1.697,1.896,9.634,0.094,0.037,0.037,0.000,0.000,0.000,0.000,0.000,0.000,
8.15,0,2234,0,0,325,0,1200,3283,0,0,0,0,0,0,0,0,1.913,1.961,9.558,0.114,0.023,0.038,0.000,0.000,0.000,0.000,0.000,0.000,
8.16,0,2277,0,0,326,0,1247,3350,0,0,0,0,0,0,0,0,1.829,1.891,9.455,0.128,0.026,0.017,0.000,0.000,0.000,0.000,0.000,0.000,
8.17,0,2287,0,0,330,0,1214,3319,0,0,0,0,0,0,0,0,1.946,1.851,9.340,0.192,0.036,0.003,0.000,0.000,0.000,0.000,0.000,0.000,
8.18,0,2349,0,0,326,0,1233,3291,0,0,0,0,0,0,0,0,2.033,1.872,9.304,0.214,0.147,0.016,0.000,0.000,0.000,0.000,0.000,0.000,
8.19,0,2423,0,0,304,0,1251,3330,0,0,0,0,0,0,0,0,1.894,2.078,9.847,0.236,0.169,-0.003,0.000,0.000,0.000,0.000,0.000,0.000,
8.20,0,2544,0,0,452,0,1200,3336,0,0,0,0,0,0,0,0,1.832,2.090,9.740,0.187,0.118,-0.004,0.000,0.000,0.000,0.000,0.000,0.000,
8.21,0,2559,0,0,384,0,1214,3223,0,0,0,0,0,0,0,0,1.803,2.241,9.878,0.167,0.068,-0.002,0.000,0.000,0.000,0.000,0.000,0.000,
8.22,0,2559,0,0,382,0,1164,3156,0,0,0,0,0,0,0,0,1.834,2.191,9.723,0.142,0.025,0.021,0.000,0.000,0.000,0.000,0.000,0.000,
8.23,0,2663,0,0,398,0,1219,3209,0,0,0,0,0,0,0,0,1.923,2.081,9.546,0.111,0.034,0.026,0.000,0.000,0.000,0.000,0.000,0.000,
8.24,0,2752,0,0,365,0,1274,3295,0,0,0,0,0,0,0,0,1.774,2.076,9.687,0.111,-0.000,0.032,0.000,0.000,0.000,0.000,0.000,0.000,
8.25,0,2791,13,0,410,0,1265,3293,0,0,0,0,0,0,0,0,1.920,1.985,9.397,0.129,-0.007,0.013,0.000,0.000,0.000,0.000,0.000,0.000,
8.26,0,2819,37,0,385,0,1267,3242,0,0,0,0,0,0,0,0,2.006,2.047,9.586,0.132,0.013,0.011,0.000,0.000,0.000,0.000,0.000,0.000,
8.27,0,2864,54,0,400,0,1312,3280,0,0,0,0,0,0,0,0,1.824,2.014,9.536,0.146,0.012,-0.027,0.000,0.000,0.000,0.000,0.000,0.000,
8.28,0,2897,111,0,435,0,1325,3274,0,0,0,0,0,0,0,0,1.992,2.145,9.543,0.159,-0.035,-0.018,0.000,0.000,0.000,0.000,0.000,0.000,
8.29,0,2939,130,0,532,0,1344,3255,0,0,0,0,0,0,0,0,1.899,2.186,9.570,0.142,-0.040,-0.029,0.000,0.000,0.000,0.000,0.000,0.000,
8.30,0,2967,205,0,596,0,1367,3253,0,0,0,0,0,0,0,0,1.875,2.176,9.656,0.114,-0.012,-0.012,0.000,0.000,0.000,0.000,0.000,0.000,
8.31,0,3013,235,0,591,0,1376,3253,0,0,0,0,0,0,0,0,1.913,2.320,9.756,0.109,-0.021,-0.014,0.000,0.000,0.000,0.000,0.000,0.000,
8.32,0,3027,263,0,643,0,1392,3226,0,0,0,0,0,0,0,0,2.023,2.136,9.385,0.125,-0.042,-0.004,0.000,0.000,0.000,0.000,0.000,0.000,
8.33,0,3042,372,0,653,0,1390,3185,0,0,0,0,0,0,0,0,1.832,2.105,9.529,0.130,-0.049,-0.030,0.000,0.000,0.000,0.000,0.000,0.000,
8.34,0,3017,383,0,684,0,1382,3136,0,0,0,0,0,0,0,0,2.054,2.219,9.589,0.147,-0.034,-0.037,0.000,0.000,0.000,0.000,0.000,0.000,
8.35,0,3041,507,0,811,0,1403,3089,0,0,0,0,0,0,0,0,2.057,2.318,9.548,0.185,-0.126,-0.036,0.000,0.000,0.000,0.000,0.000,0.000,
8.36,0,3120,560,0,845,0,1398,3120,0,0,0,0,0,0,0,0,1.961,2.342,9.718,0.137,-0.003,-0.037,0.000,0.000,0.000,0.000,0.000,0.000,
8.37,0,3086,587,0,739,0,1377,3051,0,0,0,0,0,0,0,0,2.088,2.263,9.428,0.134,-0.053,-0.009,0.000,0.000,0.000,0.000,0.000,0.000,
8.38,0,3140,624,0,932,0,1411,3051,0,0,0,0,0,0,0,0,1.805,2.239,9.407,0.096,-0.046,0.006,0.000,0.000,0.000,0.000,0.000,0.000,
8.39,0,3170,713,0,899,0,1413,3038,0,0,0,0,0,0,0,0,1.946,2.279,9.555,0.094,-0.072,-0.009,0.000,0.000,0.000,0.000,0.000,0.000,
8.40,0,3194,827,0,900,0,1447,3031,0,0,0,0,0,0,0,0,2.116,2.313,9.522,0.127,-0.043,-0.019,0.000,0.000,0.000,0.000,0.000,0.000,
8.41,11,3216,935,0,942,0,1466,3018,0,0,0,0,0,0,0,0,2.057,2.176,9.438,0.141,-0.019,-0.035,0.000,0.000,0.000,0.000,0.000,0.000,
8.42,10,3217,1125,0,995,0,1471,2977,0,0,0,0,0,0,0,0,2.126,2.449,9.653,0.166,-0.097,-0.030,0.000,0.000,0.000,0.000,0.000,0.000,
8.43,0,3235,1266,0,1063,0,1473,2938,0,0,0,0,0,0,0,0,2.083,2.437,9.570,0.146,-0.058,-0.027,0.000,0.000,0.000,0.000,0.000,0.000,
8.44,0,3170,1360,0,1143,0,1442,2832,0,0,0,0,0,0,0,0,1.954,2.365,9.637,0.139,-0.002,-0.034,0.000,0.000,0.000,0.000,0.000,0.000,
8.45,0,3219,1449,0,1110,0,1472,2875,0,0,0,0,0,0,0,0,2.325,2.284,9.287,0.115,-0.004,-0.008,0.000,0.000,0.000,0.000,0.000,0.000,
8.46,32,3213,1520,40,1077,0,1465,2832,0,0,0,0,0,0,0,0,2.073,2.370,9.507,0.130,0.006,-0.046,0.000,0.000,0.000,0.000,0.000,0.000,
8.47,38,3219,1601,30,1169,0,1468,2802,0,0,0,0,0,0,0,0,2.179,2.437,9.527,0.145,0.006,-0.037,0.000,0.000,0.000,0.000,0.000,0.000,
8.48,16,3219,1603,11,1175,0,1447,2737,0,0,0,0,0,0,0,0,2.186,2.416,9.380,0.124,0.059,-0.038,0.000,0.000,0.000,0.000,0.000,0.000,
8.49,57,3225,1703,80,1279,0,1439,2709,0,0,0,0,0,0,0,0,1.848,2.318,9.493,0.153,-0.008,-0.036,0.000,0.000,0.000,0.000,0.000,0.000,
8.50,80,3067,1840,67,1136,0,1415,2477,0,0,0,0,0,0,0,0,1.999,2.703,9.730,0.138,0.023,-0.064,0.000,0.000,0.000,0.000,0.000,0.000,
8.51,109,3245,1849,162,1342,0,1403,2630,0,0,0,0,0,0,0,0,1.992,2.437,9.510,0.125,-0.003,-0.059,0.000,0.000,0.000,0.000,0.000,0.000,
8.52,96,3284,2019,161,1255,0,1456,2613,0,0,0,0,0,0,0,0,2.090,2.490,9.402,0.148,-0.024,-0.046,0.000,0.000,0.000,0.000,0.000,0.000,
8.53,131,3282,2079,207,1344,0,1452,2554,0,0,0,0,0,0,0,0,2.174,2.526,9.445,0.113,-0.025,-0.059,0.000,0.000,0.000,0.000,0.000,0.000,
8.54,121,3248,2079,271,1315,0,1439,2488,0,0,0,0,0,0,0,0,2.126,2.478,9.486,0.130,0.023,-0.054,0.000,0.000,0.000,0.000,0.000,0.000,
8.55,123,3308,2201,304,1318,0,1455,2501,0,0,0,0,0,0,0,0,2.073,2.574,9.507,0.126,0.045,-0.030,0.000,0.000,0.000,0.000,0.000,0.000,
8.56,152,3287,2238,397,1397,0,1440,2455,0,0,0,0,0,0,0,0,1.999,2.488,9.589,0.118,0.077,-0.032,0.000,0.000,0.000,0.000,0.000,0.000,
8.57,181,3303,2287,432,1418,0,1358,2436,0,0,0,0,0,0,0,0,1.990,2.682,9.610,0.119,0.037,-0.038,0.000,0.000,0.000,0.000,0.000,0.000,
8.58,141,3326,2319,453,1430,0,1408,2430,0,0,0,0,0,0,0,0,2.102,2.550,9.443,0.090,0.025,-0.038,0.000,0.000,0.000,0.000,0.000,0.000,
8.59,225,3325,2338,528,1462,0,1397,2447,0,0,0,0,0,0,0,0,2.243,2.646,9.476,0.118,-0.010,-0.029,0.000,0.000,0.000,0.000,0.000,0.000,
8.60,244,3329,2371,493,1502,0,1407,2482,0,0,0,0,0,0,0,0,2.191,2.557,9.390,0.064,0.025,-0.023,0.000,0.000,0.000,0.000,0.000,0.000,
8.61,156,3325,2354,496,1416,0,1374,2516,0,0,0,0,0,0,0,0,2.143,2.636,9.507,0.066,0.032,-0.007,0.000,0.000,0.000,0.000,0.000,0.000,
8.62,205,3331,2415,450,1452,0,1392,2559,0,0,0,0,0,0,0,0,1.973,2.650,9.500,0.041,0.025,-0.003,0.000,0.000,0.000,0.000,0.000,0.000,
8.63,199,3327,2405,507,1431,0,1407,2602,0,0,0,0,0,0,0,0,2.025,2.559,9.507,0.037,0.025,-0.003,0.000,0.000,0.000,0.000,0.000,0.000,
8.64,183,3366,2391,477,1456,0,1406,2643,0,0,0,0,0,0,0,0,2.191,2.543,9.373,0.037,0.035,-0.001,0.000,0.000,0.000,0.000,0.000,0.000,
8.65,227,3375,2416,460,1499,0,1420,2667,0,0,0,0,0,0,0,0,2.160,2.444,9.388,0.048,0.048,-0.011,0.000,0.000,0.000,0.000,0.000,0.000,
8.66,206,3369,2413,465,1436,0,1424,2685,0,0,0,0,0,0,0,0,2.059,2.591,9.476,0.056,0.026,-0.009,0.000,0.000,0.000,0.000,0.000,0.000,
8.67,218,3376,2399,483,1422,0,1428,2707,0,0,0,0,0,0,0,0,2.114,2.610,9.385,0.055,-0.003,-0.020,0.000,0.000,0.000,0.000,0.000,0.000,
8.68,177,3375,2408,422,1431,0,1453,2736,0,0,0,0,0,0,0,0,2.078,2.602,9.503,0.033,0.029,-0.015,0.000,0.000,0.000,0.000,0.000,0.000,
8.69,195,3379,2416,415,1355,0,1472,2768,0,0,0,0,0,0,0,0,2.035,2.555,9.550,0.046,0.015,0.004,0.000,0.000,0.000,0.000,0.000,0.000,
8.70,221,3401,2406,422,1401,0,1491,2784,0,0,0,0,0,0,0,0,2.083,2.617,9.491,0.050,0.017,0.014,0.000,0.000,0.000,0.000,0.000,0.000,
8.71,137,3383,2403,432,1419,0,1520,2823,0,0,0,0,0,0,0,0,2.085,2.528,9.452,0.034,0.028,0.009,0.000,0.000,0.000,0.000,0.000,0.000,
8.72,92,3356,2395,391,1404,0,1486,2829,0,0,0,0,0,0,0,0,1.985,2.552,9.354,0.051,-0.024,0.012,0.000,0.000,0.000,0.000,0.000,0.000,
8.73,71,3359,2367,367,1463,0,1509,2868,0,0,0,0,0,0,0,0,2.265,2.591,9.553,-0.004,-0.041,-0.018,0.000,0.000,0.000,0.000,0.000,0.000,
8.74,46,3351,2352,355,1424,0,1527,2881,0,0,0,0,0,0,0,0,2.152,2.550,9.431,0.021,-0.023,-0.014,0.000,0.000,0.000,0.000,0.000,0.000,
8.75,25,3285,2304,338,1470,0,1525,2859,0,0,0,0,0,0,0,0,2.124,2.567,9.448,0.031,-0.036,-0.002,0.000,0.000,0.000,0.000,0.000,0.000,
8.76,6,3328,2288,294,1514,0,1527,2900,0,0,0,0,0,0,0,0,2.191,2.646,9.491,0.021,-0.015,-0.017,0.000,0.000,0.000,0.000,0.000,0.000,
8.77,54,3341,2288,297,1566,0,1559,2928,0,0,0,0,0,0,0,0,2.184,2.569,9.459,0.024,-0.010,-0.001,0.000,0.000,0.000,0.000,0.000,0.000,
8.78,32,3345,2283,290,1557,0,1553,2933,0,0,0,0,0,0,0,0,2.128,2.509,9.445,0.021,0.021,0.006,0.000,0.000,0.000,0.000,0.000,0.000,
8.79,36,3343,2256,293,1571,0,1558,2944,0,0,0,0,0,0,0,0,2.243,2.442,9.335,0.032,0.036,0.008,0.000,0.000,0.000,0.000,0.000,0.000,
8.80,45,3285,2239,284,1578,0,1535,2864,0,0,0,0,0,0,0,0,2.289,2.504,9.369,0.032,0.045,0.021,0.000,0.000,0.000,0.000,0.000,0.000,
8.81,45,3312,2239,305,1561,0,1558,2927,0,0,0,0,0,0,0,0,2.207,2.507,9.364,0.045,0.039,0.009,0.000,0.000,0.000,0.000,0.000,0.000,
8.82,41,3332,2239,308,1587,0,1535,2943,0,0,0,0,0,0,0,0,2.126,2.423,9.297,0.062,-0.007,-0.013,0.000,0.000,0.000,0.000,0.000,0.000,
8.83,12,3312,2224,311,1586,0,1559,2918,0,0,0,0,0,0,0,0,2.167,2.490,9.354,0.052,0.062,-0.007,0.000,0.000,0.000,0.000,0.000,0.000,
8.84,35,3293,2227,326,1576,0,1569,2908,0,0,0,0,0,0,0,0,2.054,2.614,9.476,0.027,0.044,-0.024,0.000,0.000,0.000,0.000,0.000,0.000,
8.85,48,3336,2258,337,1630,0,1572,2939,0,0,0,0,0,0,0,0,2.162,2.555,9.491,0.060,0.051,-0.018,0.000,0.000,0.000,0.000,0.000,0.000,
8.86,36,3311,2250,336,1627,0,1567,2910,0,0,0,0,0,0,0,0,2.081,2.521,9.383,0.069,0.034,-0.010,0.000,0.000,0.000,0.000,0.000,0.000,
8.87,48,3311,2257,331,1648,0,1562,2911,0,0,0,0,0,0,0,0,2.064,2.567,9.385,0.056,0.042,-0.016,0.000,0.000,0.000,0.000,0.000,0.000,
8.88,59,3307,2247,341,1645,0,1535,2912,0,0,0,0,0,0,0,0,2.109,2.502,9.390,0.059,0.031,-0.018,0.000,0.000,0.000,0.000,0.000,0.000,
8.89,66,3298,2255,348,1623,0,1535,2896,0,0,0,0,0,0,0,0,2.064,2.490,9.471,0.067,0.030,-0.040,0.000,0.000,0.000,0.000,0.000,0.000,
8.90,55,3298,2261,340,1535,0,1535,2896,0,0,0,0,0,0,0,0,2.025,2.540,9.448,0.058,0.002,-0.054,0.000,0.000,0.000,0.000,0.000,0.000,
8.91,54,3102,2106,306,1377,0,1405,2702,0,0,0,0,0,0,0,0,2.078,2.440,9.316,0.084,-0.004,-0.033,0.000,0.000,0.000,0.000,0.000,0.000,
8.92,97,3279,2270,340,1458,0,1521,2864,0,0,0,0,0,0,0,0,2.224,2.732,9.548,0.031,0.034,-0.035,0.000,0.000,0.000,0.000,0.000,0.000,
8.93,142,3202,2224,339,1424,0,1478,2802,0,0,0,0,0,0,0,0,2.069,2.569,9.371,0.057,0.013,-0.015,0.000,0.000,0.000,0.000,0.000,0.000,
8.94,166,3263,2288,361,1474,0,1527,2848,0,0,0,0,0,0,0,0,2.037,2.569,9.392,0.048,0.010,-0.013,0.000,0.000,0.000,0.000,0.000,0.000,
8.95,158,3276,2302,379,1513,0,1535,2870,0,0,0,0,0,0,0,0,2.114,2.624,9.448,0.041,0.028,-0.011,0.000,0.000,0.000,0.000,0.000,0.000,
8.96,176,3279,2288,272,1520,0,1534,2844,0,0,0,0,0,0,0,0,2.145,2.555,9.476,0.037,0.029,-0.001,0.000,0.000,0.000,0.000,0.000,0.000,
8.97,161,3277,2292,354,1516,0,1518,2864,0,0,0,0,0,0,0,0,2.172,2.588,9.426,0.038,0.039,0.002,0.000,0.000,0.000,0.000,0.000,0.000,
8.98,146,3280,2266,376,1535,0,1525,2864,0,0,0,0,0,0,0,0,2.167,2.509,9.395,0.039,0.046,0.002,0.000,0.000,0.000,0.000,0.000,0.000,
8.99,139,3291,2314,386,1571,0,1535,2896,0,0,0,0,0,0,0,0,2.112,2.579,9.476,0.040,0.049,-0.010,0.000,0.000,0.000,0.000,0.000,0.000,
9.00,137,3300,2307,407,1571,0,1535,2900,0,0,0,0,0,0,0,0,2.133,2.555,9.426,0.041,0.037,-0.017,0.000,0.000,0.000,0.000,0.000,0.000,
9.01,153,3328,2323,390,1584,0,1535,2910,0,0,0,0,0,0,0,0,2.073,2.567,9.383,0.020,-0.002,-0.040,0.000,0.000,0.000,0.000,0.000,0.000,
9.02,130,3344,2326,377,1579,0,1535,2931,0,0,0,0,0,0,0,0,2.114,2.583,9.373,0.037,0.030,-0.020,0.000,0.000,0.000,0.000,0.000,0.000,
9.03,148,3344,2319,434,1601,0,1535,2946,0,0,0,0,0,0,0,0,2.105,2.576,9.445,0.017,0.020,-0.030,0.000,0.000,0.000,0.000,0.000,0.000,
9.04,169,3334,2317,387,1587,0,1535,2943,0,0,0,0,0,0,0,0,1.415,2.145,8.602,0.068,-0.008,-0.011,0.000,0.000,0.000,0.000,0.000,0.000,
9.05,162,3323,2300,386,1603,0,1520,2947,0,0,0,0,0,0,0,0,2.059,2.567,9.464,0.009,0.091,-0.006,0.000,0.000,0.000,0.000,0.000,0.000,
9.06,160,3312,2255,410,1600,0,1508,2941,0,0,0,0,0,0,0,0,2.049,2.636,9.541,0.038,0.056,0.007,0.000,0.000,0.000,0.000,0.000,0.000,
9.07,163,3318,2303,429,1577,0,1520,2950,0,0,0,0,0,0,0,0,1.808,2.140,8.815,0.037,-0.030,0.033,0.000,0.000,0.000,0.000,0.000,0.000,
9.08,144,3333,2318,433,1594,0,1508,2965,0,0,0,0,0,0,0,0,2.229,2.512,9.467,0.008,-0.019,-0.025,0.000,0.000,0.000,0.000,0.000,0.000,
9.09,132,3342,2323,431,1614,0,1520,2990,0,0,0,0,0,0,0,0,2.116,2.540,9.397,0.009,0.047,-0.009,0.000,0.000,0.000,0.000,0.000,0.000,
9.10,138,3366,2318,415,1623,0,1525,3005,0,0,0,0,0,0,0,0,2.064,2.562,9.369,0.018,0.046,0.002,0.000,0.000,0.000,0.000,0.000,0.000,
9.11,135,3357,2295,355,1609,0,1525,3007,0,0,0,0,0,0,0,0,2.176,2.528,9.433,0.016,0.042,-0.002,0.000,0.000,0.000,0.000,0.000,0.000,
9.12,144,3381,2317,387,1586,0,1534,3046,0,0,0,0,0,0,0,0,2.387,2.816,9.385,0.009,0.075,0.018,0.000,0.000,0.000,0.000,0.000,0.000,
9.13,146,3391,2315,416,1584,0,1527,3070,0,0,0,0,0,0,0,0,2.057,2.006,9.651,0.029,0.090,-0.046,0.000,0.000,0.000,0.000,0.000,0.000,
9.14,163,3388,2327,454,1611,0,1520,3070,0,0,0,0,0,0,0,0,2.069,3.041,9.469,0.041,0.052,-0.001,0.000,0.000,0.000,0.000,0.000,0.000,
9.15,187,3403,2341,455,1631,0,1520,3088,0,0,0,0,0,0,0,0,1.973,2.325,9.462,0.020,0.051,0.012,0.000,0.000,0.000,0.000,0.000,0.000,
9.16,165,3369,2336,454,1636,0,1510,3070,0,0,0,0,0,0,0,0,2.219,2.466,9.455,0.039,0.050,-0.016,0.000,0.000,0.000,0.000,0.000,0.000,
9.17,177,3376,2340,465,1643,0,1518,3071,0,0,0,0,0,0,0,0,2.169,2.679,9.505,0.033,0.081,0.042,0.000,0.000,0.000,0.000,0.000,0.000,
9.18,185,3381,2320,438,1613,0,1511,3087,0,0,0,0,0,0,0,0,1.970,2.641,9.644,0.019,0.042,0.009,0.000,0.000,0.000,0.000,0.000,0.000,
9.19,171,3399,2289,400,1597,0,1498,3100,0,0,0,0,0,0,0,0,1.827,2.737,9.725,0.015,0.021,0.022,0.000,0.000,0.000,0.000,0.000,0.000,
9.20,164,3383,2258,352,1532,0,1487,3090,0,0,0,0,0,0,0,0,2.286,2.449,9.531,0.010,0.114,0.062,0.000,0.000,0.000,0.000,0.000,0.000,
9.21,154,3376,2238,352,1470,0,1475,3099,0,0,0,0,0,0,0,0,1.990,2.509,9.313,0.062,0.071,0.032,0.000,0.000,0.000,0.000,0.000,0.000,
9.22,131,3403,2219,338,1444,0,1470,3117,0,0,0,0,0,0,0,0,2.116,2.509,9.517,0.032,0.089,0.040,0.000,0.000,0.000,0.000,0.000,0.000,
9.23,124,3395,2193,320,1415,0,1472,3120,0,0,0,0,0,0,0,0,1.980,2.404,9.491,0.019,0.037,-0.003,0.000,0.000,0.000,0.000,0.000,0.000,
9.24,119,3385,2185,299,1379,0,1470,3122,0,0,0,0,0,0,0,0,1.769,2.279,9.153,0.056,-0.131,-0.006,0.000,0.000,0.000,0.000,0.000,0.000,
9.25,113,3387,2183,301,1349,0,1470,3130,0,0,0,0,0,0,0,0,2.476,2.205,9.230,0.055,0.163,0.033,0.000,0.000,0.000,0.000,0.000,0.000,
9.26,110,3309,2149,249,1315,0,1441,3062,0,0,0,0,0,0,0,0,2.172,2.598,9.819,-0.011,0.175,0.015,0.000,0.000,0.000,0.000,0.000,0.000,
9.27,114,3308,2112,254,1291,0,1429,3068,0,0,0,0,0,0,0,0,1.393,2.397,9.220,0.024,0.090,0.045,0.000,0.000,0.000,0.000,0.000,0.000,
9.28,112,3261,2091,240,1257,0,1424,3002,0,0,0,0,0,0,0,0,2.052,2.586,9.632,0.022,-0.002,0.013,0.000,0.000,0.000,0.000,0.000,0.000,
9.29,112,3242,2058,240,1194,0,1392,3004,0,0,0,0,0,0,0,0,2.143,2.456,9.426,0.025,0.065,-0.004,0.000,0.000,0.000,0.000,0.000,0.000,
9.30,121,3293,2066,256,1271,0,1405,3055,0,0,0,0,0,0,0,0,2.006,2.325,9.395,0.034,0.045,-0.001,0.000,0.000,0.000,0.000,0.000,0.000,
9.31,110,3203,2031,236,1199,0,1375,2989,0,0,0,0,0,0,0,0,2.078,2.538,9.586,0.032,0.016,-0.002,0.000,0.000,0.000,0.000,0.000,0.000,
9.32,81,3015,1896,261,1117,0,1266,2780,0,0,0,0,0,0,0,0,1.882,2.392,9.436,0.049,0.042,-0.026,0.000,0.000,0.000,0.000,0.000,0.000,
9.33,103,3089,2031,261,1208,0,1360,2873,0,0,0,0,0,0,0,0,2.157,2.514,9.524,-0.007,0.059,-0.030,0.000,0.000,0.000,0.000,0.000,0.000,
9.34,122,3226,2069,294,1245,0,1386,2997,0,0,0,0,0,0,0,0,2.064,2.456,9.498,0.057,0.015,-0.017,0.000,0.000,0.000,0.000,0.000,0.000,
9.35,125,3207,2096,286,1156,0,1376,2966,0,0,0,0,0,0,0,0,2.061,2.430,9.397,0.055,0.042,-0.019,0.000,0.000,0.000,0.000,0.000,0.000,
9.36,128,3212,2097,285,1166,0,1367,2963,0,0,0,0,0,0,0,0,1.997,2.519,9.474,0.046,0.072,-0.014,0.000,0.000,0.000,0.000,0.000,0.000,
9.37,134,3251,2117,304,1194,0,1385,2992,0,0,0,0,0,0,0,0,2.126,2.528,9.572,0.032,0.018,-0.002,0.000,0.000,0.000,0.000,0.000,0.000,
9.38,144,3239,2111,315,1245,0,1363,2989,0,0,0,0,0,0,0,0,2.093,2.550,9.615,0.036,0.067,-0.005,0.000,0.000,0.000,0.000,0.000,0.000,
9.39,159,3313,2173,330,1225,0,1377,3043,0,0,0,0,0,0,0,0,2.042,2.545,9.579,0.017,0.058,-0.022,0.000,0.000,0.000,0.000,0.000,0.000,
9.40,179,3359,2192,350,1267,0,1383,3071,0,0,0,0,0,0,0,0,2.061,2.528,9.627,0.021,0.068,-0.022,0.000,0.000,0.000,0.000,0.000,0.000,
9.41,182,3249,2159,368,1222,0,1355,2981,0,0,0,0,0,0,0,0,2.310,2.514,9.519,0.055,0.053,-0.003,0.000,0.000,0.000,0.000,0.000,0.000,
9.42,199,3338,2218,382,1264,0,1379,3041,0,0,0,0,0,0,0,0,2.018,2.466,9.517,0.064,0.052,-0.022,0.000,0.000,0.000,0.000,0.000,0.000,
9.43,165,3282,2194,409,1277,0,1371,2993,0,0,0,0,0,0,0,0,1.772,2.502,9.464,0.075,-0.023,-0.047,0.000,0.000,0.000,0.000,0.000,0.000,
9.44,172,3353,2253,452,1331,0,1394,3065,0,0,0,0,0,0,0,0,2.365,2.679,9.843,0.044,0.047,-0.036,0.000,0.000,0.000,0.000,0.000,0.000,
9.45,179,3314,2242,453,1339,0,1378,3024,0,0,0,0,0,0,0,0,1.896,2.435,9.215,0.107,-0.030,-0.067,0.000,0.000,0.000,0.000,0.000,0.000,
9.46,208,3363,2277,471,1369,0,1393,3061,0,0,0,0,0,0,0,0,1.946,2.598,9.589,0.040,0.030,-0.049,0.000,0.000,0.000,0.000,0.000,0.000,
9.47,194,3232,2235,464,1351,0,1360,2945,0,0,0,0,0,0,0,0,1.592,2.746,10.180,-0.054,0.001,0.030,0.000,0.000,0.000,0.000,0.000,0.000,
9.48,183,3217,2236,490,1360,0,1362,2944,0,0,0,0,0,0,0,0,1.762,2.990,9.936,-0.012,-0.025,-0.062,0.000,0.000,0.000,0.000,0.000,0.000,
9.49,209,3331,2282,496,1392,0,1381,3034,0,0,0,0,0,0,0,0,2.035,2.464,9.474,0.089,-0.006,-0.025,0.000,0.000,0.000,0.000,0.000,0.000,
9.50,221,3323,2300,497,1417,0,1403,3024,0,0,0,0,0,0,0,0,2.140,2.519,9.567,0.051,0.033,-0.013,0.000,0.000,0.000,0.000,0.000,0.000,
9.51,218,3344,2310,459,1435,0,1424,3033,0,0,0,0,0,0,0,0,1.901,2.480,9.517,0.044,-0.000,-0.029,0.000,0.000,0.000,0.000,0.000,0.000,
9.52,201,3381,2337,510,1463,0,1455,3061,0,0,0,0,0,0,0,0,1.767,2.476,9.361,0.042,-0.028,-0.056,0.000,0.000,0.000,0.000,0.000,0.000,
9.53,216,3403,2337,511,1487,0,1459,3088,0,0,0,0,0,0,0,0,2.037,2.732,9.744,0.001,-0.096,-0.030,0.000,0.000,0.000,0.000,0.000,0.000,
9.54,210,3382,2320,509,1488,0,1470,3071,0,0,0,0,0,0,0,0,1.920,2.490,9.397,0.020,0.001,-0.014,0.000,0.000,0.000,0.000,0.000,0.000,
9.55,214,3358,2307,501,1489,0,1465,3046,0,0,0,0,0,0,0,0,1.994,2.464,9.445,0.030,0.078,-0.016,0.000,0.000,0.000,0.000,0.000,0.000,
9.56,213,3374,2305,525,1498,0,1475,3054,0,0,0,0,0,0,0,0,2.188,2.619,9.701,0.046,0.080,0.009,0.000,0.000,0.000,0.000,0.000,0.000,
9.57,208,3407,2321,540,1524,0,1479,3083,0,0,0,0,0,0,0,0,1.990,2.476,9.479,0.063,-0.031,-0.021,0.000,0.000,0.000,0.000,0.000,0.000,
9.58,212,3281,2288,522,1478,0,1466,2973,0,0,0,0,0,0,0,0,2.138,2.509,9.481,0.046,0.005,-0.003,0.000,0.000,0.000,0.000,0.000,0.000,
9.59,236,3325,2287,528,1515,0,1451,3015,0,0,0,0,0,0,0,0,2.176,2.425,9.397,0.045,0.070,0.012,0.000,0.000,0.000,0.000,0.000,0.000,
9.60,231,3425,2330,510,1555,0,1493,3094,0,0,0,0,0,0,0,0,2.095,2.435,9.412,0.033,0.098,-0.004,0.000,0.000,0.000,0.000,0.000,0.000,
9.61,222,3346,2289,511,1522,0,1472,3024,0,0,0,0,0,0,0,0,2.107,2.521,9.586,0.038,-0.043,-0.011,0.000,0.000,0.000,0.000,0.000,0.000,
9.62,204,3328,2286,511,1520,0,1477,3015,0,0,0,0,0,0,0,0,1.748,2.557,9.512,0.023,0.036,-0.014,0.000,0.000,0.000,0.000,0.000,0.000,
9.63,208,3265,2235,490,1494,0,1439,2965,0,0,0,0,0,0,0,0,1.915,2.416,9.376,0.081,-0.075,-0.046,0.000,0.000,0.000,0.000,0.000,0.000,
9.64,206,3211,2236,491,1470,0,1433,2912,0,0,0,0,0,0,0,0,2.224,2.509,9.419,0.081,-0.068,-0.052,0.000,0.000,0.000,0.000,0.000,0.000,
9.65,199,3175,2199,461,1442,0,1409,2894,0,0,0,0,0,0,0,0,2.085,2.531,9.467,0.041,-0.003,-0.039,0.000,0.000,0.000,0.000,0.000,0.000,
9.66,194,3315,2283,485,1498,0,1460,3003,0,0,0,0,0,0,0,0,2.037,2.354,9.292,0.064,0.034,-0.019,0.000,0.000,0.000,0.000,0.000,0.000,
9.67,237,3359,2293,479,1499,0,1487,3038,0,0,0,0,0,0,0,0,2.227,2.571,9.699,0.051,0.043,-0.019,0.000,0.000,0.000,0.000,0.000,0.000,
9.68,235,3378,2301,521,1511,0,1493,3051,0,0,0,0,0,0,0,0,1.779,2.612,9.536,0.039,0.014,-0.025,0.000,0.000,0.000,0.000,0.000,0.000,
9.69,215,3327,2282,507,1510,0,1471,2992,0,0,0,0,0,0,0,0,1.896,2.643,9.634,0.043,0.053,-0.029,0.000,0.000,0.000,0.000,0.000,0.000,
9.70,208,3228,2238,505,1473,0,1427,2938,0,0,0,0,0,0,0,0,1.599,1.851,8.669,0.141,0.012,0.032,0.000,0.000,0.000,0.000,0.000,0.000,
9.71,236,3341,2301,524,1503,0,1471,2982,0,0,0,0,0,0,0,0,2.219,2.421,9.474,0.067,0.046,0.011,0.000,0.000,0.000,0.000,0.000,0.000,
9.72,234,3378,2327,511,1507,0,1475,3055,0,0,0,0,0,0,0,0,2.100,2.363,9.385,0.052,0.075,0.006,0.000,0.000,0.000,0.000,0.000,0.000,
9.73,211,3028,2178,441,1411,0,1379,2767,0,0,0,0,0,0,0,0,1.951,2.447,9.448,0.033,0.119,0.003,0.000,0.000,0.000,0.000,0.000,0.000,
9.74,208,3278,2256,501,1488,0,1424,2991,0,0,0,0,0,0,0,0,2.107,2.425,9.397,0.041,0.119,0.007,0.000,0.000,0.000,0.000,0.000,0.000,
9.75,234,3314,2295,506,1517,0,1443,3009,0,0,0,0,0,0,0,0,1.860,2.452,9.445,0.017,-0.037,0.017,0.000,0.000,0.000,0.000,0.000,0.000,
9.76,247,3363,2337,592,1535,0,1472,3038,0,0,0,0,0,0,0,0,1.389,2.974,9.931,-0.021,0.045,-0.057,0.000,0.000,0.000,0.000,0.000,0.000,
9.77,239,3218,2287,551,1490,0,1428,2925,0,0,0,0,0,0,0,0,1.575,2.265,9.131,0.049,0.105,-0.013,0.000,0.000,0.000,0.000,0.000,0.000,
9.78,216,3200,2305,597,1479,0,1426,2916,0,0,0,0,0,0,0,0,1.975,2.409,9.321,0.035,0.085,0.002,0.000,0.000,0.000,0.000,0.000,0.000,
9.79,234,3331,2378,599,1523,0,1475,3046,0,0,0,0,0,0,0,0,2.392,2.516,9.615,-0.046,0.067,-0.001,0.000,0.000,0.000,0.000,0.000,0.000,
9.80,263,3360,2333,607,1562,0,1472,3069,0,0,0,0,0,0,0,0,2.018,2.830,9.946,0.021,0.011,0.005,0.000,0.000,0.000,0.000,0.000,0.000,
9.81,250,3422,2415,604,1589,0,1505,3092,0,0,0,0,0,0,0,0,2.722,1.712,8.672,0.071,0.030,0.100,0.000,0.000,0.000,0.000,0.000,0.000,
9.82,245,3426,2387,633,1584,0,1491,3082,0,0,0,0,0,0,0,0,2.289,2.794,10.017,-0.057,-0.006,-0.016,0.000,0.000,0.000,0.000,0.000,0.000,
9.83,233,592,575,607,2992,0,0,2995,0,0,0,0,0,0,0,0,1.556,2.296,9.009,0.120,0.021,0.041,0.000,0.000,0.000,0.000,0.000,0.000,
9.84,250,3328,2340,627,1553,0,1469,3015,0,0,0,0,0,0,0,0,1.358,2.911,9.814,0.087,0.142,-0.001,0.000,0.000,0.000,0.000,0.000,0.000,
9.85,191,2983,2214,577,1409,0,1355,2778,0,0,0,0,0,0,0,0,2.181,2.751,9.764,-0.009,0.100,0.039,0.000,0.000,0.000,0.000,0.000,0.000,
9.86,163,2795,1990,505,1307,0,1230,2595,0,0,0,0,0,0,0,0,1.305,3.206,10.022,-0.080,-0.110,-0.094,0.000,0.000,0.000,0.000,0.000,0.000,
9.87,203,3101,2157,551,1415,0,1335,2805,0,0,0,0,0,0,0,0,1.913,2.406,9.443,0.110,0.015,0.026,0.000,0.000,0.000,0.000,0.000,0.000,
