timestamp,L1,L2,L3,L4,L5,L6,L7,L8,R1,R2,R3,R4,R5,R6,R7,R8,acc_x_left,acc_y_left,acc_z_left,gyro_x_left,gyro_y_left,gyro_z_left,acc_x_right,acc_y_right,acc_z_right,gyro_x_right,gyro_y_right,gyro_z_right,mood
0.00,0,0,0,0,0,0,0,0,2747,2383,15,3017,1435,7,1048,887,1.513,5.583,9.048,-0.551,-0.817,0.718,2.454,-3.266,9.390,-0.413,1.131,-3.188,angry
0.01,0,0,0,0,0,0,0,0,2761,2297,23,3035,1574,5,1131,783,1.585,5.519,8.973,-0.745,-0.879,0.614,1.820,-3.508,9.349,-0.472,1.239,-3.587,angry
0.02,0,0,0,0,0,0,0,0,2761,2319,7,3005,1742,0,1139,473,1.939,5.164,8.112,-0.930,-0.804,0.493,1.820,-3.594,9.287,-0.538,1.325,-3.993,angry
0.03,0,0,0,0,0,0,0,0,2744,2383,0,2956,2007,11,1279,348,2.184,4.934,7.855,-1.118,-0.714,0.347,0.675,-4.664,8.868,-0.563,1.293,-4.235,angry
0.04,0,0,0,0,0,0,0,0,2727,2393,130,2911,2279,0,1485,405,2.856,4.863,7.731,-1.235,-0.711,0.158,1.298,-4.436,9.124,-0.577,1.220,-4.173,angry
0.05,0,0,0,0,0,0,0,0,2717,2350,10,2751,2523,7,1607,341,3.309,4.396,6.864,-1.318,-0.707,-0.021,0.606,-4.286,9.103,-0.549,1.004,-3.670,angry
0.06,0,0,0,0,0,0,0,0,2682,2440,7,2588,2744,7,1695,381,3.802,3.728,6.424,-1.253,-0.847,-0.206,0.397,-4.305,9.258,-0.398,0.645,-2.763,angry
0.07,0,0,0,0,0,0,0,0,2549,2461,0,2364,2797,7,1832,443,4.932,3.900,7.214,-1.139,-1.176,-0.275,0.467,-3.910,9.675,-0.145,0.227,-1.589,angry
0.08,0,0,0,0,0,0,0,0,2341,2441,0,2187,2799,4,1902,615,6.713,4.681,7.654,-1.123,-1.411,-0.144,1.233,-3.338,9.589,0.116,-0.188,-0.433,angry
0.09,0,0,0,0,0,0,0,0,2323,2701,63,2196,3100,25,2028,884,7.039,4.401,7.123,-1.177,-1.411,0.052,1.690,-2.847,9.474,0.126,-0.427,0.026,angry
0.10,0,0,0,0,0,0,0,0,2332,2797,58,2083,3177,6,2261,1257,6.278,3.694,7.558,-1.164,-1.428,0.169,0.769,-3.733,9.208,0.205,-0.365,0.019,angry
0.11,0,0,0,0,0,0,0,0,2203,2735,17,2020,3177,6,2520,1617,6.404,3.249,7.075,-1.106,-1.388,0.204,0.857,-3.347,9.483,0.247,-0.260,0.003,angry
0.12,0,0,0,0,0,0,0,0,1977,2749,23,2119,3315,7,2771,1961,5.248,3.144,8.533,-1.051,-1.549,0.194,1.381,-3.172,9.723,0.190,-0.226,-0.022,angry
0.13,0,0,0,0,0,0,0,0,1209,2741,58,1955,3355,8,2899,2139,4.537,3.282,8.159,-1.078,-1.711,0.180,1.111,-3.352,10.060,0.181,-0.151,-0.013,angry
0.14,0,0,0,0,0,0,65,0,747,2643,0,1608,3388,7,3125,2439,4.044,3.938,8.614,-1.035,-1.808,0.123,1.393,-3.302,9.519,0.305,-0.128,-0.031,angry
0.15,0,0,0,0,0,0,112,0,575,2579,12,1211,3419,7,3207,2525,3.687,4.183,8.918,-1.006,-1.733,0.143,1.664,-3.098,9.467,0.280,-0.130,-0.040,angry
0.16,0,0,0,0,0,0,149,0,383,2402,7,599,3431,7,3373,2660,2.356,4.209,7.946,-0.914,-1.520,0.121,2.155,-3.452,9.304,0.271,-0.064,-0.105,angry
0.17,0,0,0,0,0,0,195,0,186,2411,5,126,3399,3,3407,2713,1.556,4.223,7.439,-0.775,-1.520,0.060,2.021,-3.431,9.510,0.345,-0.019,-0.165,angry
0.18,0,58,0,0,0,0,314,0,59,2157,5,54,3316,1,3439,2787,-2.610,8.270,17.523,-2.161,0.620,-0.491,1.666,-3.527,9.852,0.459,-0.041,-0.295,angry
0.19,0,278,0,0,0,0,333,0,0,1892,0,0,3193,0,3509,2908,-7.424,3.182,12.055,-1.957,0.346,-1.320,1.590,-2.892,9.601,0.468,-0.049,-0.331,angry
0.20,0,375,0,0,0,0,307,0,0,1609,0,0,3004,0,3540,3021,-6.831,5.598,12.476,-1.766,0.580,-1.883,1.827,-1.853,10.063,0.329,-0.131,-0.289,angry
0.21,0,545,0,0,0,0,480,147,0,955,2,0,2803,0,3535,3101,8.902,9.584,-0.081,-0.152,1.462,-0.667,1.879,-2.124,8.940,0.256,0.024,-0.185,angry
0.22,0,720,0,0,0,0,752,1232,0,607,0,0,2604,0,3479,3175,-1.856,4.800,15.182,-0.317,1.112,-0.096,2.638,-2.217,8.772,0.116,0.107,-0.087,angry
0.23,0,832,0,0,0,0,1284,1921,0,596,0,0,2393,0,3363,3227,3.558,3.393,9.069,-0.046,0.589,0.095,2.787,-2.595,8.851,0.031,0.210,-0.010,angry
0.24,16,1251,0,31,0,0,1679,2249,0,507,0,0,2079,0,3213,3261,4.805,3.618,8.188,0.042,0.423,0.134,2.188,-2.804,9.519,0.035,0.281,0.001,angry
0.25,51,1501,0,0,0,0,1945,2478,0,267,0,0,1630,1,3031,3275,3.517,3.436,9.218,-0.004,0.311,0.122,2.045,-2.780,9.383,0.061,0.334,-0.013,angry
0.26,112,1669,0,145,0,0,2283,2676,2,249,0,0,1109,0,2776,3245,4.073,3.512,8.780,-0.097,0.197,0.098,2.052,-2.495,9.249,0.037,0.358,-0.012,angry
0.27,131,1821,0,209,0,0,2654,2939,0,13,0,0,359,0,2451,3223,3.824,3.381,8.159,-0.136,0.215,0.078,1.994,-2.787,9.608,0.018,0.368,-0.002,angry
0.28,145,1825,0,342,1685,0,2957,3163,0,0,0,0,125,1,1298,3005,3.706,3.287,8.497,-0.173,0.324,0.082,2.990,-2.794,9.505,-0.097,0.325,-0.075,angry
0.29,219,1924,0,571,2014,0,3179,3335,0,0,0,0,0,0,530,2507,3.433,3.124,9.330,-0.121,0.293,0.029,6.342,-3.852,10.171,-0.339,0.335,-0.562,angry
0.30,369,1925,0,833,2258,0,3322,3453,0,0,0,0,0,0,317,2127,3.637,3.656,9.301,-0.005,0.187,0.002,17.751,-9.536,8.861,-0.063,1.538,-1.054,angry
0.31,458,2032,0,1137,2418,0,3391,3508,0,0,0,0,0,0,0,919,3.038,2.931,9.120,0.111,0.081,-0.078,16.202,-3.472,2.358,-0.382,2.821,-3.091,angry
0.32,498,2131,0,1232,2516,0,3423,3528,0,0,0,0,0,0,0,414,2.923,2.787,8.796,0.202,0.034,-0.125,8.056,-1.417,4.879,-1.271,2.875,-3.165,angry
0.33,554,2246,0,1362,2523,0,3435,3516,0,0,0,0,0,0,0,405,3.278,3.543,9.115,0.203,-0.008,-0.102,8.377,0.192,10.860,-1.807,0.842,-2.989,angry
0.34,602,2352,0,1387,2559,0,3442,3485,0,0,0,0,0,0,0,328,3.469,3.558,8.902,0.179,-0.025,-0.077,11.360,3.510,13.276,-1.686,-0.285,-2.570,angry
0.35,593,2510,0,1600,2670,0,3431,3422,1547,2571,0,2483,2587,1655,1559,3118,3.527,3.096,8.739,0.196,-0.003,-0.136,5.428,8.952,14.648,-0.568,-1.438,-1.600,angry
0.36,570,2555,0,1840,2708,0,3378,3338,1405,2598,0,2451,2515,1707,1611,3099,3.282,3.033,8.638,0.207,0.038,-0.214,1.760,11.993,13.123,-0.155,-2.165,-1.101,angry
0.37,598,2659,0,2073,2791,0,3312,3237,1501,2590,0,2473,2552,1683,1583,3113,3.390,3.536,8.787,0.206,-0.013,-0.212,2.787,8.255,15.866,1.098,-1.730,-0.244,angry
0.38,631,2813,0,2172,2880,0,3234,3097,1559,2583,0,2495,2584,1647,1547,3125,3.428,3.417,8.722,0.253,-0.026,-0.253,3.127,3.584,11.495,1.844,-1.229,0.074,angry
0.39,729,2965,0,2372,2941,0,3084,2869,1561,25,0,140,2599,1661,1811,17,3.486,3.263,8.610,0.282,-0.021,-0.324,3.019,1.911,8.815,1.712,-1.057,-0.012,angry
0.40,834,3091,0,2559,2752,0,2749,2371,0,0,0,0,0,0,0,0,3.452,3.515,8.586,0.328,-0.065,-0.339,2.490,-2.291,8.566,0.726,-0.745,-0.525,angry
0.41,1037,3174,0,2652,0,0,2513,1399,0,0,0,0,0,0,0,0,3.620,4.008,8.794,0.333,-0.074,-0.306,2.217,-4.666,10.364,0.498,-0.515,-0.886,angry
0.42,1232,3263,0,2776,0,0,2317,771,1568,2569,0,2489,2581,1651,1555,3113,3.486,3.864,8.602,0.339,-0.030,-0.290,1.702,-6.685,12.100,0.514,-0.231,-1.237,angry
0.43,1788,3406,0,2927,0,0,1712,0,1557,2571,0,2489,2575,1651,1558,3117,3.476,4.075,8.574,0.406,0.029,-0.264,-0.881,-9.579,11.873,0.961,-0.398,-1.775,angry
0.44,2278,3565,0,3041,0,0,903,0,0,0,0,0,0,0,0,0,3.400,4.178,8.521,0.421,0.094,-0.299,-1.492,-10.860,9.416,1.175,-0.372,-1.878,angry
0.45,2487,3632,0,3114,0,0,628,0,0,0,0,0,0,0,0,0,3.261,3.402,8.765,0.631,0.103,-0.235,-3.165,-11.650,3.946,0.704,-0.283,-1.951,angry
0.46,2659,3693,0,3179,0,0,681,0,0,0,0,0,0,0,0,0,3.421,3.749,8.636,0.804,0.203,-0.216,-4.243,-13.056,2.310,0.147,0.185,-1.696,angry
0.47,2800,3730,0,3230,0,0,686,0,0,0,0,0,0,0,0,0,3.306,3.871,8.535,1.016,0.151,-0.216,-4.575,-14.722,2.569,-0.483,0.376,-1.559,angry
0.48,2896,3759,0,3263,0,0,673,0,0,6,0,0,0,0,0,0,2.907,4.487,9.052,1.183,0.070,-0.181,-4.022,-16.637,1.367,-1.096,0.412,-1.620,angry
0.49,2991,3779,0,3312,0,0,646,0,0,0,0,0,0,0,0,75,3.211,4.195,8.557,1.295,0.003,-0.171,-3.476,-19.506,0.733,-1.855,0.300,-1.858,angry
0.50,3053,3787,0,3335,0,0,560,0,0,0,0,0,0,0,0,317,3.345,4.250,8.325,1.426,0.054,-0.169,-2.523,-15.206,1.331,-2.079,0.165,-1.905,angry
0.51,3109,3775,0,3350,0,0,467,0,0,0,0,0,0,0,55,906,3.946,3.871,8.270,1.717,0.039,-0.168,-2.811,-2.674,19.613,-1.449,0.364,-1.217,angry
0.52,3107,3744,0,3353,0,0,430,0,0,0,17,0,0,0,503,1671,4.954,3.960,8.708,2.050,0.011,-0.170,-5.171,3.359,14.538,-1.787,-0.029,-0.719,angry
0.53,3169,3632,0,3334,0,0,286,0,0,0,0,0,16,0,1049,2387,4.882,4.264,8.217,2.442,0.076,-0.281,-6.876,-2.878,17.777,-1.864,0.063,0.633,angry
0.54,3183,3376,0,3282,0,0,54,0,0,0,7,0,5,0,1581,2862,4.199,3.790,8.246,2.892,0.145,-0.474,6.883,-6.958,10.147,-0.961,0.933,0.514,angry
0.55,3178,2610,0,2993,0,0,0,0,1,0,5,1,91,0,1915,3240,5.629,4.343,9.591,3.209,0.190,-0.817,6.359,-5.966,7.875,-0.726,1.706,0.074,angry
0.56,3133,2028,0,2083,0,0,0,0,0,0,0,0,155,0,2131,3367,5.303,4.262,12.775,3.603,-0.214,-1.337,-1.707,-2.636,14.832,-0.519,1.603,0.451,angry
0.57,2950,1555,0,1783,0,0,0,0,0,0,0,0,207,0,2495,3507,7.614,4.379,16.202,4.066,-0.795,-2.253,3.994,-3.970,9.821,-0.173,1.662,0.314,angry
0.58,1878,904,0,1072,0,0,0,0,0,0,0,0,293,0,2543,3451,6.448,2.057,19.613,4.108,-1.416,-3.046,1.496,-4.240,12.244,-0.252,1.359,0.120,angry
0.59,847,503,0,584,0,0,0,0,0,0,0,3,269,0,2664,3675,19.613,-9.450,19.613,1.836,-0.104,-2.956,1.219,-4.542,12.194,0.012,0.880,-0.204,angry
0.60,138,0,0,295,0,0,0,0,0,0,7,37,201,0,2669,3591,15.917,-17.957,19.613,-0.767,0.700,-2.274,2.164,-2.899,10.432,-0.090,0.617,-0.347,angry
0.61,0,0,0,0,0,0,0,0,1567,2565,0,2491,2581,1648,1553,3119,11.952,-19.522,19.613,-2.342,0.156,-2.442,2.239,-3.196,10.230,0.004,0.511,-0.518,angry
0.62,0,0,0,0,0,0,0,0,0,0,2,28,203,0,2859,3817,15.780,-11.712,17.475,-3.873,-0.599,-2.046,2.717,-2.128,8.552,-0.106,0.376,-0.535,angry
0.63,0,0,0,0,0,0,0,0,0,0,7,10,153,0,2867,3827,15.981,-7.568,13.915,-4.076,-1.247,-1.397,2.291,-1.432,8.712,-0.296,0.400,-0.564,angry
0.64,0,0,0,0,0,0,0,0,0,0,0,0,170,0,2879,3828,16.953,-2.598,10.956,-3.861,-1.845,-0.340,2.330,-1.446,7.987,-0.425,0.613,-0.497,angry
0.65,0,0,0,0,0,0,0,0,0,0,0,163,187,0,2888,3823,16.434,0.484,10.137,-3.401,-2.224,0.914,-1.791,0.192,10.434,-0.541,0.700,-0.279,angry
0.66,0,0,0,0,0,0,0,0,0,0,0,239,221,0,2871,3799,13.884,2.856,10.420,-2.904,-2.427,2.061,-0.532,-1.954,10.479,-0.542,0.451,-0.114,angry
0.67,0,0,0,0,0,0,0,0,0,0,0,543,292,0,2862,3769,11.052,4.420,11.200,-2.463,-2.472,2.911,0.014,-3.010,10.716,-0.313,0.350,-0.003,angry
0.68,0,0,0,0,0,0,0,0,0,2,0,767,368,0,2845,3694,9.136,5.777,11.655,-2.160,-2.288,3.449,-0.460,-2.105,10.386,-0.211,0.224,0.126,angry
0.69,0,0,0,0,0,0,0,0,0,2,2,675,380,0,2809,3683,8.131,6.814,11.090,-2.021,-1.740,3.786,0.630,-2.040,9.649,-0.156,0.314,0.274,angry
0.70,0,0,0,0,0,0,0,0,0,0,0,827,415,0,2708,3628,4.520,7.317,11.851,-1.935,-1.227,3.989,0.788,-1.882,9.306,-0.162,0.496,0.419,angry
0.71,0,0,0,0,0,0,0,0,0,0,0,1149,374,0,2533,3501,1.858,6.795,10.408,-1.717,-1.097,3.760,1.362,-1.870,9.227,-0.238,0.659,0.619,angry
0.72,0,0,0,0,0,0,0,0,3,0,0,1258,447,71,2325,3501,2.595,6.984,6.895,-1.307,-0.498,3.298,1.618,-2.844,10.228,-0.288,0.708,0.755,angry
0.73,0,0,0,0,0,0,0,0,0,0,0,1620,603,0,1919,3455,2.270,8.138,7.982,-0.845,0.047,2.800,2.073,-2.976,9.629,-0.407,0.598,0.747,angry
0.74,0,0,0,0,0,0,0,0,2,0,0,2085,761,2,1641,3363,3.103,10.477,10.262,-0.590,0.299,2.380,1.508,-3.225,9.828,-0.420,0.434,0.558,angry
0.75,0,0,0,0,0,0,0,0,171,48,2,2181,819,3,1575,3240,4.717,14.099,13.532,-0.267,0.244,2.135,1.434,-5.717,10.297,-0.432,0.081,0.158,angry
0.76,0,0,0,0,0,0,0,0,618,202,7,2439,1066,5,1293,3020,2.945,18.103,18.225,-1.405,0.309,2.200,1.274,-3.821,9.002,-0.154,-0.260,0.055,angry
0.77,0,0,0,0,0,0,0,0,1270,567,10,2669,1179,0,1079,2740,0.704,18.823,14.664,-1.977,-0.152,2.473,1.188,-2.878,8.490,-0.164,-0.316,0.004,angry
0.78,0,0,0,0,0,0,0,0,2229,1430,7,2989,1401,6,173,1337,-3.191,16.137,1.693,-1.783,0.138,2.160,1.662,-3.055,10.554,-0.525,-0.143,-0.010,angry
0.79,0,0,0,0,0,0,0,0,2611,1614,0,3118,1396,4,35,572,-3.824,18.184,0.960,-0.859,0.396,1.413,1.542,-3.421,9.555,-0.763,-0.317,-0.037,angry
0.80,0,0,0,0,0,0,0,0,2825,1787,15,3228,1043,3,3,667,-2.938,19.532,1.403,-0.470,0.362,0.993,0.912,-2.729,9.357,-0.781,-0.492,0.148,angry
0.81,0,0,0,0,0,0,0,0,3087,2141,10,3325,907,3,3,231,-1.494,19.482,0.510,0.108,0.119,0.662,1.264,-2.413,9.402,-0.770,-0.520,0.141,angry
0.82,0,0,0,0,0,0,0,85,3261,2323,7,3411,525,5,2,167,-0.122,19.613,-1.525,0.576,0.201,0.459,1.578,-2.964,8.459,-0.644,-0.727,-0.076,angry
0.83,0,0,0,0,0,0,251,1216,3466,2357,2,3479,279,5,2,118,-11.183,19.316,-5.811,2.415,-0.593,0.361,1.020,-1.951,10.027,-1.561,-0.308,-0.244,angry
0.84,0,0,0,0,0,0,1494,3254,3635,2149,2,3751,105,4,4,104,10.412,18.754,7.975,3.713,-1.166,-2.694,2.112,-2.722,9.902,-3.138,0.504,-0.496,angry
0.85,0,7,0,0,846,0,3107,3649,3619,1161,12,3502,17,2,0,109,16.271,10.362,13.601,1.809,2.174,-2.306,2.808,-0.223,11.593,-4.366,2.144,0.708,angry
0.86,0,887,0,0,1982,0,3406,3717,3433,327,2,2983,0,3,0,73,1.310,5.760,14.313,0.900,2.381,-1.456,7.427,0.809,17.054,-4.366,2.855,2.970,angry
0.87,0,1741,0,0,2409,0,3475,3760,3113,3,0,1995,1,0,0,0,7.889,6.208,9.814,0.541,2.030,-1.130,10.388,-4.817,19.613,-4.366,2.331,4.366,angry
0.88,0,2243,0,105,2720,0,3529,3794,2635,0,0,581,0,0,0,0,2.818,6.105,14.983,0.606,1.466,-0.911,7.393,-9.591,19.613,-4.366,2.606,4.366,angry
0.89,137,2510,0,307,2849,0,3570,3798,475,0,0,97,3,0,0,0,4.889,3.515,8.301,0.456,0.822,-0.597,-4.990,-9.610,19.613,-4.366,1.397,4.366,angry
0.90,314,2690,0,592,2874,0,3600,3789,0,0,0,0,0,3,0,0,3.148,3.610,9.852,0.444,0.392,-0.431,15.055,2.375,19.613,-0.424,-0.025,4.366,angry
0.91,496,2832,0,841,2969,0,3583,3744,1565,2573,0,2491,2582,1655,1558,3119,3.950,3.807,9.426,0.531,0.282,-0.446,19.613,-6.553,17.846,0.637,-1.465,1.605,angry
0.92,575,3021,0,1216,3042,0,3470,3581,1555,2569,51,2487,2685,1611,1555,3119,3.692,4.252,9.206,0.406,0.211,-0.291,11.672,3.677,12.749,2.414,-1.963,-1.662,angry
0.93,718,3154,0,1505,3058,0,3340,3302,0,0,0,0,0,0,11,0,3.895,3.575,8.729,0.401,0.225,-0.300,-2.535,3.089,12.433,3.668,-2.945,-1.921,angry
0.94,761,3210,0,1680,2999,0,3161,3063,0,9,0,0,0,0,0,0,3.716,3.735,8.753,0.372,0.205,-0.306,-5.693,1.937,12.354,4.163,-2.974,-1.037,angry
0.95,827,3243,0,1857,2894,0,2930,2779,0,0,0,7,0,23,0,0,3.783,3.670,8.708,0.367,0.160,-0.311,-4.887,0.208,11.885,4.366,-2.643,-0.286,angry
0.96,895,3269,0,2079,2751,0,2693,2496,1558,2557,0,2489,2583,1648,1555,3119,3.950,4.034,8.588,0.378,0.122,-0.344,-3.196,-0.781,11.032,4.366,-2.449,-0.072,angry
0.97,935,3307,0,2320,880,0,2178,1955,1561,2567,0,2491,2583,1643,1553,3135,3.472,3.929,8.365,0.351,0.173,-0.362,-0.443,-1.709,10.920,4.366,-2.449,-0.363,angry
0.98,1152,3314,0,2605,1607,0,1399,1210,1561,2565,0,2493,2583,1643,1549,3047,3.247,4.482,8.772,0.133,0.252,-0.225,-1.683,-2.981,15.191,4.366,-2.787,-1.659,angry
0.99,1214,3321,0,2806,1594,0,1137,691,0,0,0,0,0,0,0,0,3.179,4.003,8.198,0.058,0.241,-0.175,-5.078,-3.627,17.286,4.366,-2.619,-2.010,angry
1.00,1438,3312,0,2933,1675,0,1136,592,1563,2588,0,2493,2583,1644,1553,3123,2.863,3.261,8.456,0.134,0.196,-0.205,-4.774,-4.405,19.223,4.366,-2.207,-1.905,angry
1.01,1777,3375,0,3142,1934,0,925,112,1563,2567,0,2493,2581,1643,1553,3123,3.175,3.998,8.792,0.245,0.075,-0.189,-3.433,-6.467,19.613,4.366,-1.487,-1.794,angry
1.02,2258,3520,0,3263,1946,0,467,0,1560,2549,0,2491,2581,1645,1469,3119,3.555,4.293,8.636,0.359,0.024,-0.219,-10.721,-14.808,19.613,4.366,-1.832,-2.206,angry
1.03,2619,3664,0,3381,1682,0,323,0,0,0,0,0,0,0,0,0,3.237,4.061,9.321,0.492,0.135,-0.240,-9.067,-19.613,14.497,3.854,-1.322,-1.786,angry
1.04,2830,3722,0,3445,1355,0,299,0,0,0,79,0,0,1,0,0,3.543,4.405,8.384,0.802,0.148,-0.224,-0.713,-19.613,-6.464,2.554,1.199,-1.282,angry
1.05,3009,3775,0,3521,1072,0,197,0,9,2,7,1,5,3,1,7,2.794,4.187,9.158,1.081,0.157,-0.163,-18.452,-19.613,-6.591,1.529,-0.124,0.144,angry
1.06,3183,3799,0,3583,736,0,112,0,25,10,28,10,13,9,10,9,3.445,4.152,8.803,1.252,0.314,-0.154,-6.668,-19.613,-8.114,-0.267,-2.845,0.414,angry
1.07,3408,3799,0,3647,0,0,0,0,37,8,28,9,9,0,9,19,5.564,1.381,7.487,1.823,0.449,-0.062,0.795,-19.613,-13.422,-2.537,-2.254,-0.792,angry
1.08,3534,3696,0,3664,0,0,0,0,3,4,12,3,2,1,5,6,4.444,2.636,8.866,2.909,0.486,-0.237,-3.481,-19.613,-6.177,-3.579,0.367,-0.535,angry
1.09,3639,3117,0,3673,0,0,0,0,0,1,7,0,0,0,0,517,5.085,2.234,8.698,3.866,0.686,-0.409,5.392,-2.770,19.613,-1.249,1.520,0.826,angry
1.10,3711,2704,0,3614,0,0,0,0,1,3,0,0,0,0,173,1719,8.052,3.122,8.600,4.717,1.187,-0.713,-5.622,16.762,7.966,-4.366,-2.324,-0.390,angry
1.11,3726,2106,0,3445,0,0,0,0,0,0,5,0,0,21,507,2521,9.081,3.036,9.776,5.291,1.866,-1.397,0.457,-13.829,15.658,-4.218,0.626,2.185,angry
1.12,3648,1386,0,3045,0,0,0,0,0,0,7,0,8,0,1251,3164,2.636,2.631,19.613,6.275,1.341,-2.633,2.938,-19.249,19.613,-3.090,0.514,0.590,angry
1.13,3355,861,0,1635,0,0,0,0,1562,2573,0,2533,2589,1671,1553,3158,3.491,10.362,19.613,7.195,0.780,-4.022,1.247,2.224,7.547,-2.608,0.243,0.737,angry
1.14,226,135,0,448,0,0,0,0,0,0,2,1,420,0,2877,3897,9.601,0.124,19.613,3.823,0.047,-4.365,1.302,-5.090,13.173,-0.454,2.001,0.849,angry
1.15,0,0,0,208,0,0,0,0,0,0,2,0,1041,0,3144,3946,19.613,-11.741,19.613,0.340,-0.019,-3.691,4.413,-4.128,10.108,-0.144,1.792,0.805,angry
1.16,0,0,0,0,0,0,0,0,2,0,0,1,1541,0,3289,3975,19.613,-6.946,19.613,-1.099,0.666,-2.498,2.136,-3.915,11.243,-0.208,1.427,0.632,angry
1.17,0,0,0,0,0,0,0,0,0,0,2,37,1719,0,3339,3991,19.613,-6.103,19.534,-2.741,0.742,-0.881,1.640,-2.198,10.127,-0.102,1.270,0.522,angry
1.18,0,0,0,0,0,0,0,0,0,0,2,0,1788,0,3349,3993,15.818,-8.023,12.311,-3.283,-0.016,-0.068,0.950,-2.703,11.600,-0.293,0.942,0.491,angry
1.19,0,0,0,0,0,0,0,0,1,1,5,1,1737,0,3255,3987,12.045,-3.996,11.406,-3.462,-1.453,0.631,2.440,-2.473,9.024,-0.329,0.890,0.448,angry
1.20,0,0,0,0,0,0,0,0,3,1,2,2,1660,1,3143,3930,12.239,-1.480,8.880,-3.439,-2.440,1.332,1.391,-2.535,9.732,-0.341,0.827,0.367,angry
1.21,0,0,0,0,0,0,0,0,0,2,17,10,1635,1,3047,3934,11.056,1.975,9.512,-3.515,-2.572,2.069,1.578,-2.849,9.699,-0.325,0.681,0.281,angry
1.22,0,0,0,0,0,0,0,0,5,3,7,186,1491,2,2717,3507,8.080,3.206,9.309,-3.657,-2.455,2.617,1.911,-1.585,9.867,-0.308,0.491,0.229,angry
1.23,0,0,0,0,0,0,0,0,1568,2567,0,2503,2586,1638,1548,3133,5.918,4.085,9.462,-3.652,-2.365,2.920,-0.283,-2.512,11.047,-0.364,0.197,0.186,angry
1.24,0,0,0,0,0,0,0,0,1565,2564,0,2495,2583,1637,1531,3100,4.245,5.361,11.609,-3.610,-2.233,3.064,1.307,-2.823,9.646,-0.292,0.278,0.379,angry
1.25,0,0,0,0,0,0,0,0,1565,2567,2,2491,2447,1631,1548,3127,5.885,7.269,12.763,-3.616,-1.886,3.269,1.403,-2.806,9.718,-0.258,0.372,0.440,angry
1.26,0,0,0,0,0,0,0,0,69,213,43,1703,1421,9,1749,3433,6.323,7.860,13.628,-3.457,-1.417,3.493,1.336,-2.861,9.397,-0.258,0.287,0.434,angry
1.27,0,0,0,0,0,0,0,0,1566,2575,53,2515,2595,1645,1551,3143,5.679,7.647,12.541,-3.171,-1.296,3.604,1.480,-3.366,9.613,-0.247,0.283,0.278,angry
1.28,0,0,0,0,0,0,0,0,1564,2571,58,2519,2591,1620,1549,3126,6.867,10.949,14.478,-2.601,-0.441,3.520,1.358,-3.318,9.637,-0.286,0.232,0.168,angry
1.29,0,0,0,0,0,0,0,0,1568,2567,40,2505,2589,1637,1545,3143,0.871,15.040,14.712,-2.558,1.296,3.199,1.458,-3.421,9.122,-0.157,0.184,0.169,angry
1.30,0,0,0,0,0,0,0,0,2107,876,84,2901,1751,13,541,1992,-7.187,19.613,19.613,-3.369,-0.672,2.540,2.045,-4.137,7.685,-0.058,0.036,0.198,angry
1.31,0,0,0,0,0,0,0,0,1574,2571,28,2503,2589,1630,1545,3126,-10.470,19.613,-6.254,-2.668,-2.100,1.398,1.173,-3.153,9.165,-0.596,0.102,0.018,angry
1.32,0,0,0,0,0,0,0,0,1589,2572,20,2508,2589,1635,1548,3127,-6.292,19.613,-9.996,-0.176,-1.054,0.106,0.749,-2.693,9.498,-0.751,0.003,-0.120,angry
1.33,0,0,0,0,0,0,0,80,1624,2571,17,2511,2591,1635,1551,3139,-1.444,19.613,-3.280,1.841,0.901,0.005,1.329,-2.938,8.904,-0.822,-0.101,-0.245,angry
1.34,0,0,0,0,0,0,597,2618,1635,2575,15,2510,2591,1596,1555,3141,-3.596,-11.935,-11.372,5.106,-0.712,-0.683,2.119,-1.784,10.321,-1.740,-0.300,-0.417,angry
1.35,0,0,0,0,342,0,2127,3495,1627,2565,15,2503,2584,1629,1529,3128,0.350,13.434,19.613,4.647,-0.513,-2.498,2.808,-0.045,10.405,-3.676,0.036,-0.515,angry
1.36,0,11,0,0,656,0,3087,3712,3735,280,58,3002,17,11,5,207,19.613,17.030,19.613,1.780,2.658,-2.475,3.345,1.470,12.507,-4.366,2.482,0.710,angry
1.37,0,1228,0,0,1872,0,3291,3787,1545,2569,0,2504,2587,1637,1547,3123,-1.132,7.997,19.613,0.871,2.950,-1.693,7.441,-6.670,19.613,-4.366,3.122,4.366,angry
1.38,212,2128,0,923,2308,0,3382,3843,1563,2567,0,2509,2606,1635,1545,3129,1.832,5.674,14.882,0.481,0.834,-0.692,10.362,-13.829,19.613,-4.366,3.276,4.366,angry
1.39,448,2356,0,1388,2638,0,3440,3838,2,0,0,0,0,0,0,0,3.338,4.056,10.434,0.360,0.357,-0.372,15.742,2.751,19.613,-0.712,0.036,4.366,angry
1.40,578,2498,0,1641,2718,31,3442,3811,0,0,0,0,0,0,0,0,3.184,3.579,9.871,0.324,0.210,-0.274,19.613,-3.934,19.613,1.358,-0.465,2.746,angry
1.41,663,2613,0,1843,2739,0,3405,3771,1545,2573,0,2477,2611,1647,1557,3115,3.409,4.068,9.325,0.256,0.037,-0.182,15.311,7.745,11.444,2.870,0.270,1.474,angry
1.42,859,2737,0,1907,2797,0,3248,3583,1561,2613,0,2502,2587,1647,1553,3128,3.460,3.225,8.741,0.288,0.072,-0.168,9.869,0.694,10.783,3.045,-2.412,-1.542,angry
1.43,853,2839,0,2103,2581,0,2831,3287,0,0,2,0,0,0,0,0,4.068,3.567,8.492,0.392,0.198,-0.304,5.844,-1.214,14.195,4.117,-2.501,-2.169,angry
1.44,911,2896,0,2237,2303,0,2502,3039,0,22,0,0,0,0,0,0,3.709,3.417,8.617,0.433,0.188,-0.346,-0.512,-1.913,13.539,4.366,-2.940,-2.439,angry
1.45,909,2928,0,2413,1664,0,2063,2691,0,0,0,0,0,0,0,0,3.402,3.718,8.483,0.421,0.165,-0.342,-4.877,-1.618,10.458,4.366,-3.343,-2.077,angry
1.46,995,2933,0,2518,1207,0,1513,2319,19,0,0,0,0,0,0,0,3.318,3.740,8.674,0.361,0.127,-0.271,-5.217,-2.040,8.425,4.366,-3.363,-1.415,angry
1.47,931,2921,0,2661,1201,0,1104,1872,0,0,0,0,0,0,0,0,2.959,4.154,8.689,0.281,0.108,-0.278,-3.800,-2.842,8.729,4.366,-2.978,-0.800,angry
1.48,1095,2887,0,2755,0,0,878,1142,1545,2582,0,2495,2583,1653,1563,3129,2.947,4.003,8.638,0.200,0.111,-0.276,-1.939,-3.697,12.237,4.366,-2.879,-0.634,angry
1.49,1270,2821,0,2910,855,0,459,742,1561,2568,0,2494,2621,1640,1549,3129,3.405,4.073,8.289,0.152,0.149,-0.330,0.725,-5.504,16.961,4.366,-2.959,-1.424,angry
1.50,1745,2885,0,3120,1015,0,317,457,1561,2567,0,2495,2583,1641,1547,3102,3.354,4.465,8.619,0.262,0.167,-0.349,-0.852,-7.099,19.613,4.366,-2.745,-2.416,angry
1.51,2273,3038,0,3309,0,0,218,20,1560,2619,0,2495,2583,1641,1547,3125,2.796,4.729,9.208,0.216,0.158,-0.245,-0.694,-9.646,19.613,4.366,-2.151,-2.567,angry
1.52,2665,3216,0,3470,0,0,156,0,3,0,30,0,0,0,0,0,3.172,4.245,9.074,0.374,0.001,-0.255,-11.102,-16.008,19.613,4.366,-2.478,-2.707,angry
1.53,2868,3344,0,3555,0,0,0,0,0,0,0,0,0,0,0,0,3.168,4.149,8.552,0.432,-0.063,-0.234,-11.061,-19.613,19.613,4.366,-1.726,-2.031,angry
1.54,3054,3472,0,3631,914,0,0,0,0,0,0,0,0,0,27,0,3.184,4.049,8.789,0.773,-0.059,-0.187,4.846,-19.613,3.661,2.941,-0.834,-2.135,angry
1.55,3234,3547,0,3693,403,0,0,0,0,0,0,0,0,0,0,0,3.141,3.953,8.291,1.139,-0.060,-0.160,-16.398,-19.613,-8.552,2.794,-0.066,-0.518,angry
1.56,3405,3632,0,3728,487,0,0,0,13,0,0,3,4,16,0,4,2.454,3.768,9.045,1.320,-0.023,-0.051,-11.619,-19.613,-9.538,0.509,-3.012,0.052,angry
1.57,3536,3664,0,3760,0,0,0,0,3,5,15,4,13,5,4,3,2.895,3.718,9.244,1.665,0.138,0.003,-0.764,-19.613,-4.417,-0.551,-2.191,-1.111,angry
1.58,3637,3641,0,3773,0,0,0,0,1,2,10,13,1,1,7,2,3.745,2.966,8.543,2.395,0.280,-0.043,-7.925,-19.613,-2.447,-1.848,-0.019,-1.630,angry
1.59,3710,3441,0,3775,0,0,0,0,0,1,5,1,0,0,53,1,4.846,3.048,8.928,3.151,0.593,-0.151,4.125,-17.794,-2.095,-3.389,1.573,-0.816,angry
1.60,3769,2925,0,3743,0,0,0,0,0,0,2,0,0,0,0,557,6.246,2.868,7.918,4.165,0.836,-0.507,-4.259,16.678,19.613,-1.461,2.034,0.121,angry
1.61,3806,2557,0,3638,0,0,0,0,0,0,2,0,0,0,0,1805,5.933,2.049,8.100,5.156,1.250,-0.835,-3.682,13.690,-0.096,-4.366,-1.824,-0.313,angry
1.62,3808,2002,0,3371,0,0,0,0,0,0,0,0,0,0,87,2326,8.116,5.138,11.143,5.848,1.556,-1.722,1.743,-19.613,19.613,-4.366,0.803,0.783,angry
1.63,3751,1099,0,2288,0,0,0,0,1565,2557,0,2503,2589,1699,1548,3175,9.991,2.947,19.613,6.685,0.426,-3.373,-0.292,-11.085,19.613,-3.657,0.736,-0.111,angry
1.64,2432,164,0,806,0,0,0,0,0,0,2,1,1,0,1803,3895,12.467,11.428,19.613,7.214,0.349,-5.604,4.417,-7.106,11.449,-2.791,0.351,0.226,angry
1.65,630,0,0,23,0,0,0,0,0,0,2,0,39,5,2445,3980,8.820,-0.668,19.613,3.660,-0.813,-5.214,7.317,-3.706,19.613,-2.121,0.386,0.623,angry
1.66,203,0,0,0,0,0,0,0,0,0,0,0,186,0,2855,4022,19.613,-16.561,19.613,-0.425,-1.336,-5.116,4.755,-7.812,15.443,-1.334,0.898,0.716,angry
1.67,134,0,0,0,0,0,0,0,2,1,2,0,285,0,3062,4041,19.613,0.704,19.613,-2.341,-0.269,-3.059,1.192,-3.950,12.696,-0.745,0.782,0.487,angry
1.68,260,0,0,0,0,0,0,0,30,0,5,1,657,0,3225,4053,19.613,-10.997,17.059,-3.974,0.331,-0.715,3.237,-2.507,8.756,-0.283,0.817,0.389,angry
1.69,378,0,0,0,0,0,0,0,13,2,7,0,1173,0,3326,4042,16.522,-8.478,16.139,-4.259,-0.896,0.573,1.235,-1.583,9.383,-0.323,0.890,0.397,angry
1.70,288,0,0,0,0,0,0,0,22,1,7,1,1607,1,3357,4022,9.646,-4.417,16.542,-4.663,-2.585,1.053,3.156,-2.614,9.527,-0.311,1.254,0.569,angry
1.71,338,0,0,0,0,0,0,0,33,0,2,7,1881,1,3295,3955,9.127,0.618,12.536,-4.870,-3.690,1.560,2.100,-3.033,9.694,-0.296,1.109,0.482,angry
1.72,253,0,0,0,0,0,0,0,30,0,2,2,2045,0,3163,3887,11.260,4.894,9.713,-4.789,-3.646,2.180,2.124,-2.593,10.501,-0.562,0.870,0.473,angry
1.73,144,0,0,0,0,0,0,0,37,3,5,56,2149,2,3000,3815,10.228,7.616,9.857,-4.603,-3.127,2.845,1.571,-3.002,10.185,-0.528,0.742,0.460,angry
1.74,31,0,0,0,0,0,0,0,20,1,5,249,2167,1,2773,3736,7.302,8.078,11.138,-4.282,-2.864,3.392,1.978,-3.055,10.072,-0.454,0.512,0.386,angry
1.75,0,0,0,0,0,0,0,0,61,2,5,676,2122,2,2233,3621,5.567,9.321,13.546,-4.023,-2.726,3.566,1.219,-3.390,10.285,-0.387,0.469,0.357,angry
1.76,0,0,0,0,0,0,0,0,136,37,7,893,1976,3,1863,3327,5.092,9.254,13.956,-3.896,-2.419,3.520,1.046,-3.110,10.197,-0.258,0.298,0.345,angry
1.77,0,0,0,0,0,0,0,0,211,245,0,1403,2040,6,1849,3375,4.810,9.110,13.166,-3.759,-2.080,3.389,1.085,-3.646,9.967,-0.210,0.164,0.260,angry
1.78,0,0,0,0,0,0,0,0,173,233,12,1592,2013,6,1639,3261,5.545,9.392,14.186,-3.500,-1.917,3.304,0.970,-5.796,10.937,-0.025,-0.012,0.022,angry
1.79,0,0,0,0,0,0,0,0,267,397,20,1763,2038,9,1461,3119,6.687,10.269,13.281,-3.259,-1.645,3.463,1.168,-3.452,9.699,-0.056,0.051,0.110,angry
1.80,0,0,0,0,0,0,0,0,395,361,12,1933,2037,6,1493,2975,7.008,10.068,11.042,-2.809,-1.146,3.684,1.379,-3.086,9.692,-0.101,0.049,0.132,angry
1.81,0,0,0,0,0,0,0,0,547,479,15,2145,2073,6,1437,2797,7.468,-1.796,9.450,-0.410,-0.717,4.032,1.381,-2.933,9.864,-0.301,0.033,0.121,angry
1.82,0,0,0,0,0,0,0,0,875,660,10,2361,2028,6,1263,2547,4.185,18.962,12.917,-2.031,1.930,3.587,1.638,-3.790,9.826,-0.298,0.167,0.058,angry
1.83,0,0,0,0,0,0,0,0,1157,853,0,2587,2067,7,1177,2075,-0.170,19.613,19.613,-2.901,1.439,3.531,1.324,-4.525,9.756,-0.113,0.258,0.073,angry
1.84,0,0,0,0,0,0,0,0,1491,1159,10,2807,2133,6,1143,1776,2.610,19.613,19.613,-3.359,-0.320,3.913,1.152,-4.207,10.017,0.011,0.117,0.146,angry
1.85,0,0,0,0,0,0,0,0,1994,1399,7,2943,2137,47,389,1285,-14.578,19.613,-4.484,-2.734,-1.845,3.035,1.410,-2.696,8.746,-0.103,-0.017,0.253,angry
1.86,121,0,0,0,0,0,0,0,1590,2557,23,2495,2583,1635,1547,3123,-11.277,19.613,-9.622,-0.291,-0.222,1.283,1.528,-4.027,9.462,-0.632,-0.010,0.002,angry
1.87,171,0,0,0,0,0,0,0,1625,2568,17,2501,2583,1631,1546,3126,-12.953,19.613,-5.442,1.704,0.858,0.209,1.640,-3.050,9.675,-0.885,-0.198,-0.027,angry
1.88,56,0,0,0,0,0,9,2299,1637,2557,15,2507,2585,1637,1547,3123,-16.453,7.609,-12.742,6.398,-1.025,-0.288,1.185,-0.950,10.633,-1.428,-0.253,0.031,angry
1.89,0,0,0,0,0,0,1301,3583,1633,2569,17,2508,2591,1651,1559,3129,0.244,19.613,19.613,6.208,-1.713,-2.063,1.389,-2.504,10.424,-4.366,0.297,0.413,angry
1.90,0,0,0,0,0,0,2692,3806,3631,3,7,2908,23,2,0,222,11.090,7.760,10.637,3.483,-0.113,-1.992,4.099,-1.369,19.613,-4.366,1.907,3.464,angry
1.91,0,352,0,0,1374,0,3071,3835,3365,17,7,1359,1,0,1,95,15.955,17.935,12.088,2.292,2.082,-1.953,9.943,-7.381,19.613,-4.366,1.626,4.366,angry
1.92,139,2169,0,641,2265,0,3342,3866,2611,0,0,663,0,0,0,0,0.122,8.365,19.613,0.880,2.057,-1.411,11.372,-13.424,19.613,-4.366,0.648,4.366,angry
1.93,487,2688,0,1720,2763,0,3387,3857,0,0,0,0,0,0,0,19,3.302,6.500,11.600,0.665,0.528,-0.657,19.613,9.048,19.613,0.226,-0.299,4.366,angry
1.94,843,2864,0,2072,2875,112,3408,3829,0,0,0,0,0,0,0,0,2.751,4.889,10.587,0.630,0.267,-0.438,19.613,8.629,19.613,2.890,0.971,2.195,angry
1.95,1087,2975,0,2330,2921,169,3361,3766,1553,2572,0,2493,2582,1647,1555,3118,3.498,4.599,9.249,0.471,0.211,-0.339,17.042,7.456,10.788,3.398,1.505,0.454,angry
1.96,1349,3089,0,2559,2897,0,3150,3569,0,0,0,0,0,0,0,0,3.685,3.950,8.796,0.322,0.066,-0.193,9.821,4.171,7.168,3.813,-2.629,-1.694,angry
1.97,1535,3141,0,2645,2559,0,2866,3365,0,9,0,1,0,0,0,0,3.850,3.883,8.732,0.408,0.064,-0.237,5.593,0.687,10.247,4.256,-2.915,-2.153,angry
1.98,1727,3155,0,2725,2231,0,2503,3071,0,0,0,0,0,0,0,0,3.711,3.802,8.535,0.418,0.055,-0.240,0.742,-2.988,13.733,4.366,-3.363,-2.296,angry
1.99,1823,3195,0,2798,1851,0,1953,2678,1516,2596,0,2471,2553,1675,1581,3115,3.402,3.982,8.724,0.427,0.048,-0.234,-0.694,-4.573,11.021,4.366,-3.212,-2.006,angry
2.00,1996,3231,0,2886,0,0,896,1618,1499,2587,0,2467,2550,1683,1582,3113,3.388,4.295,8.882,0.397,-0.066,-0.272,-1.492,-3.663,7.963,4.366,-2.762,-1.641,angry
2.01,2167,3280,0,2979,0,0,170,0,0,2639,0,41,0,0,0,3625,2.919,3.831,9.069,0.203,-0.243,-0.444,2.840,-6.294,13.539,4.366,-2.708,-1.730,angry
2.02,2245,3291,0,3006,0,0,27,0,1561,2569,0,2503,2588,1645,1547,3180,2.583,4.039,9.189,0.052,-0.430,-0.596,2.394,-6.840,15.754,4.366,-2.806,-2.185,angry
2.03,2341,3377,0,3097,0,0,0,0,1565,2579,191,2495,2585,1639,1546,3125,3.426,3.740,8.059,-0.080,-0.446,-1.089,-1.434,-8.516,19.613,4.366,-3.275,-2.515,angry
2.04,2193,3408,0,3203,0,0,0,0,0,0,0,0,0,0,0,0,3.290,4.276,8.361,0.104,-0.355,-1.337,-2.921,-9.474,19.613,4.366,-3.303,-2.128,angry
2.05,2174,3455,0,3305,0,0,0,0,0,0,0,0,0,0,0,0,2.689,5.059,9.953,0.085,-0.240,-1.341,-2.354,-10.197,19.613,4.366,-2.431,-1.373,angry
2.06,2287,3478,0,3401,0,0,0,0,0,0,0,0,0,0,0,0,3.278,5.186,7.628,0.238,-0.396,-1.390,-1.745,-11.945,19.613,4.366,-1.986,-1.072,angry
2.07,2542,3494,0,3495,0,0,0,0,0,0,0,0,13,37,0,0,3.534,5.279,7.781,0.268,-0.358,-1.158,-4.597,-16.762,19.613,4.366,-1.851,-1.030,angry
2.08,2761,3520,0,3573,0,0,0,0,0,0,7,0,0,0,0,0,3.168,5.013,8.238,0.394,-0.240,-0.732,-7.638,-19.613,19.613,4.096,-2.770,-1.088,angry
2.09,2996,3559,0,3647,0,0,0,0,0,0,5,0,0,0,0,0,3.033,4.887,8.334,0.576,-0.003,-0.290,-9.859,-19.613,6.546,3.469,-2.861,-1.159,angry
2.10,3200,3609,0,3681,0,0,0,0,0,0,0,0,0,0,0,0,2.732,4.362,8.576,0.745,0.110,-0.048,-15.263,-19.613,-4.286,2.348,-2.490,-1.212,angry
2.11,3330,3649,0,3712,0,0,0,0,0,0,0,0,0,0,0,0,3.256,4.877,8.353,0.930,0.171,0.006,-15.198,-19.613,-5.016,0.956,-1.100,-1.311,angry
2.12,3443,3664,0,3737,0,0,0,0,0,0,0,0,0,0,0,0,3.972,4.386,8.384,1.228,0.245,-0.047,-18.170,-19.613,-2.959,-0.184,0.296,-1.102,angry
2.13,3541,3663,0,3749,471,0,0,0,0,1,0,0,0,10,0,3,4.403,4.341,9.215,1.602,0.253,-0.128,-19.187,-19.613,-0.309,-1.038,0.536,0.011,angry
2.14,3639,3599,0,3758,432,0,0,0,0,0,0,0,0,0,0,0,4.300,3.773,8.657,2.237,0.286,-0.346,-10.333,-5.150,7.120,-2.859,0.217,0.393,angry
2.15,3693,3446,0,3727,0,0,0,0,0,0,0,0,0,0,0,147,3.871,3.127,8.554,3.038,0.219,-0.661,2.203,-9.938,1.853,-1.739,2.803,1.544,angry
2.16,3729,3178,0,3662,0,0,0,0,0,19,0,0,36,0,0,1215,4.808,2.942,8.950,3.875,0.436,-0.989,-1.204,19.613,19.613,-3.617,0.887,2.783,angry
2.17,3739,2710,0,3504,0,0,0,0,0,0,0,0,0,0,244,2463,4.815,2.629,10.130,5.096,0.544,-1.272,2.873,-6.443,6.859,-4.366,1.936,3.471,angry
2.18,3671,2235,0,3201,0,0,0,0,1556,2573,0,2492,2584,1656,1561,3123,2.535,3.127,19.613,6.000,-0.112,-1.493,6.438,-19.613,19.613,-3.675,2.320,1.526,angry
2.19,2836,891,0,1166,0,0,0,0,0,1,2,1,187,1,2316,4023,7.645,9.359,16.922,8.091,-0.804,-2.674,-6.132,-8.619,11.483,-1.662,2.781,0.024,angry
2.20,1392,423,0,330,0,0,0,0,0,6,0,0,803,0,2693,4069,13.736,13.178,12.862,7.857,1.260,-4.171,-4.884,-3.290,12.644,-1.516,2.801,0.402,angry
2.21,758,0,0,0,0,0,0,0,0,746,0,1,1381,0,2831,4089,14.008,11.966,19.376,6.417,3.192,-4.647,2.212,-5.655,17.590,-1.741,2.239,0.497,angry
2.22,167,0,0,0,0,0,0,0,2,985,17,728,1671,2,2964,4095,18.462,5.253,19.613,3.017,2.125,-3.107,1.645,-2.959,13.621,-1.872,1.514,0.440,angry
2.23,0,0,0,0,0,0,0,0,2,745,23,1230,1715,0,2681,3316,19.407,12.847,19.613,1.398,1.786,-2.130,0.625,-5.571,14.004,-2.093,0.418,0.461,angry
2.24,51,0,0,0,0,0,0,0,1577,2555,17,2494,2584,1643,1548,3001,19.063,-3.807,17.506,-0.436,1.969,-0.824,0.170,-4.492,10.202,-1.412,0.410,0.187,angry
2.25,33,0,0,0,0,0,0,0,1587,2745,43,2713,2407,1641,1818,3334,10.039,-3.256,12.962,-1.666,1.669,0.254,-0.014,-4.398,10.570,-0.447,0.173,-0.002,angry
2.26,59,0,0,0,0,0,0,0,613,1471,61,2636,2280,5,2699,3879,11.454,0.108,11.037,-3.227,0.549,1.483,1.501,-3.663,9.594,-0.310,0.185,0.052,angry
2.27,88,0,0,0,0,0,0,0,775,1465,33,2749,2363,7,2469,3707,10.192,0.833,7.824,-3.964,0.778,2.106,1.140,-3.376,9.316,-0.302,0.227,0.031,angry
2.28,112,0,0,0,0,0,0,0,1116,1561,17,2770,2302,9,1880,3259,7.321,1.812,7.290,-4.549,0.974,2.477,2.148,-3.567,9.354,-0.247,0.215,-0.004,angry
2.29,144,0,0,0,0,0,0,0,1369,1715,15,2955,1973,5,943,2456,6.381,2.689,5.667,-5.081,0.652,2.773,1.884,-3.297,9.464,-0.329,0.193,-0.039,angry
2.30,130,0,0,0,0,0,0,0,1391,1891,17,3022,1267,10,719,2262,6.934,4.029,6.551,-5.110,0.425,2.926,1.310,-3.730,9.452,-0.336,0.209,-0.012,angry
2.31,64,0,0,0,0,0,0,0,1619,1897,12,3026,936,6,136,1581,10.458,8.571,8.729,-5.198,-0.204,3.605,1.626,-3.486,9.531,-0.268,0.207,0.063,angry
2.32,26,0,0,0,0,0,0,0,1609,1875,5,3003,595,4,17,1336,11.976,10.508,7.925,-5.240,-0.085,4.052,1.705,-3.912,9.378,-0.381,0.113,0.027,angry
2.33,0,0,0,0,0,0,0,0,1681,1861,2,2917,425,1,17,1095,13.788,12.572,8.990,-5.106,-0.001,4.461,1.757,-3.270,9.366,-0.581,0.029,-0.001,angry
2.34,0,0,0,0,0,0,0,0,1868,1819,2,2889,285,2,20,1044,17.801,16.666,10.482,-4.853,0.084,5.222,1.439,-3.555,9.213,-0.761,-0.027,0.013,angry
2.35,0,0,0,0,0,0,0,0,1911,1719,0,2911,197,1,0,725,19.158,19.613,10.475,-4.526,0.263,6.191,1.276,-4.489,9.337,-0.671,-0.047,0.056,angry
2.36,0,0,0,0,0,0,0,0,2143,1765,5,2957,164,2,2,667,17.490,19.613,8.188,-4.022,0.367,6.886,1.190,-4.523,9.345,-0.467,-0.094,0.120,angry
2.37,0,0,0,0,0,0,0,0,2239,1802,2,3021,55,2,4,471,17.032,19.613,4.322,-3.270,0.582,7.185,1.135,-4.250,9.665,-0.392,-0.180,0.168,angry
2.38,0,0,0,0,0,0,0,0,2505,1773,2,3029,91,4,2,520,15.098,19.613,2.344,-2.409,0.737,7.201,1.204,-4.298,9.524,-0.427,-0.230,0.300,angry
2.39,0,0,0,0,0,0,0,0,2605,1727,0,3064,61,4,1,413,4.954,19.613,0.682,-1.690,-0.031,6.938,0.979,-4.118,9.328,-0.410,-0.308,0.490,angry
2.40,0,0,0,0,0,0,0,0,2789,1799,266,3094,91,4,5,382,-8.799,19.613,-4.183,0.347,-2.245,6.093,1.326,-3.498,9.428,-0.153,-0.533,0.923,angry
2.41,0,0,0,0,0,0,0,0,2915,1848,7,3149,69,5,5,381,-0.285,19.613,-9.845,1.240,-0.660,4.592,1.267,-3.168,9.471,-0.110,-0.921,1.673,angry
2.42,0,0,0,0,0,0,0,0,3000,2043,5,3256,59,5,3,381,-10.214,19.613,-4.681,1.439,0.818,3.297,0.785,-3.531,9.337,0.081,-1.613,2.689,angry
2.43,0,0,0,0,0,0,122,325,3028,2069,2,3298,147,0,26,347,-11.832,19.613,-8.516,2.287,-0.137,1.350,1.415,-4.563,8.473,0.496,-1.859,3.435,angry
2.44,0,0,0,0,193,0,651,2735,3019,2029,7,3345,135,5,3,326,11.238,6.910,18.773,2.106,0.465,-0.502,0.682,-4.645,9.649,0.841,-2.060,4.095,angry
2.45,0,0,0,0,0,0,2419,3533,2855,1341,7,3423,69,4,0,125,5.746,9.680,7.592,4.002,-1.205,-1.640,3.541,-2.265,9.287,0.570,-2.518,4.366,angry
2.46,0,0,0,0,0,0,3040,3632,2735,889,0,3315,7,0,0,12,19.613,15.299,19.613,1.429,3.276,-1.800,3.989,-3.761,9.043,0.600,-2.582,4.366,angry
2.47,0,372,0,0,0,0,3257,3677,2377,888,0,3253,0,9,31,0,9.340,3.603,5.696,0.776,3.594,-0.694,4.499,-3.448,9.153,1.111,-2.379,4.366,angry
2.48,0,1007,0,73,0,0,3281,3691,1919,623,0,3208,14,0,0,0,5.025,3.187,11.981,1.862,3.519,-0.511,4.606,-4.257,8.533,1.243,-2.387,4.366,angry
2.49,123,1584,0,661,1872,0,3265,3697,1791,171,0,3077,0,0,0,2,1.839,1.444,7.068,1.650,1.828,0.319,3.565,-4.140,8.935,1.351,-2.365,4.366,angry
2.50,335,2054,0,1590,2178,336,3248,3712,1579,2568,0,2507,2590,1642,1553,3157,2.579,4.664,10.041,1.459,1.053,0.668,2.102,-4.839,8.803,1.389,-2.314,4.366,angry
2.51,574,2301,0,2084,2225,317,3215,3650,1565,2569,0,2507,2591,1641,1549,3129,2.842,4.973,9.402,1.170,1.065,1.588,2.018,-3.613,8.610,1.389,-2.121,4.366,angry
2.52,670,2442,0,2224,2317,209,3101,3492,1565,2539,0,2505,2589,1641,1548,3131,0.912,2.746,9.603,1.358,1.126,2.429,4.990,-1.678,9.835,0.929,-1.902,4.366,angry
2.53,754,2700,0,2269,2269,0,3011,3309,0,0,2,172,0,0,0,21,1.077,3.706,9.845,1.368,1.134,2.503,-0.235,-1.465,11.404,0.626,-1.536,2.672,angry
2.54,907,2781,0,2331,0,0,2916,3171,0,0,0,91,0,0,20,0,2.246,4.149,8.693,1.289,1.117,2.484,-9.072,-0.237,13.345,0.694,-2.402,2.539,angry
2.55,1051,2820,0,2416,0,0,2843,3056,0,0,0,1,0,0,0,0,1.975,4.204,9.139,1.114,1.025,2.333,-6.675,-4.681,13.659,0.943,-2.749,3.059,angry
2.56,1289,2903,0,2481,0,0,2796,2959,2,0,0,21,0,0,0,0,2.521,3.579,9.452,0.989,0.904,2.089,-8.004,-2.713,11.542,1.519,-2.022,3.860,angry
2.57,1557,3033,0,2590,0,0,2768,2819,0,0,0,6,0,0,0,0,2.703,3.943,9.076,0.979,0.768,1.821,-8.140,-2.375,8.102,1.352,-1.725,4.366,angry
2.58,1810,3105,0,2689,0,0,2737,2683,0,0,0,0,0,0,0,4,3.428,3.321,8.780,0.817,0.700,1.581,-4.563,-3.697,8.430,1.235,-1.767,4.366,angry
2.59,2055,3202,0,2747,0,0,2706,2557,0,0,0,0,0,0,0,0,3.555,3.613,8.794,0.713,0.618,1.366,-2.380,-3.795,7.343,1.200,-1.826,4.366,angry
2.60,2263,3212,0,2848,0,0,2679,2426,0,0,0,0,0,0,0,0,3.898,4.041,8.777,0.621,0.529,1.160,-1.267,-3.749,6.263,1.044,-2.003,4.366,angry
2.61,2430,3267,0,2919,0,0,2642,2242,0,13,0,0,0,0,2,0,3.467,4.034,8.650,0.585,0.448,1.025,0.268,-4.764,7.396,1.054,-1.923,4.366,angry
2.62,2558,3334,0,2942,0,0,2559,1797,0,0,0,0,0,0,0,0,3.754,3.922,8.662,0.542,0.402,0.922,0.682,-5.473,8.047,1.204,-1.639,4.366,angry
2.63,2675,3391,0,3042,0,0,2482,1075,0,0,0,0,0,0,0,0,3.493,4.104,8.918,0.527,0.364,0.876,-1.587,-7.235,11.868,1.750,-1.576,4.366,angry
2.64,2757,3439,0,3069,0,0,2337,590,0,0,0,18,0,0,0,0,3.223,4.013,8.715,0.527,0.315,0.831,-0.529,-7.300,9.390,1.198,-1.674,4.366,angry
2.65,2812,3501,0,3052,0,0,2118,260,0,0,0,0,0,0,0,0,3.481,3.780,8.610,0.532,0.309,0.756,-0.290,-6.567,7.592,1.184,-1.613,4.366,angry
2.66,2890,3527,0,3033,0,0,1614,0,0,0,0,0,0,0,0,0,3.402,3.934,8.629,0.519,0.322,0.666,-0.290,-6.567,7.592,1.184,-1.613,4.366,angry
2.67,2954,3577,0,3063,0,0,784,0,12,0,0,0,0,0,0,0,4.001,4.190,8.317,0.505,0.348,0.544,6.919,-10.056,12.206,0.970,-0.679,3.644,angry
2.68,2991,3618,0,3126,0,0,495,0,0,0,0,41,0,0,0,59,3.996,4.080,8.363,0.558,0.338,0.458,6.618,-6.294,4.764,0.985,-1.205,2.347,angry
2.69,3039,3632,0,3204,0,0,327,0,0,0,0,83,0,0,0,0,3.780,4.118,8.284,0.612,0.359,0.379,14.030,-8.121,12.285,1.076,-0.684,1.394,angry
2.70,3084,3645,0,3265,0,0,383,0,2,0,0,70,0,0,0,0,3.986,4.487,8.361,0.679,0.362,0.275,10.257,12.103,10.470,0.789,-0.056,0.437,angry
2.71,3111,3635,0,3312,0,0,378,0,10,0,0,57,51,0,685,619,3.400,4.113,8.945,0.837,0.393,0.257,-2.215,-3.965,12.239,0.629,-0.188,0.630,angry
2.72,3149,3599,0,3344,0,0,287,0,17,0,0,55,39,0,767,1721,3.931,3.946,8.442,1.085,0.503,0.253,-1.516,-1.793,9.124,0.282,-0.116,1.032,angry
2.73,3152,3498,0,3355,0,0,220,0,17,0,0,109,77,1,1093,2157,4.298,4.130,8.744,1.357,0.592,0.228,2.646,-0.340,9.960,0.055,-0.029,0.988,angry
2.74,3131,3233,0,3347,0,0,29,0,1564,2573,0,2496,2585,1645,1553,3133,5.567,4.422,8.440,1.668,0.737,0.202,7.563,0.117,9.890,0.014,-0.008,0.433,angry
2.75,3029,2286,0,3166,0,0,0,0,1567,2572,7,2507,2591,1643,1599,3131,7.884,4.908,8.593,2.181,1.203,-0.050,3.129,-2.538,7.638,-0.052,-0.232,-0.007,angry
2.76,2589,605,0,2719,0,0,0,0,1567,2571,5,2517,2591,1640,1553,3129,8.315,5.528,9.464,1.796,2.271,-0.962,0.369,-2.576,10.039,0.268,-0.017,0.063,angry
2.77,1921,26,0,1277,0,0,0,0,1575,2573,133,2509,2591,1637,1555,3134,14.636,2.787,10.877,1.480,3.860,-2.640,0.548,-1.664,9.859,0.186,0.039,0.136,angry
2.78,730,0,0,257,0,0,0,0,1575,2571,7,2508,2595,1643,1553,3133,19.613,1.973,10.379,0.157,5.251,-1.511,1.008,-2.638,9.799,0.056,-0.004,0.105,angry
2.79,463,0,0,0,0,0,0,0,1577,2573,7,2504,2591,1643,1553,3132,19.613,9.177,1.887,1.262,4.000,4.956,1.551,-2.777,9.771,0.064,-0.009,0.055,angry
2.80,528,0,0,0,0,0,0,0,1571,2571,28,2509,2591,1647,1553,3165,6.187,0.936,7.884,1.428,2.023,6.480,1.611,-2.248,9.323,0.092,0.047,0.036,angry
2.81,176,0,0,0,0,0,0,0,1581,2570,2,2479,2590,1647,1555,3132,5.392,0.227,11.880,0.632,1.247,5.119,1.719,-2.298,9.268,0.023,0.061,0.000,angry
2.82,32,0,0,0,0,0,0,0,1579,2573,0,2510,2568,1646,1556,3133,6.325,1.590,11.581,-0.872,1.697,3.870,1.410,-2.181,9.270,-0.056,0.096,0.011,angry
2.83,49,0,0,0,0,0,0,0,1577,2569,5,2507,2589,1645,1557,3131,9.790,3.256,8.732,-1.641,1.528,3.258,1.417,-2.612,9.785,-0.178,0.103,0.073,angry
2.84,0,0,0,0,0,0,0,0,1576,2577,2,2508,2579,1645,1557,3131,12.495,5.167,6.203,-2.020,1.506,3.114,1.350,-2.933,9.931,-0.209,0.053,0.065,angry
2.85,17,0,0,0,0,0,0,0,1574,2571,0,2507,2589,1621,1557,3135,13.743,7.077,5.799,-2.065,0.840,3.113,1.528,-2.794,9.694,-0.202,0.101,0.146,angry
2.86,79,0,0,0,0,0,0,0,1575,2573,33,2511,2597,1651,1557,3133,16.111,9.407,4.360,-1.940,-0.148,3.495,1.041,-2.433,9.479,-0.232,0.085,0.261,angry
2.87,132,0,0,0,0,0,0,0,1573,2571,7,2505,2589,1643,1548,3131,14.636,10.159,3.898,-1.449,-0.844,4.104,1.331,-2.739,9.309,-0.266,0.050,0.324,angry
2.88,137,0,0,0,0,0,0,0,1574,2581,43,2509,2591,1641,1550,3131,11.928,10.238,4.369,-0.740,-1.267,4.666,1.331,-2.940,9.649,-0.276,0.050,0.445,angry
2.89,96,0,0,0,0,0,0,0,1573,2571,53,2513,2573,1641,1554,3007,9.677,12.040,8.660,-0.139,-1.218,4.849,1.168,-2.940,9.766,-0.295,0.096,0.480,angry
2.90,50,0,0,0,0,0,0,0,255,2431,69,2429,2659,157,2103,3431,-2.466,13.776,14.729,-0.327,-2.323,4.667,1.621,-3.206,9.242,-0.225,0.068,0.362,angry
2.91,9,0,0,0,0,0,0,0,1297,1206,69,2215,2853,10,2331,2779,-0.077,17.356,8.064,-0.264,-1.854,3.456,1.551,-2.859,9.383,-0.203,-0.016,0.255,angry
2.92,0,0,0,0,0,0,0,0,2104,1689,35,2505,3051,13,2201,2318,-4.070,19.448,5.890,-0.476,-0.480,1.813,1.369,-3.263,9.598,-0.271,0.019,0.174,angry
2.93,0,0,0,0,0,0,0,0,2392,1813,33,2708,3083,17,1861,1693,-3.663,19.486,1.542,-0.343,-0.804,0.570,1.700,-2.990,9.340,-0.289,0.004,0.191,angry
2.94,0,0,0,0,0,0,0,0,1575,2569,53,2517,2598,1633,1549,3147,-1.199,19.613,-0.500,0.792,-0.090,0.541,0.464,-1.820,9.268,-0.409,0.021,0.191,angry
2.95,0,0,0,0,0,0,194,155,1583,2581,7,2520,2603,1613,1559,3155,-5.152,19.613,1.041,1.830,2.008,1.308,1.662,-3.349,9.538,-0.826,-0.187,-0.008,angry
2.96,0,0,0,0,0,0,1008,2633,1589,2607,17,2549,2610,1640,1574,3190,-18.936,-4.736,19.613,1.316,1.474,-0.811,0.934,-3.156,9.103,-1.044,-0.320,0.098,angry
2.97,0,0,0,0,368,0,2619,3374,1594,2602,23,2547,2630,1675,1573,3225,13.317,8.971,4.547,2.460,-0.641,-2.191,0.946,-1.300,10.240,-3.274,-0.269,0.423,angry
2.98,0,112,0,0,535,0,3141,3505,3403,1247,25,2407,327,5,2,139,3.615,3.383,7.535,0.459,2.336,-0.628,2.037,-1.372,10.262,-4.366,-0.305,1.125,angry
2.99,0,798,0,0,1904,0,3344,3641,3257,589,10,1863,205,3,1,23,10.369,5.827,5.504,0.477,1.836,-0.924,1.686,1.832,19.391,-4.366,-0.432,1.799,angry
3.00,0,1482,0,0,2317,0,3426,3715,1781,0,0,667,0,4,0,41,1.262,2.916,13.149,0.343,1.301,-0.616,6.572,-4.274,19.613,-4.366,-0.826,3.062,angry
3.01,0,1747,0,229,2545,0,3472,3728,1103,0,0,23,0,0,0,0,3.924,3.225,8.988,0.531,0.845,-0.487,-3.100,-12.548,19.613,-4.366,-2.565,3.256,angry
3.02,110,1997,0,587,2736,0,3513,3718,0,0,0,0,0,0,0,0,3.962,3.567,9.560,0.328,0.435,-0.248,15.830,3.821,19.613,0.168,-1.185,4.366,angry
3.03,165,2128,0,727,2843,0,3526,3689,0,17,0,0,0,0,9,0,2.969,4.068,10.424,0.262,0.167,-0.178,15.627,-2.761,19.613,1.700,0.733,4.366,angry
3.04,315,2228,0,832,2920,0,3536,3642,0,0,0,0,0,0,0,0,3.903,3.357,8.892,0.212,0.118,-0.102,6.390,7.187,15.476,2.890,1.400,4.018,angry
3.05,361,2365,0,755,2992,0,3511,3567,1563,55,0,239,2596,1645,1554,8,4.082,3.467,8.586,0.180,0.060,-0.073,9.946,4.870,9.792,3.131,-0.320,2.542,angry
3.06,398,2458,0,833,1853,0,3440,3413,0,0,0,0,93,0,0,0,3.824,3.428,8.897,0.141,0.005,-0.038,10.484,2.509,8.947,3.271,-1.645,1.101,angry
3.07,438,2525,0,881,3067,0,3383,3292,0,0,156,0,0,0,0,0,3.713,3.321,9.029,0.120,-0.045,-0.011,10.372,0.577,10.240,3.794,-2.014,-0.269,angry
3.08,355,2555,0,912,0,0,3306,3162,0,0,0,0,0,0,0,0,3.709,3.093,8.744,0.156,-0.089,-0.047,5.394,-0.666,11.145,4.244,-2.377,-1.315,angry
3.09,369,2598,0,1008,3043,0,3228,3003,0,0,0,0,0,0,0,0,3.682,3.460,8.760,0.157,-0.145,-0.060,0.924,-1.496,10.642,4.366,-2.672,-1.728,angry
3.10,274,2640,0,1067,2999,0,3135,2838,1556,2583,0,2509,2590,1661,1566,3140,3.766,3.414,8.645,0.140,-0.141,-0.057,-1.199,-2.296,10.348,4.366,-2.779,-1.733,angry
3.11,0,2705,0,1134,3026,0,2986,2596,0,0,0,0,13,0,0,0,4.135,3.627,8.772,0.047,-0.134,-0.009,-2.559,-3.859,11.727,4.366,-2.339,-1.110,angry
3.12,0,2812,0,1212,2546,0,2928,2512,0,0,48,16,0,0,0,0,3.723,2.533,7.673,0.137,0.088,-0.225,-2.227,-4.757,12.881,4.366,-2.234,-0.724,angry
3.13,0,2862,0,1425,0,0,2843,2422,1548,2568,0,2487,2577,1653,1551,3180,4.343,2.380,7.013,0.268,0.305,-0.416,0.005,-6.160,15.807,4.366,-1.992,-0.491,angry
3.14,208,3095,0,1952,3107,0,2757,2067,1559,2569,0,2489,2581,1691,1565,3117,3.577,5.021,9.455,0.402,0.187,-0.522,1.314,-8.150,19.089,4.366,-2.411,-0.895,angry
3.15,623,3296,0,2383,3055,0,2525,1206,1555,2569,0,2508,2591,1647,1557,3118,3.515,4.290,8.914,0.548,0.139,-0.536,3.718,-10.185,19.613,4.366,-2.314,-1.282,angry
3.16,1161,3497,0,2678,0,0,2091,6,9,0,0,0,0,37,0,0,3.661,4.355,8.911,0.474,-0.004,-0.373,-3.294,-19.482,19.304,4.366,-2.269,-2.071,angry
3.17,1571,3621,0,2831,0,0,1789,0,0,0,5,0,0,0,0,0,3.151,3.685,8.914,0.583,-0.031,-0.351,-4.408,-19.613,9.598,3.449,-1.956,-2.026,angry
3.18,1994,3727,0,2910,0,0,1100,0,1,1,12,0,0,0,0,0,3.766,3.610,8.519,0.613,0.129,-0.340,-9.948,-19.613,10.381,2.988,-2.115,-1.611,angry
3.19,2387,3813,0,2992,0,0,656,0,0,0,0,0,0,0,0,0,4.034,2.813,8.531,1.007,0.124,-0.289,-5.432,-19.613,4.853,2.295,-2.752,-1.661,angry
3.20,2650,3870,0,3085,0,0,713,0,0,3,0,0,0,0,0,0,3.838,4.221,8.538,1.296,0.198,-0.262,-7.793,-19.613,-7.573,1.319,-2.166,-1.932,angry
3.21,2861,3901,0,3136,0,0,653,0,0,0,0,0,0,0,13,0,3.843,4.104,8.705,1.564,0.254,-0.293,-12.062,-19.613,-12.706,-0.593,-1.416,-2.076,angry
3.22,3039,3937,0,3193,0,0,575,0,0,0,0,0,0,0,0,0,3.955,3.893,8.835,1.893,0.330,-0.331,-8.073,-19.613,-11.260,-2.660,0.427,-1.997,angry
3.23,3208,3923,0,3229,0,0,511,0,0,0,0,0,0,0,1,404,4.451,3.790,8.550,2.337,0.499,-0.396,-4.922,-5.021,8.569,-1.689,2.217,-0.307,angry
3.24,3361,3856,0,3280,0,0,370,0,0,0,2,0,0,0,85,1615,6.821,3.259,8.916,3.104,0.677,-0.374,-17.470,19.613,19.613,-3.207,0.932,0.562,angry
3.25,3482,3645,0,3301,0,0,101,0,0,0,2,1,0,0,215,2539,6.055,2.811,9.395,4.059,0.872,-0.569,-0.728,-6.874,7.657,-4.366,-0.150,0.828,angry
3.26,3542,2762,0,3207,0,0,0,0,41,0,0,0,0,0,658,2701,8.452,3.598,9.785,5.027,1.017,-1.001,4.571,-16.752,19.046,-2.591,2.221,1.004,angry
3.27,3549,2151,0,2771,0,0,0,0,1544,2557,0,2495,2577,1645,1551,3141,10.479,3.766,13.513,5.940,1.239,-1.833,2.425,1.441,11.413,-2.360,1.753,0.280,angry
3.28,3115,688,0,1441,0,0,0,0,1,27,2,3,277,0,2336,3827,6.163,5.923,19.613,7.487,0.362,-3.990,7.755,-19.613,18.864,-2.433,1.858,0.392,angry
3.29,1856,355,0,683,0,0,0,0,0,0,66,0,602,0,2639,3869,8.856,16.190,19.613,6.999,0.196,-4.937,-4.087,2.140,13.786,-0.864,2.045,0.988,angry
3.30,644,0,0,363,0,0,0,0,0,0,0,96,1261,1,2812,3917,9.668,5.392,19.613,2.983,-0.018,-5.514,1.824,-3.371,11.265,-0.829,0.745,0.570,angry
3.31,0,0,0,0,0,0,0,0,0,0,89,354,1629,0,2973,3937,19.613,-7.286,19.613,0.164,-0.459,-5.226,2.207,-4.025,11.351,-0.654,0.565,0.389,angry
3.32,0,0,0,0,0,0,0,0,5,0,2,471,1975,0,3087,3952,19.613,0.034,18.553,-1.382,0.759,-2.659,1.041,-3.041,10.424,-0.316,0.028,0.254,angry
3.33,0,0,0,0,0,0,0,0,8,1,7,627,2233,19,3181,3955,19.613,-6.558,12.380,-2.125,0.971,-0.945,1.355,-2.586,10.218,-0.339,0.003,0.213,angry
3.34,0,0,0,0,0,0,0,0,1,1,2,739,2505,1,3239,3931,16.611,-5.550,10.867,-2.244,-0.117,0.503,0.950,-4.185,10.295,-0.336,-0.121,0.041,angry
3.35,0,0,0,0,0,0,0,0,0,0,5,855,2533,0,3082,3659,13.879,-3.433,10.515,-2.390,-1.302,1.630,1.755,-3.419,10.135,-0.240,-0.076,0.053,angry
3.36,0,0,0,0,0,0,0,0,0,7,2,821,2650,1,3004,3543,11.949,-1.446,9.416,-2.728,-1.568,2.524,1.899,-2.370,9.378,-0.179,0.015,0.091,angry
3.37,0,0,0,0,0,0,0,0,18,443,0,743,2723,1,2909,3627,8.052,0.038,8.763,-3.041,-1.463,3.028,1.932,-3.306,9.972,-0.164,-0.106,0.048,angry
3.38,0,0,0,0,0,0,0,0,3,443,0,809,2909,3,2893,3643,4.949,0.814,9.158,-3.299,-1.430,3.162,1.836,-2.928,9.797,-0.120,-0.040,0.097,angry
3.39,0,0,0,0,0,0,0,0,0,300,2,823,2926,2,2527,3504,4.082,2.325,9.618,-3.542,-1.375,3.106,2.088,-2.471,9.397,-0.150,0.090,0.190,angry
3.40,0,0,0,0,0,0,0,0,4,355,17,788,2925,2,1976,3371,3.644,3.397,10.743,-3.849,-1.217,2.981,2.023,-2.634,9.436,-0.231,0.265,0.342,angry
3.41,0,0,0,0,0,0,0,0,25,231,0,956,2887,4,1919,3229,3.321,4.475,11.815,-4.121,-1.178,2.824,1.607,-2.677,9.072,-0.361,0.173,0.425,angry
3.42,0,0,0,0,0,0,0,0,3,349,7,1266,2767,0,1845,3039,4.070,5.655,12.203,-4.350,-1.175,2.725,1.494,-3.002,9.287,-0.319,0.255,0.481,angry
3.43,0,0,0,0,0,0,0,0,79,405,12,1543,2622,7,1567,2935,4.918,6.388,12.979,-4.462,-1.222,2.722,0.828,-1.731,7.877,-0.345,0.350,0.448,angry
3.44,0,0,0,0,0,0,0,0,166,151,17,1719,2429,7,1389,2783,6.266,7.525,14.044,-4.482,-1.212,2.753,1.511,-3.704,9.603,-0.366,0.217,0.384,angry
3.45,0,0,0,0,0,0,0,0,227,2743,0,2698,2650,253,1942,3351,7.400,8.538,14.746,-4.482,-0.972,2.810,2.121,-3.883,9.349,-0.125,0.370,0.330,angry
3.46,0,0,0,0,0,0,0,0,1565,2559,48,2493,2587,1640,1545,3131,8.073,9.814,16.060,-4.487,-0.601,2.774,1.312,-4.061,10.139,-0.451,0.376,0.264,angry
3.47,0,0,0,0,0,0,0,0,1565,2557,58,2495,2549,1629,1544,3128,6.218,18.134,19.613,-4.540,-0.249,2.928,1.690,-3.000,9.165,-0.029,0.393,0.326,angry
3.48,0,0,0,0,0,0,0,0,1563,2557,58,2503,2584,1629,1544,3128,-4.132,19.613,18.689,-4.026,-1.157,2.384,1.992,-1.908,10.558,-0.250,0.116,0.253,angry
3.49,0,0,0,0,0,0,0,0,1578,2569,15,2508,2587,1635,1548,3132,-6.189,19.613,-0.041,-2.877,-2.171,2.374,1.776,-3.697,8.988,-0.489,0.005,0.100,angry
3.50,0,0,0,0,0,0,0,0,1558,2569,12,2507,2588,1637,1548,3130,-14.234,19.613,-9.661,-0.799,-1.438,1.167,1.326,-3.558,9.677,-0.584,-0.046,-0.038,angry
3.51,0,0,0,0,0,0,0,0,1630,2569,12,2505,2587,1639,1513,3129,-7.743,19.613,-8.188,1.900,0.059,0.360,1.247,-3.285,9.457,-0.704,-0.085,-0.147,angry
3.52,0,0,0,0,0,0,566,2475,1633,2571,12,2524,2588,1643,1557,3132,-10.633,-14.763,1.894,3.422,0.193,-1.189,2.411,-1.599,10.187,-2.120,0.057,-0.329,angry
3.53,0,0,0,0,415,0,1877,3506,1614,2569,17,2504,2588,1637,1553,3193,8.528,16.386,8.361,4.675,-0.614,-2.053,2.454,-1.092,9.282,-4.066,0.237,-0.383,angry
3.54,0,29,0,0,0,0,2929,3728,3775,376,15,2731,45,5,1,151,19.613,8.059,3.828,2.563,1.494,-1.253,7.527,-7.259,11.756,-4.366,2.067,1.151,angry
3.55,0,437,0,0,1333,0,3181,3775,3637,407,0,1810,4,0,11,123,14.880,12.196,5.672,1.070,3.042,-1.393,3.893,-0.196,19.613,-4.366,1.869,3.809,angry
3.56,0,1535,0,0,2071,0,3355,3824,2365,0,0,99,0,0,0,0,4.429,6.345,12.287,0.502,1.956,-0.897,7.582,-1.480,19.613,-4.366,2.107,4.366,angry
3.57,0,1870,0,365,2332,0,3415,3850,1,0,0,37,0,0,0,0,1.791,4.173,12.124,0.412,1.133,-0.569,-0.680,-12.345,19.613,-4.366,-0.493,4.366,angry
3.58,30,2093,0,684,2516,0,3458,3852,0,0,0,0,0,0,0,0,4.903,3.579,8.638,0.408,0.696,-0.436,11.006,0.596,19.613,-0.247,0.713,4.366,angry
3.59,92,2259,0,894,2653,0,3478,3829,0,0,0,0,0,0,0,0,3.500,3.915,10.113,0.394,0.383,-0.318,19.613,15.869,19.613,2.675,1.354,3.254,angry
3.60,243,2416,0,1162,2797,0,3467,3746,1561,2558,0,2493,2584,1646,1551,3127,3.800,3.390,9.359,0.369,0.202,-0.270,16.884,4.889,13.558,2.591,-0.085,0.872,angry
3.61,358,2603,0,1395,2862,0,3341,3599,1563,2557,0,2491,2587,1644,1549,3119,3.998,3.232,8.586,0.340,0.175,-0.261,12.476,4.839,16.362,2.978,-2.015,-0.392,angry
3.62,446,2757,0,1691,2753,0,3094,3324,3,0,0,0,0,0,0,0,4.013,2.923,8.258,0.378,0.271,-0.334,3.141,-0.084,14.008,4.366,-2.755,-2.037,angry
3.63,451,2821,0,1903,2670,0,2830,3152,0,0,0,0,0,0,0,0,3.534,3.077,8.808,0.443,0.322,-0.426,-3.838,-1.492,12.112,4.366,-3.390,-1.840,angry
3.64,511,2861,0,2122,2545,0,2533,2931,0,0,0,28,0,0,0,0,3.486,3.369,8.866,0.480,0.233,-0.442,-4.542,-2.784,10.982,4.366,-3.516,-1.202,angry
3.65,595,2910,0,2293,2209,0,2096,2614,0,0,0,0,0,0,0,0,3.522,3.847,8.588,0.459,0.187,-0.464,-5.040,-4.199,11.502,4.366,-3.269,-0.557,angry
3.66,688,2974,0,2455,2063,0,1570,2320,1565,2580,0,2519,2725,1723,1579,3143,2.895,3.208,9.440,0.482,0.134,-0.484,-4.221,-5.571,13.503,4.366,-3.349,-0.084,angry
3.67,920,3010,0,2769,1599,0,941,1298,1564,2567,0,2493,2582,1645,1551,3119,3.536,4.831,8.483,0.342,0.118,-0.359,3.242,-8.648,15.725,4.366,-3.488,-0.375,angry
3.68,1310,3184,0,3021,1756,0,719,365,1565,2555,0,2493,2583,1717,1546,3117,3.151,3.936,8.629,0.371,0.030,-0.290,4.963,-9.768,16.944,4.366,-3.447,-1.181,angry
3.69,1974,3354,0,3215,0,0,331,0,1565,2557,0,2507,2583,1661,1549,3118,3.050,3.998,8.722,0.434,-0.024,-0.203,7.075,-13.934,19.613,4.366,-3.739,-3.078,angry
3.70,2507,3493,0,3355,0,0,98,0,0,11,0,0,0,0,0,0,3.424,3.828,8.803,0.593,-0.018,-0.174,-3.472,-19.613,19.613,4.295,-4.357,-4.366,angry
3.71,2754,3571,0,3392,0,0,128,0,0,0,0,0,0,0,0,0,3.287,4.113,8.835,0.872,-0.061,-0.181,-0.345,-19.613,17.152,3.631,-3.563,-4.366,angry
3.72,2962,3641,0,3473,0,0,0,0,0,0,0,7,0,0,0,0,3.426,4.532,8.320,1.131,-0.026,-0.195,-6.043,-19.613,5.456,2.923,-1.833,-4.366,angry
3.73,3154,3680,0,3522,0,0,0,0,0,0,0,0,0,0,0,0,3.148,4.254,8.380,1.359,-0.008,-0.191,-19.613,-19.613,-6.594,1.796,-1.189,-4.220,angry
3.74,3338,3697,0,3571,0,0,0,0,0,0,0,0,0,0,0,0,3.493,3.728,8.648,1.625,0.147,-0.173,-19.613,-19.613,-7.592,0.380,-1.475,-2.059,angry
3.75,3487,3698,0,3609,235,0,0,0,0,0,0,0,0,0,0,0,4.587,3.634,8.387,2.006,0.220,-0.168,-12.627,-19.613,-5.227,-0.741,-1.129,-1.005,angry
3.76,3623,3689,0,3631,0,0,0,0,0,0,0,0,0,0,0,0,4.252,3.668,8.686,2.588,0.333,-0.301,-11.224,-19.613,-1.082,-1.158,-0.350,-0.188,angry
3.77,3703,3547,0,3628,0,0,0,0,0,0,0,0,0,0,0,0,3.850,3.658,8.289,3.123,0.492,-0.395,8.380,-16.391,1.341,-3.418,0.636,-1.126,angry
3.78,3767,2939,0,3582,0,0,0,0,0,0,0,0,0,0,7,731,4.719,3.474,8.631,3.837,0.582,-0.655,-1.834,16.044,19.613,-1.250,2.449,0.080,angry
3.79,3792,2374,0,3441,0,0,0,0,0,0,0,0,0,0,69,2025,5.964,2.440,8.380,4.646,0.726,-1.003,-8.361,18.050,4.432,-4.366,-0.783,0.769,angry
3.80,3777,1817,0,3230,0,0,0,0,0,24,0,0,0,0,403,2825,9.184,5.490,13.216,5.318,0.945,-1.642,-0.323,-19.613,19.613,-4.366,0.997,1.195,angry
3.81,3662,1079,0,2448,0,0,0,0,0,2515,0,2663,22,0,377,3507,9.888,6.579,15.900,6.120,0.799,-2.769,-2.231,-12.062,19.613,-3.869,1.267,0.370,angry
3.82,2250,330,0,896,0,0,0,0,0,0,10,0,39,0,1735,3803,11.519,14.399,19.613,6.390,0.464,-4.715,7.336,-3.239,8.210,-3.401,0.923,0.694,angry
3.83,726,0,0,285,0,0,0,0,0,0,0,0,39,0,2580,3896,6.304,3.567,19.613,4.173,0.437,-5.528,13.024,-19.613,19.613,-3.806,3.250,0.725,angry
3.84,300,0,0,66,0,0,0,0,0,0,0,5,371,0,2968,3959,19.613,-4.338,19.613,0.920,-0.863,-5.738,-0.057,-10.355,18.498,-1.527,1.999,0.811,angry
3.85,51,0,0,0,0,0,0,0,0,0,0,0,1035,0,3165,3992,19.613,7.997,15.921,-0.514,-0.126,-2.937,2.591,-5.578,14.909,-0.842,1.941,1.087,angry
3.86,275,0,0,0,0,0,0,0,0,0,0,0,1645,0,3261,4020,19.613,-4.788,16.087,-1.008,0.368,0.435,0.790,-2.167,11.337,-0.393,1.565,0.589,angry
3.87,254,0,0,0,0,0,0,0,0,0,0,87,1929,0,3359,4019,16.180,-6.340,14.566,-1.197,-0.946,2.389,0.826,-3.649,12.431,-0.303,0.910,0.395,angry
3.88,181,0,0,0,0,0,0,0,2,0,33,176,2257,1,3420,4011,7.448,-6.151,14.363,-1.544,-2.245,2.930,0.414,-2.593,11.360,-0.148,0.449,0.181,angry
3.89,128,0,0,0,0,0,0,0,1,1,2,341,2449,0,3400,3990,5.624,-3.196,14.224,-2.516,-2.118,2.861,1.767,-3.220,10.384,-0.139,0.154,0.078,angry
3.90,57,0,0,0,0,0,0,0,0,0,0,330,2553,0,3407,3943,2.610,-1.420,13.106,-3.388,-1.511,2.437,1.089,-2.586,10.137,-0.155,0.051,0.011,angry
3.91,97,0,0,0,0,0,0,0,1,24,2,351,2585,0,3226,3703,0.874,0.414,12.368,-4.005,-1.363,1.977,2.109,-2.780,9.270,-0.182,0.055,0.011,angry
3.92,112,0,0,0,0,0,0,0,1,141,0,339,2589,0,3042,3525,1.956,1.721,10.697,-4.310,-1.422,1.733,2.796,-1.853,8.035,-0.273,0.313,0.082,angry
3.93,103,0,0,0,0,0,0,0,3,119,0,728,2767,0,3047,3675,3.275,3.594,11.104,-4.447,-1.319,1.741,2.550,-2.717,9.129,-0.271,0.319,0.187,angry
3.94,112,0,0,0,0,0,0,0,0,295,5,1039,2733,0,2732,3557,3.316,4.975,12.321,-4.611,-1.225,1.849,1.978,-2.696,9.531,-0.277,0.351,0.270,angry
3.95,86,0,0,0,0,0,0,0,0,383,0,1177,2647,0,1991,3406,3.062,5.827,12.538,-4.732,-1.166,1.945,1.425,-2.624,9.962,-0.255,0.470,0.465,angry
3.96,106,0,0,0,0,0,0,0,0,367,2,1548,2403,3,1845,3247,3.179,6.182,12.792,-4.743,-1.051,2.028,1.650,-2.418,9.139,-0.436,0.434,0.667,angry
3.97,127,0,0,0,0,0,0,0,0,296,2,1836,2103,2,1563,3130,3.433,6.929,14.260,-4.777,-0.961,2.071,1.039,-3.053,9.893,-0.459,0.280,0.648,angry
3.98,131,0,0,0,0,0,0,0,55,277,2,1933,1675,5,1449,2992,4.221,7.611,14.849,-4.792,-0.896,2.091,1.355,-3.893,9.864,-0.423,0.217,0.568,angry
3.99,143,0,0,0,0,0,0,0,204,169,5,2221,1620,9,1197,2799,5.344,8.155,15.318,-4.764,-0.623,2.099,1.702,-2.796,8.662,-0.312,0.129,0.371,angry
4.00,150,0,0,0,0,0,0,0,537,311,28,2245,1559,5,1111,2577,8.037,10.238,16.293,-4.696,-0.054,2.106,1.396,-3.685,10.204,-0.179,0.116,0.198,angry
4.01,144,0,0,0,0,0,0,0,1481,645,33,2543,1636,7,767,1931,5.167,18.708,19.613,-4.628,0.433,2.836,0.670,-3.474,7.927,-0.208,0.114,0.156,angry
4.02,150,0,0,0,0,0,0,0,2151,903,66,2855,1753,7,441,1721,0.599,19.613,19.613,-4.549,-0.705,2.811,1.805,-3.285,7.867,-0.143,0.042,0.188,angry
4.03,219,0,0,0,0,0,0,0,2877,1336,12,3083,1692,5,21,967,-4.685,19.613,1.970,-3.345,-1.860,2.494,1.990,-2.437,9.503,-0.583,0.025,-0.022,angry
4.04,289,0,0,0,0,0,0,0,3144,1423,12,3229,1337,19,55,857,-12.131,19.613,-5.871,-1.378,-1.859,1.141,0.728,-3.172,9.534,-0.557,0.054,-0.059,angry
4.05,319,0,0,0,0,0,0,0,3509,1811,238,3433,1016,0,1,403,-8.681,19.613,-5.770,0.117,-0.921,0.161,1.159,-3.031,9.397,-0.646,0.040,-0.197,angry
4.06,51,0,0,0,0,0,0,91,1622,2555,12,2493,2583,1640,1547,3123,3.591,19.613,-8.473,3.370,0.833,0.210,1.844,-2.373,9.926,-1.644,0.033,-0.395,angry
4.07,0,0,0,0,218,0,685,2960,3795,1849,28,3225,220,2,0,319,-11.710,-19.613,19.613,5.486,-0.784,-0.640,3.481,-1.877,11.131,-2.889,0.186,-0.492,angry
4.08,0,0,0,0,432,0,2123,3632,3938,751,12,2951,89,3,0,181,0.168,19.613,19.613,4.238,-0.428,-2.486,5.854,-5.255,10.764,-4.366,1.127,-0.242,angry
4.09,0,29,0,0,711,0,3062,3776,3804,460,0,1711,0,0,0,121,19.613,14.111,17.499,1.829,2.344,-2.367,3.910,-6.433,19.613,-4.366,1.387,4.092,angry
4.10,0,1292,0,0,1911,0,3318,3832,3272,0,0,806,0,0,4,30,0.443,7.041,18.864,0.913,2.866,-1.494,9.907,-6.747,19.613,-4.366,2.259,4.366,angry
4.11,68,1989,0,566,2357,0,3389,3857,2440,0,0,37,0,0,69,0,3.433,6.553,13.350,0.710,1.912,-1.109,4.719,-7.161,19.613,-4.366,1.337,4.366,angry
4.12,364,2497,0,1406,2621,0,3440,3853,2,0,0,0,0,0,0,0,3.824,4.348,9.728,0.580,0.568,-0.487,19.613,-19.613,19.613,-0.597,-0.188,4.366,angry
4.13,531,2669,0,1794,2729,0,3445,3813,2,63,0,0,0,0,0,0,3.321,4.044,10.089,0.560,0.342,-0.423,19.613,11.212,18.368,2.394,1.551,3.839,angry
4.14,609,2803,0,1998,2833,0,3411,3746,1563,2557,0,2495,2583,1645,1554,3143,3.093,4.334,9.711,0.450,0.158,-0.307,17.090,2.844,14.595,2.879,0.625,1.580,angry
4.15,695,2917,0,2201,2853,0,3259,3541,0,0,0,0,0,0,0,0,3.608,3.433,8.756,0.361,0.052,-0.207,12.991,0.826,9.041,3.586,-1.835,-1.776,angry
4.16,743,2975,0,2263,2811,0,3090,3344,0,0,0,0,0,0,0,0,3.879,3.275,8.504,0.415,0.073,-0.261,5.863,-1.099,10.549,4.165,-1.904,-2.525,angry
4.17,848,3041,0,2421,2659,0,2799,3122,0,0,0,0,0,0,0,0,3.879,3.448,8.552,0.499,0.092,-0.351,-1.772,-1.832,11.813,4.366,-2.510,-2.518,angry
4.18,898,3089,0,2559,2448,0,2462,2841,0,0,0,0,0,0,7,0,3.577,3.558,8.248,0.462,0.054,-0.328,-4.815,-2.538,10.731,4.366,-2.991,-1.876,angry
4.19,990,3155,0,2685,2246,0,1951,2480,0,0,0,0,0,0,0,0,3.251,3.838,8.770,0.439,0.029,-0.316,-5.097,-3.048,10.652,4.366,-2.933,-0.928,angry
4.20,1152,3173,0,2781,0,0,1344,1942,24,0,0,0,0,0,0,0,3.105,4.166,8.801,0.393,-0.025,-0.295,-4.243,-4.046,11.097,4.366,-2.847,-0.179,angry
4.21,1200,3200,0,2855,0,0,926,848,0,0,0,0,0,0,0,0,3.077,3.701,8.600,0.327,-0.019,-0.237,-1.951,-5.516,12.232,4.366,-3.024,0.148,angry
4.22,1456,3258,0,2923,0,0,643,0,1567,2557,0,2519,2589,1646,1549,3117,3.316,4.159,8.425,0.232,-0.015,-0.269,1.075,-6.668,13.266,4.366,-3.211,-0.010,angry
4.23,1844,3386,0,3053,1591,0,240,0,1565,2555,0,2494,2584,1645,1491,3116,3.330,4.312,8.588,0.214,-0.079,-0.315,3.168,-7.954,14.676,4.366,-3.387,-0.564,angry
4.24,2250,3501,0,3174,1486,0,82,0,1567,2577,0,2493,2584,1645,1549,3117,3.311,4.259,8.468,0.308,-0.064,-0.307,3.481,-9.218,19.613,4.366,-3.624,-2.117,angry
4.25,2622,3599,0,3268,1397,0,0,0,0,0,0,0,0,0,0,3,3.067,4.310,8.547,0.457,0.018,-0.227,0.675,-16.913,19.613,4.366,-3.669,-3.010,angry
4.26,2785,3664,0,3323,1335,0,0,0,0,0,0,0,0,0,0,0,3.081,4.305,8.583,0.572,0.050,-0.192,1.551,-19.613,15.763,4.366,-2.792,-3.731,angry
4.27,2944,3725,0,3398,1222,0,0,0,0,0,0,0,0,0,0,0,3.282,4.336,8.511,0.735,0.097,-0.136,-8.507,-19.613,19.225,4.366,-1.711,-2.574,angry
4.28,3101,3808,0,3438,725,0,0,0,0,0,0,0,0,0,0,0,3.395,4.116,8.478,0.930,0.113,-0.144,-10.056,-19.613,11.425,3.779,-2.742,-2.911,angry
4.29,3248,3795,0,3475,0,0,0,0,0,0,0,0,0,0,0,0,3.251,4.113,8.454,1.159,0.187,-0.145,-14.928,-19.613,-10.357,2.293,-2.800,-2.925,angry
4.30,3359,3822,0,3509,0,0,0,0,0,0,0,0,0,0,0,0,3.254,3.881,8.200,1.430,0.247,-0.159,-16.309,-19.613,-10.657,0.722,-2.111,-1.604,angry
4.31,3475,3843,0,3497,0,0,0,0,0,0,0,0,0,0,0,0,3.505,3.766,8.325,1.853,0.200,-0.164,-13.702,-19.613,-1.875,-0.439,-0.997,-1.620,angry
4.32,3558,3777,0,3552,0,0,0,0,0,19,0,0,0,0,0,0,3.735,3.857,8.701,2.374,0.289,-0.236,-12.924,-19.613,-6.709,-2.128,0.548,-1.261,angry
4.33,3654,3691,0,3552,0,0,0,0,0,3,0,0,2,0,0,427,4.767,4.005,8.420,3.002,0.572,-0.422,-11.791,-8.502,1.628,-1.851,2.403,0.189,angry
4.34,3699,3414,0,3537,0,0,0,0,0,0,0,0,0,0,0,1596,4.944,3.115,8.282,3.890,0.803,-0.668,-15.277,19.613,19.613,-4.366,0.639,1.042,angry
4.35,3720,2549,0,3453,0,0,0,0,0,0,0,0,0,0,159,2541,6.431,3.673,8.863,4.778,1.204,-0.945,-0.110,-7.575,3.328,-4.366,0.587,1.612,angry
4.36,3712,2117,0,3269,0,0,0,0,1567,2553,0,2495,2587,1652,1554,3103,6.912,2.942,10.810,5.894,1.268,-1.502,4.599,-19.613,19.613,-4.366,1.329,0.662,angry
4.37,3399,953,0,1662,0,0,0,0,1571,2557,0,2494,2583,1648,1551,3103,4.547,11.890,19.613,7.384,-1.293,-2.848,2.437,-2.557,17.257,-3.739,1.321,0.487,angry
4.38,672,0,0,624,0,0,0,0,0,0,0,0,83,0,2675,3987,6.546,13.072,19.613,6.827,-2.129,-5.100,1.563,-14.945,19.613,-2.188,1.991,0.858,angry
4.39,97,0,0,234,0,0,0,0,0,0,0,0,936,0,2987,4013,13.867,7.934,19.613,0.835,-0.664,-5.554,0.682,-3.230,12.546,-1.098,2.402,1.249,angry
4.40,0,0,0,0,0,0,0,0,0,0,0,63,1291,0,3127,4031,19.613,-4.975,19.561,-2.131,0.829,-5.844,1.255,-5.689,12.936,-0.418,1.316,0.520,angry
4.41,0,0,0,0,0,0,0,0,0,0,0,331,1567,0,3157,4043,19.613,4.499,14.535,-2.833,1.593,-3.233,1.623,-4.130,11.631,-0.354,0.867,0.400,angry
4.42,0,0,0,0,0,0,0,0,0,7,53,805,1913,0,3195,4057,19.613,-2.078,4.360,-2.620,1.366,-1.232,0.879,-3.134,10.570,-0.165,0.509,0.284,angry
4.43,0,0,0,0,0,0,0,0,40,0,0,1117,2040,0,3245,4049,19.209,-3.843,4.130,-2.065,0.569,0.880,1.051,-3.105,10.671,-0.225,0.118,0.243,angry
4.44,0,0,0,0,0,0,0,0,43,255,5,1191,2300,3,3213,4040,13.884,-1.427,7.616,-1.666,-0.772,2.529,1.530,-3.242,9.735,-0.203,-0.030,0.090,angry
4.45,0,0,0,0,0,0,0,0,11,207,0,1367,2319,5,3229,4007,9.864,0.462,9.448,-1.873,-1.580,3.513,1.820,-3.282,9.867,-0.218,-0.058,0.004,angry
4.46,0,0,0,0,0,0,0,0,6,365,2,1463,2463,0,3151,3950,6.443,0.283,9.845,-2.441,-1.617,3.876,1.939,-0.661,9.553,-0.196,0.129,0.085,angry
4.47,0,0,0,0,0,0,0,0,10,393,0,1454,2549,29,3019,3867,3.373,0.747,9.850,-3.105,-1.221,3.698,1.997,-2.579,9.567,-0.175,0.093,0.108,angry
4.48,0,0,0,0,0,0,0,0,13,343,92,1323,2393,0,2575,3049,1.006,0.850,10.760,-3.665,-1.025,3.225,2.895,-3.361,9.088,-0.247,-0.085,0.057,angry
4.49,0,0,0,0,0,0,0,0,29,381,35,1590,2598,0,2591,3677,1.149,2.212,12.206,-4.155,-1.043,2.704,2.064,-3.100,9.373,-0.230,-0.009,0.199,angry
4.50,0,0,0,0,0,0,0,0,87,264,28,1637,2599,3,2187,3531,2.234,4.041,13.707,-4.585,-1.139,2.311,1.669,-2.950,9.378,-0.245,-0.004,0.228,angry
4.51,0,0,0,0,0,0,0,0,111,325,5,1692,2613,24,1902,3415,1.848,6.452,14.890,-4.958,-1.476,2.064,1.908,-3.146,9.574,-0.245,0.050,0.273,angry
4.52,0,0,0,0,0,0,0,0,153,463,7,1893,2631,4,1673,3276,1.800,7.602,14.475,-5.155,-1.944,1.758,1.633,-3.321,9.388,-0.260,0.062,0.303,angry
4.53,0,0,0,0,0,0,0,0,211,655,12,1875,2611,6,1717,3140,2.581,8.784,14.767,-5.161,-2.183,1.408,1.446,-3.546,9.474,-0.181,0.040,0.241,angry
4.54,0,0,0,0,0,0,0,0,383,652,12,2053,2531,7,1681,3021,2.727,11.789,18.526,-5.282,-2.443,1.012,1.633,-2.830,8.959,-0.177,0.019,0.212,angry
4.55,0,0,0,0,0,0,0,0,459,776,7,2009,2431,0,1597,2886,4.918,14.451,17.518,-5.543,-2.497,0.724,1.676,-2.981,9.165,-0.220,0.013,0.216,angry
4.56,0,0,0,0,0,0,0,0,795,934,12,2237,2396,6,1254,2636,7.738,16.190,13.106,-5.335,-2.224,0.722,1.556,-3.230,9.488,-0.291,-0.062,0.185,angry
4.57,0,0,0,0,0,0,0,0,1163,1041,7,2279,2315,51,1273,2361,5.883,19.132,10.700,-4.651,-1.979,1.001,1.535,-3.613,9.606,-0.225,0.018,0.192,angry
4.58,0,0,0,0,0,0,0,0,1571,2555,53,2491,2584,1638,1548,3123,-9.239,19.613,10.525,-3.191,-4.060,1.126,1.970,-3.237,9.519,-0.331,0.176,0.151,angry
4.59,0,0,0,0,0,0,0,0,1572,2523,53,2486,2580,1651,1545,3119,-2.895,19.613,-2.531,-1.313,-3.362,1.417,1.518,-2.562,9.129,-0.561,0.219,0.012,angry
4.60,0,0,0,0,0,0,0,0,1574,2555,17,2493,2582,1635,1545,3119,-12.000,19.613,-4.424,0.352,1.025,1.374,1.935,-2.375,8.899,-0.619,0.425,-0.134,angry
4.61,0,0,0,0,0,0,0,0,1591,2487,17,2493,2581,1635,1547,3239,-10.788,19.613,0.467,2.155,1.679,0.007,1.523,-2.698,9.349,-0.804,0.206,-0.140,angry
4.62,0,0,0,0,0,0,785,2199,1609,2556,17,2495,2583,1639,1549,3123,-19.613,-16.395,10.891,2.788,2.967,-1.640,1.453,-2.818,9.708,-1.351,0.097,-0.186,angry
4.63,0,0,0,0,622,0,2447,3394,1615,2565,15,2495,2585,1643,1549,3153,5.660,16.723,14.700,4.394,0.108,-2.972,1.769,-0.962,10.108,-3.882,0.318,-0.101,angry
4.64,64,244,0,0,1328,0,2951,3634,3337,798,17,2920,175,0,0,266,5.535,-0.144,5.425,0.667,4.511,-1.527,4.405,1.219,15.950,-4.366,0.871,0.522,angry
4.65,740,1591,0,1205,1823,0,3001,3722,3037,63,2,1837,2,0,0,183,4.831,5.590,7.027,1.788,1.372,-1.398,5.578,-0.843,19.613,-4.366,0.543,0.931,angry
4.66,1603,2265,0,2343,2192,492,3058,3733,1519,0,0,569,0,0,0,0,5.653,8.595,11.937,0.720,0.230,-0.115,1.788,-15.277,19.613,-4.366,-0.491,3.074,angry
4.67,2274,2442,0,2731,2354,910,3056,3704,0,0,0,0,0,0,0,0,3.357,4.609,9.299,0.447,0.147,0.006,8.758,5.595,19.613,0.795,0.734,4.366,angry
4.68,2479,2583,0,2859,2438,983,3027,3649,0,0,0,0,0,0,0,0,2.863,4.719,9.416,0.353,0.094,0.004,11.612,-6.369,16.901,1.603,1.579,4.343,angry
4.69,2635,2743,0,2944,2551,848,2998,3570,0,0,0,0,0,0,0,0,2.873,4.195,8.990,0.272,0.030,-0.030,13.973,7.072,11.392,3.280,2.888,4.095,angry
4.70,2749,2911,0,3009,2591,729,2968,3499,1558,2555,0,2471,2585,1647,1554,3118,3.225,4.207,8.696,0.234,0.017,-0.042,15.232,2.243,4.269,3.633,2.536,2.364,angry
4.71,2877,3011,0,3070,2644,0,2736,3271,1565,2555,0,2495,2584,1644,1558,3122,3.395,4.156,8.717,0.236,0.037,-0.032,12.203,1.788,5.545,3.705,1.328,0.943,angry
4.72,2953,3116,0,3107,2480,0,2437,2960,1564,2557,0,2487,2583,1647,1549,3117,3.424,4.039,8.571,0.258,0.035,-0.013,9.285,0.077,6.309,3.619,-1.591,-2.168,angry
4.73,3015,3159,0,3127,2124,0,1931,2445,0,0,0,0,0,0,0,0,3.309,4.180,8.504,0.263,0.039,0.046,3.613,-2.313,7.999,4.199,-1.594,-3.624,angry
4.74,3043,3184,0,3139,2086,0,1638,1636,0,0,0,0,0,0,0,0,3.249,4.130,8.569,0.258,0.067,0.110,0.488,-2.588,9.967,4.348,-1.565,-3.595,angry
4.75,3069,3206,0,3149,1808,0,1449,963,0,0,0,0,0,0,0,0,3.448,4.415,8.384,0.235,0.098,0.150,0.646,-4.391,12.974,4.366,-1.529,-3.308,angry
4.76,3103,3205,0,3152,1742,0,1312,679,0,0,46,0,0,0,0,0,3.361,4.245,8.408,0.209,0.056,0.141,2.121,-5.880,14.569,4.366,-1.264,-3.101,angry
4.77,3120,3238,0,3152,1718,0,944,400,0,0,0,0,0,0,0,0,3.388,4.393,8.380,0.163,0.023,0.083,2.519,-7.307,15.040,4.366,-1.077,-2.985,angry
4.78,3154,3264,0,3155,1758,0,931,135,0,0,53,0,0,0,1,0,3.433,4.314,8.358,0.126,0.002,0.013,7.429,-10.817,15.514,4.366,-0.920,-3.119,angry
4.79,3183,3280,0,3172,1849,0,779,0,0,0,0,0,0,0,0,0,3.421,4.195,8.423,0.118,-0.012,-0.044,15.148,-16.582,14.796,4.366,-0.457,-4.125,angry
4.80,3210,3318,0,3178,1867,0,717,0,0,0,0,0,0,0,0,0,3.390,4.096,8.550,0.100,-0.039,-0.059,17.734,-19.613,12.783,4.366,-0.106,-4.366,angry
4.81,3252,3341,0,3193,1841,0,639,0,0,0,0,0,0,0,0,0,3.247,4.293,8.521,0.083,-0.047,-0.051,15.493,-19.613,9.079,3.864,0.145,-4.366,angry
4.82,3307,3373,0,3206,1808,0,576,0,0,0,0,0,16,0,0,0,3.168,4.322,8.765,0.068,-0.065,-0.056,7.412,-19.613,6.395,2.703,0.099,-4.366,angry
4.83,3351,3379,0,3227,1824,0,560,0,0,0,63,0,0,0,0,0,3.297,4.216,8.509,0.074,-0.072,-0.072,0.481,-19.613,4.875,1.566,-0.530,-4.366,angry
4.84,3398,3408,0,3250,1807,0,494,0,0,0,0,0,0,0,0,22,3.417,4.041,8.396,0.104,-0.082,-0.091,-5.636,-19.613,-3.831,0.655,-0.890,-4.366,angry
4.85,3442,3437,0,3255,1763,0,379,0,0,0,0,0,0,1,0,0,3.393,4.089,8.562,0.148,-0.087,-0.121,-6.788,-19.613,-7.274,-1.096,-1.135,-4.366,angry
4.86,3458,3469,0,3247,82,0,253,0,0,0,0,0,0,0,0,0,3.632,3.989,8.552,0.172,-0.081,-0.185,-7.147,-19.613,-3.670,-1.998,-0.818,-3.510,angry
4.87,3515,3486,0,3264,0,0,128,0,0,0,0,0,0,0,0,0,3.582,3.800,8.765,0.216,-0.099,-0.276,-9.876,-19.613,0.800,-2.123,-0.810,-1.815,angry
4.88,3517,3474,0,3220,0,0,0,0,0,0,0,72,0,0,0,52,3.153,3.572,9.280,0.278,-0.152,-0.482,-4.990,-11.056,1.274,-1.909,-1.284,0.482,angry
4.89,3505,3401,0,3121,0,0,0,0,0,0,0,5,0,0,187,695,1.279,2.612,10.288,0.048,-0.285,-1.071,9.419,1.738,11.238,-1.836,-0.684,1.057,angry
4.90,3470,3088,0,2999,0,0,0,0,0,0,0,7,0,0,1051,1819,0.527,1.693,11.140,-0.310,-0.753,-2.220,12.057,12.641,16.953,-2.720,-1.531,0.803,angry
4.91,3428,2919,0,2982,0,0,0,0,0,0,0,0,27,0,1757,2451,1.228,2.325,10.453,-0.781,-1.390,-3.439,19.613,1.930,19.027,-4.366,3.276,0.642,angry
4.92,3378,2699,0,2973,0,0,0,0,0,0,33,0,647,0,2341,2875,0.735,2.873,10.951,-1.357,-2.007,-4.661,-9.831,-14.348,18.658,-1.446,2.038,0.617,angry
4.93,3247,2163,0,2896,0,0,0,0,0,0,0,0,1674,0,2719,2976,1.872,5.954,9.972,-2.344,-2.691,-6.370,2.105,-0.642,11.712,-0.940,2.513,0.601,angry
4.94,3132,1430,0,2811,0,0,0,0,0,518,0,69,2263,0,2918,3021,1.942,5.813,8.959,-2.791,-2.874,-7.085,-3.464,-4.211,19.613,-1.446,1.083,0.172,angry
4.95,2815,399,0,2324,0,0,0,0,0,1385,0,989,2735,0,2935,3077,2.684,7.942,7.506,-3.089,-2.971,-8.087,-1.279,-0.342,12.878,-1.134,0.839,-1.222,angry
4.96,1791,0,0,1034,0,0,0,0,2,1547,0,1801,2885,0,2909,3049,4.590,10.477,6.553,-3.662,-2.441,-8.731,1.326,-3.352,10.008,-1.178,1.504,-2.932,angry
4.97,784,0,0,0,0,0,0,0,17,1895,0,2164,2895,1,2803,2981,4.609,11.217,6.876,-3.500,-2.205,-8.396,0.479,-4.104,10.508,-0.993,1.651,-3.708,angry
4.98,919,0,0,0,0,0,0,0,27,2205,0,2057,3059,1,2661,2537,0.163,10.400,2.595,-2.928,-4.216,-6.415,-0.950,-4.312,9.907,-0.927,1.848,-4.366,angry
4.99,870,0,0,0,0,0,0,0,18,2251,112,2136,2963,0,2086,1079,0.323,12.368,3.491,-2.338,-4.587,-5.861,-0.144,-4.741,9.943,-0.927,1.899,-4.366,angry
5.00,754,0,0,0,0,0,0,0,45,2419,5,2232,2943,2,1431,473,1.389,8.832,2.840,-1.687,-3.564,-5.178,0.486,-3.843,9.503,-0.938,1.832,-4.366,angry
5.01,656,0,0,0,0,0,0,0,53,2540,0,2309,2808,31,1155,378,2.193,6.730,4.590,-1.292,-2.735,-4.731,0.606,-3.493,9.081,-0.844,1.781,-4.366,angry
5.02,511,0,0,0,0,0,0,0,51,2631,2,2316,2520,1,941,180,2.660,3.661,6.606,-0.948,-2.041,-4.237,0.962,-3.405,9.072,-0.794,1.687,-4.366,angry
5.03,494,0,0,0,0,0,0,0,147,2828,2,2332,2597,2,761,72,3.529,1.099,8.102,-0.764,-1.516,-3.696,1.381,-3.376,8.672,-0.793,1.498,-4.011,angry
5.04,451,0,0,0,0,0,0,0,91,2858,0,2414,2590,1,552,51,3.953,-1.202,9.558,-0.692,-1.114,-3.088,1.302,-2.931,9.129,-0.706,1.384,-3.613,angry
5.05,418,0,0,0,0,0,0,0,200,2935,40,2475,2577,2,349,57,2.784,-2.650,10.448,-0.726,-0.916,-2.572,2.030,-3.223,9.754,-0.718,1.237,-3.304,angry
5.06,365,0,0,0,0,0,0,0,415,2971,0,2664,2381,1,365,0,1.712,-2.923,11.550,-0.966,-0.864,-2.173,1.283,-3.017,10.041,-0.599,1.141,-2.749,angry
5.07,352,0,0,0,0,0,0,0,695,2963,0,2735,2332,0,191,0,1.516,-2.014,12.088,-1.209,-0.797,-2.146,1.235,-3.024,9.184,-0.498,1.156,-2.489,angry
5.08,301,0,0,0,0,0,0,0,861,2971,0,2699,2199,0,253,20,0.939,-0.522,11.631,-1.458,-0.746,-2.203,1.719,-2.646,9.831,-0.429,1.017,-2.250,angry
5.09,319,0,0,0,0,0,0,0,1113,2907,0,2739,2056,0,281,0,0.503,1.209,11.219,-1.590,-0.743,-2.374,1.535,-3.158,9.392,-0.381,0.963,-2.089,angry
5.10,278,0,0,0,0,0,0,0,1287,2891,0,2779,1957,0,342,0,0.101,2.981,10.551,-1.705,-0.684,-2.612,1.597,-2.741,9.883,-0.443,0.865,-2.030,angry
5.11,305,0,0,0,0,0,0,0,1463,2891,2,2851,1897,0,357,0,0.000,4.441,9.012,-1.731,-0.600,-2.935,2.591,-1.762,12.026,-1.147,0.779,-1.958,angry
5.12,322,0,0,0,0,0,0,0,1519,2939,0,2877,1752,0,325,0,1.082,5.990,7.994,-1.652,-0.492,-3.204,1.231,-3.242,9.598,-0.513,0.916,-1.909,angry
5.13,274,0,0,0,36,0,0,0,1622,2959,0,2971,1705,0,375,0,2.298,7.309,6.653,-1.510,-0.389,-3.286,0.970,-3.041,9.579,-0.582,0.937,-1.893,angry
5.14,257,0,0,0,32,0,0,0,1817,2921,2,3015,1467,0,281,1,3.369,8.042,5.198,-1.275,-0.352,-3.239,1.276,-3.266,9.828,-0.675,0.916,-1.868,angry
5.15,176,0,0,0,0,0,0,0,1991,2889,0,3037,1337,31,213,0,3.431,8.588,3.754,-0.776,-0.823,-3.451,0.931,-3.179,9.711,-0.761,0.881,-1.854,angry
5.16,84,0,0,0,0,0,0,432,2075,2830,0,3059,1017,0,165,12,7.444,10.161,3.349,-0.594,-0.904,-3.445,1.853,-3.366,9.436,-0.960,0.880,-1.889,angry
5.17,64,0,0,0,0,0,0,1505,1617,2565,17,2467,2579,1645,1558,3107,10.051,7.025,4.939,-0.325,-0.842,-3.060,1.441,-2.923,9.658,-1.273,0.918,-1.946,angry
5.18,236,0,0,0,0,0,863,2453,1622,2558,15,2492,2581,1653,1559,3153,17.480,0.366,8.772,-1.057,-1.217,-1.604,2.100,-3.297,9.618,-1.555,0.972,-2.046,angry
5.19,399,237,0,158,822,0,2203,2958,1618,2571,102,2503,2590,1655,1577,3124,16.577,1.997,3.694,-0.091,-0.577,-0.754,2.543,-3.127,9.641,-2.359,0.975,-2.174,angry
5.20,549,911,0,436,1489,0,2733,3239,1589,2547,0,2489,2568,1651,1555,3115,1.106,3.587,10.523,0.066,-0.243,-0.288,1.451,-3.220,9.701,-3.565,2.439,-1.897,angry
5.21,580,1504,0,649,1810,0,3088,3410,2454,229,0,2924,1,0,0,0,6.096,4.405,7.910,-0.106,-0.027,-0.104,5.691,-2.387,12.237,-4.366,3.384,-0.961,angry
5.22,548,1680,0,849,2147,0,3214,3523,2198,0,0,1143,0,0,0,0,4.441,3.247,8.516,0.046,0.077,-0.118,10.618,-5.162,19.613,-4.366,3.376,2.455,angry
5.23,592,1665,0,1003,2391,0,3267,3600,379,0,0,121,0,3,0,0,3.038,3.352,9.498,0.064,0.056,-0.073,11.260,-10.743,19.613,-4.366,4.366,2.973,angry
5.24,621,1693,0,1109,2507,0,3278,3619,0,0,0,6,0,0,0,0,2.933,3.156,9.246,0.074,-0.020,-0.052,19.613,4.068,19.613,0.105,4.366,0.470,angry
5.25,603,1741,0,1162,2547,0,3259,3622,1573,2556,0,2489,2583,1647,1553,3114,2.720,3.105,9.263,0.116,-0.078,-0.103,19.613,-0.788,7.075,0.200,3.456,-3.136,angry
5.26,633,1791,0,1144,2589,0,3216,3583,1576,2547,0,2492,2619,1655,1555,3117,2.737,3.218,9.201,0.117,-0.104,-0.194,7.731,-0.001,-0.001,-0.000,-0.000,-0.000,angry
5.27,603,1874,0,1169,2555,0,3150,3517,0,0,0,0,13,0,0,0,2.801,3.053,9.122,0.118,-0.132,-0.351,9.249,-0.060,14.964,3.274,0.587,-2.158,angry
5.28,619,1967,0,1259,2559,0,3099,3462,1545,2558,0,2483,2585,1648,1555,3116,2.863,3.172,8.691,0.114,-0.130,-0.430,7.106,-1.130,12.155,4.063,0.524,-1.873,angry
5.29,604,2032,0,1383,2559,0,2995,3306,1565,2570,0,2491,2583,1644,1547,3115,3.524,3.170,8.423,0.121,-0.120,-0.499,6.110,-2.452,9.369,4.366,0.149,-1.477,angry
5.30,626,2110,0,1616,2589,0,2917,3120,0,0,0,0,0,0,0,0,3.299,3.661,8.973,0.150,-0.085,-0.467,8.554,-6.045,9.191,4.366,-0.849,-1.303,angry
5.31,608,2192,0,1729,2608,0,2863,2960,0,0,0,0,0,0,0,0,2.931,3.464,9.182,0.150,-0.104,-0.489,9.117,-7.719,10.384,4.366,-1.309,-1.519,angry
5.32,659,2259,0,1877,2637,0,2795,2768,0,0,0,0,0,0,0,0,2.322,3.227,9.024,0.151,-0.120,-0.547,9.582,-8.808,10.391,4.366,-1.647,-1.837,angry
5.33,686,2321,0,2054,2686,0,2747,2702,0,0,0,11,0,0,0,0,3.563,3.541,8.543,0.133,-0.099,-0.584,8.825,-8.957,10.094,4.366,-1.954,-2.200,angry
5.34,742,2395,0,2150,2700,0,2704,2639,0,0,0,0,0,0,0,0,3.886,3.251,8.061,0.149,-0.077,-0.584,8.744,-9.385,11.650,4.366,-2.253,-2.558,angry
5.35,818,2530,0,2334,2778,0,2689,2593,0,0,0,0,0,0,0,0,3.692,3.529,8.432,0.172,-0.049,-0.565,9.591,-11.078,13.465,4.142,-2.332,-3.073,angry
5.36,924,2648,0,2540,2817,0,2631,2544,0,0,0,0,0,0,0,0,3.847,4.760,9.060,0.123,-0.049,-0.479,6.850,-13.024,14.614,3.841,-2.497,-3.784,angry
5.37,1168,2794,0,2687,2880,0,2549,2461,0,0,0,0,0,0,9,0,3.476,4.085,8.921,0.081,-0.098,-0.430,2.279,-15.632,14.229,3.487,-2.587,-4.340,angry
5.38,1582,2992,0,2900,807,0,2438,2117,0,0,0,0,0,0,0,0,3.843,3.989,8.930,0.116,-0.134,-0.448,-8.736,-19.613,15.459,2.375,-3.821,-4.170,angry
5.39,1983,3237,0,3020,2457,0,2230,1152,0,0,0,0,0,0,0,0,3.840,3.345,8.610,0.198,-0.224,-0.467,-9.608,-19.613,8.049,2.028,-3.765,-3.707,angry
5.40,2473,3423,0,3120,2975,0,1622,0,0,0,2,0,0,0,0,0,3.158,3.462,8.552,0.368,-0.243,-0.549,-11.993,-19.613,-0.759,0.865,-1.087,-0.626,angry
5.41,2672,3519,0,3158,2583,0,816,0,0,0,0,0,0,0,0,0,3.809,2.988,9.057,0.641,-0.189,-0.539,-9.414,-19.613,-2.239,-0.398,-0.618,0.527,angry
5.42,2825,3600,0,3199,1359,0,560,0,0,0,0,0,0,0,0,0,2.270,2.435,9.220,1.333,-0.080,-0.481,1.482,-19.613,-5.890,-1.854,-0.088,0.613,angry
5.43,2990,3659,0,3276,1639,0,497,0,0,0,2,0,26,0,0,0,3.546,3.553,9.019,1.702,-0.040,-0.395,12.706,-19.613,-3.613,-3.394,1.611,-0.709,angry
5.44,3152,3693,0,3258,0,0,527,0,2,1,2,102,0,0,19,468,3.519,3.558,8.825,2.122,-0.035,-0.412,-2.267,-10.211,19.613,-2.111,1.935,-1.601,angry
5.45,3287,3696,0,3267,0,0,320,0,0,1,30,1,0,1,537,1635,3.268,3.000,9.268,2.750,-0.068,-0.400,-14.820,9.172,17.090,-3.175,-0.030,-1.790,angry
5.46,3438,3539,0,3174,0,0,42,0,1,0,2,42,30,0,1767,2879,6.213,3.345,9.287,3.984,0.169,-0.713,4.640,-10.388,12.524,-2.954,0.157,0.819,angry
5.47,3475,3237,0,2741,0,0,0,0,5,0,2,1,100,1,2257,3221,5.763,4.247,10.424,4.801,-0.140,-1.231,13.659,-13.810,10.266,0.025,3.236,1.681,angry
5.48,3460,1936,0,1967,0,0,0,0,3,22,23,3,215,3,2716,3463,4.685,0.709,13.144,5.742,-1.012,-1.798,-2.389,-0.180,11.341,-0.279,2.225,0.837,angry
5.49,2774,1339,0,1264,0,0,0,0,3,2,10,4,695,3,3006,3677,9.694,10.599,19.613,7.259,-2.013,-3.314,3.314,-6.905,14.540,-0.216,1.787,0.832,angry
5.50,578,156,0,142,0,0,0,0,23,3,10,4,1355,1,3242,3879,11.581,8.665,19.613,5.101,-1.960,-4.866,1.844,-3.376,10.934,-0.055,1.383,0.417,angry
5.51,0,0,0,0,0,0,0,0,0,4,61,5,1553,6,3277,3927,19.161,-6.816,19.613,1.034,-1.115,-4.977,2.686,-3.237,9.991,-0.056,1.396,0.295,angry
5.52,0,0,0,0,0,0,0,0,3,2,12,6,1885,4,3381,3949,19.613,-6.541,19.613,-1.262,0.136,-4.016,1.765,-2.097,9.742,-0.048,1.328,0.291,angry
5.53,0,0,0,0,0,0,0,0,0,3,12,3,2269,3,3422,3948,19.613,-3.402,17.229,-2.340,0.326,-2.436,0.891,-1.980,11.380,-0.280,1.101,0.339,angry
5.54,0,0,0,0,0,0,0,0,1,30,7,2,2407,1,3319,3751,14.823,-7.898,12.833,-3.023,-0.132,-1.553,1.125,-2.784,11.540,-0.315,0.985,0.371,angry
5.55,0,0,0,0,0,0,0,0,1583,2568,0,2507,2591,1639,1545,3165,13.633,-4.094,10.321,-3.102,-0.968,-0.596,2.207,-3.074,10.154,-0.258,0.739,0.229,angry
5.56,0,0,0,0,0,0,0,0,17,177,40,213,2841,39,3413,3896,11.411,0.196,9.720,-3.578,-1.785,0.984,2.195,-3.069,9.998,-0.097,0.321,0.121,angry
5.57,0,0,0,0,0,0,0,0,9,263,23,348,2904,79,3347,3849,7.398,0.512,8.583,-3.680,-1.924,1.639,1.834,-2.576,9.785,-0.046,0.247,0.160,angry
5.58,0,0,0,0,0,0,0,0,7,341,23,416,2940,5,3287,3757,4.906,1.647,9.036,-3.710,-2.044,1.954,1.863,-2.567,9.584,-0.063,0.183,0.188,angry
5.59,0,0,0,0,0,0,0,0,7,293,25,479,2963,5,3179,3702,4.144,2.986,10.563,-3.769,-2.130,2.091,1.731,-2.219,9.333,-0.122,0.169,0.215,angry
5.60,0,0,0,0,0,0,0,0,6,275,12,479,2979,6,3013,3629,3.977,4.039,11.779,-3.954,-2.055,2.151,1.616,-2.531,9.455,-0.140,0.118,0.246,angry
5.61,0,0,0,0,0,0,0,0,7,434,17,495,2969,7,2839,3532,4.618,5.267,11.937,-4.133,-1.904,2.242,1.683,-2.365,9.280,-0.215,0.113,0.318,angry
5.62,0,0,0,0,0,0,0,0,3,441,12,777,3004,5,2395,3436,4.973,6.273,13.032,-4.181,-1.822,2.446,1.970,-1.946,8.408,-0.366,0.096,0.438,angry
5.63,0,0,0,0,0,0,0,0,11,537,15,831,2997,4,2245,3356,5.782,7.307,14.365,-4.159,-1.849,2.724,1.532,-2.198,8.921,-0.358,0.237,0.583,angry
5.64,0,0,0,0,0,0,0,0,0,633,48,1178,2990,7,2183,3275,6.057,8.128,15.033,-4.108,-1.703,3.048,1.030,-2.954,10.029,-0.358,0.292,0.628,angry
5.65,0,0,0,0,0,0,0,0,73,870,0,1755,2920,9,2003,3177,5.602,8.380,15.589,-3.959,-1.427,3.220,2.284,-3.345,9.251,-0.290,0.334,0.632,angry
5.66,0,0,0,0,0,0,0,0,90,1048,20,1863,2859,8,1957,3083,6.551,9.843,16.908,-3.826,-0.978,3.257,1.235,-3.400,9.570,-0.101,0.278,0.331,angry
5.67,0,0,0,0,0,0,0,0,238,1229,23,2077,2792,11,1839,2811,7.238,14.995,19.522,-3.781,-0.355,3.445,1.295,-3.345,9.780,-0.049,0.256,0.240,angry
5.68,0,0,0,0,0,0,0,0,1063,1507,48,2504,2619,10,1453,2310,1.358,19.613,19.613,-3.623,-0.457,3.680,1.444,-2.696,8.873,-0.224,0.053,0.078,angry
5.69,0,0,0,0,0,0,0,0,1267,1251,23,2235,2206,23,1007,1549,-7.283,19.613,2.784,-2.986,-1.175,3.014,1.980,-3.184,9.014,-0.139,0.036,0.152,angry
5.70,0,0,0,0,0,0,0,0,1573,2584,33,2523,2604,1645,1561,3144,-14.214,19.613,-10.338,-0.968,-2.141,1.759,1.709,-2.239,9.464,-0.578,0.043,0.006,angry
5.71,16,0,0,0,0,0,0,0,1581,2583,61,2518,2603,1559,1561,3149,-7.585,19.613,-6.359,0.840,-0.444,0.848,1.111,-3.326,9.278,-0.599,0.031,-0.101,angry
5.72,0,0,0,0,0,0,0,175,1587,2589,17,2524,2601,1643,1559,3157,0.563,19.613,-7.846,3.080,1.935,-0.092,1.470,-3.105,9.649,-0.931,0.073,-0.208,angry
5.73,0,0,0,0,0,0,895,2839,1599,2613,15,2526,2611,1659,1563,3157,-6.388,-17.552,19.613,5.604,-1.650,-0.960,2.260,-1.506,10.032,-2.645,0.056,-0.360,angry
5.74,0,0,0,0,79,0,2225,3509,3355,1133,33,3109,137,3,6,73,1.903,19.613,19.613,3.789,-0.108,-2.439,3.333,-5.449,7.305,-4.366,0.599,-0.190,angry
5.75,0,0,0,0,772,0,3011,3735,3335,696,12,2757,117,3,11,1,18.153,10.760,14.624,1.795,2.666,-2.240,6.316,-6.610,15.366,-4.366,1.786,1.701,angry
5.76,0,613,0,0,1834,0,3235,3792,2651,0,0,941,30,0,0,0,1.310,7.647,17.229,0.579,2.597,-1.248,8.207,-2.751,19.613,-4.366,2.431,4.366,angry
5.77,0,1078,0,0,2075,0,3322,3825,1465,0,0,111,0,0,0,0,5.480,5.758,11.921,0.464,2.079,-0.893,7.733,0.955,19.613,-4.366,1.827,4.366,angry
5.78,0,1488,0,214,2255,0,3376,3783,1561,2557,0,2491,2573,1651,1556,3118,1.437,4.307,12.323,0.364,1.085,-0.561,0.261,-10.072,19.613,-4.366,-0.054,4.366,angry
5.79,0,1866,0,704,2559,0,3446,3837,0,21,0,0,0,0,1,0,3.338,3.713,10.204,0.386,0.473,-0.375,19.613,8.255,19.613,2.323,1.088,3.036,angry
5.80,129,2032,0,958,2608,0,3457,3807,1563,2517,0,2501,2587,1647,1553,3127,3.661,3.718,9.725,0.312,0.188,-0.234,13.690,3.213,9.919,2.393,0.876,1.706,angry
5.81,246,2253,0,1099,2769,0,3408,3696,1565,2543,0,2495,2585,1645,1547,3119,3.675,3.570,9.158,0.257,0.037,-0.134,7.642,5.847,11.519,2.589,-1.003,0.701,angry
5.82,311,2474,0,1119,2847,0,3293,3493,0,0,0,62,0,17,0,0,4.305,3.010,8.078,0.301,0.065,-0.193,7.702,-0.984,12.931,4.114,-2.436,-1.279,angry
5.83,385,2522,0,1238,2862,0,3174,3351,0,0,0,0,0,0,0,0,4.132,2.969,8.140,0.369,0.129,-0.287,1.176,-1.202,10.906,4.366,-2.849,-1.639,angry
5.84,448,2624,0,1435,2821,0,3005,3168,1637,2571,0,2506,2601,1670,1560,3124,3.836,3.084,8.454,0.432,0.160,-0.346,-2.988,-1.832,9.809,4.366,-3.492,-1.500,angry
5.85,511,2743,0,1827,2759,0,2624,2782,0,0,0,0,0,0,0,0,3.448,4.085,8.985,0.450,0.092,-0.366,-1.494,-4.350,10.585,4.366,-3.258,-0.727,angry
5.86,565,2827,0,2022,2624,0,2444,2538,0,0,0,0,0,0,0,0,3.390,3.812,8.823,0.394,0.061,-0.318,-1.877,-5.250,11.904,4.366,-3.043,-0.451,angry
5.87,675,2896,0,2211,352,0,2194,2262,0,0,0,0,19,0,0,0,3.440,3.687,8.602,0.363,0.095,-0.331,-0.759,-5.995,13.089,4.366,-3.208,-0.389,angry
5.88,662,2981,0,2368,925,0,1922,1897,1571,2557,0,2501,2586,1646,1549,3125,3.697,3.766,8.193,0.326,0.120,-0.361,2.473,-7.408,14.317,4.366,-3.281,-0.717,angry
5.89,976,3127,0,2646,2624,0,1418,784,1573,2547,0,2501,2585,1643,1548,3123,3.773,4.221,8.365,0.297,0.100,-0.317,4.001,-8.849,16.642,4.366,-3.340,-1.436,angry
5.90,1555,3239,0,2887,2643,0,1110,304,1524,2565,0,2513,2590,1643,1549,3141,3.402,4.532,8.863,0.195,0.047,-0.308,6.560,-11.858,19.613,4.366,-3.387,-3.166,angry
5.91,2000,3393,0,3071,3,0,785,0,0,0,0,0,0,0,23,0,3.100,4.005,8.792,0.296,-0.021,-0.265,-6.000,-19.613,19.613,4.366,-3.384,-4.366,angry
5.92,2287,3510,0,3152,0,0,548,0,0,0,0,0,0,0,23,0,3.223,4.106,8.744,0.353,-0.042,-0.228,-5.842,-19.613,13.115,4.366,-2.916,-4.322,angry
5.93,2527,3615,0,3218,167,0,309,0,0,0,0,0,0,0,0,0,3.505,3.962,8.207,0.452,0.114,-0.215,-7.958,-19.613,7.920,3.397,-1.402,-3.602,angry
5.94,2719,3695,0,3280,1516,0,261,0,0,0,0,0,0,0,0,0,3.546,3.428,8.155,0.838,0.179,-0.148,-16.103,-19.613,-2.440,1.952,-1.193,-2.564,angry
5.95,2935,3733,0,3344,1206,0,194,0,0,0,33,30,0,0,0,0,3.764,4.166,8.346,1.007,0.292,-0.158,-17.863,-19.613,-6.421,1.023,-1.613,-1.265,angry
5.96,3136,3792,0,3408,1147,0,0,0,0,23,0,0,0,0,0,0,3.598,4.005,8.626,1.241,0.384,-0.148,-11.277,-19.613,-4.791,-0.333,-1.200,-0.841,angry
5.97,3323,3794,0,3457,0,0,0,0,0,17,0,0,1,0,0,0,3.994,3.881,8.899,1.512,0.434,-0.163,-10.803,-19.613,-5.315,-1.598,0.239,-0.803,angry
5.98,3474,3746,0,3515,4,0,0,0,0,0,0,0,0,0,0,40,3.843,3.548,8.720,2.021,0.460,-0.187,-0.144,-11.442,5.938,-0.077,3.542,0.175,angry
5.99,3613,3642,0,3535,0,0,0,0,4,0,0,5,11,0,7,887,3.843,2.772,8.691,2.765,0.514,-0.290,-11.315,19.613,19.613,-1.627,2.478,0.538,angry
6.00,3718,3248,0,3536,0,0,0,0,0,0,33,0,1,0,12,1976,4.053,2.109,8.863,3.761,0.760,-0.487,2.540,3.491,-1.647,-4.366,1.235,1.164,angry
6.01,3748,2383,0,3445,0,0,0,0,0,0,0,0,0,0,63,2425,6.955,3.443,8.483,4.794,1.044,-1.054,-4.108,-16.824,19.613,-4.213,1.790,0.770,angry
6.02,3760,1826,0,3246,0,0,0,0,0,21,0,0,0,0,479,3099,6.974,6.105,10.740,5.599,1.134,-2.067,-3.915,-4.259,16.249,-3.329,1.117,0.084,angry
6.03,3713,1142,0,2525,0,0,0,0,1561,2637,2,2584,2666,1821,1619,3193,6.455,3.907,17.334,6.728,0.188,-3.291,1.745,-1.978,11.183,-3.294,0.554,0.471,angry
6.04,2704,185,0,1255,0,0,0,0,0,0,2,0,0,0,1692,3736,9.402,11.382,19.613,7.091,0.399,-5.408,3.881,-6.850,11.724,-3.035,0.173,0.337,angry
6.05,1139,0,0,327,0,0,0,0,0,0,0,0,12,24,2333,3891,7.487,11.545,19.613,6.384,0.018,-5.792,10.791,-15.143,19.613,-3.196,2.216,0.722,angry
6.06,254,0,0,224,0,0,0,0,0,13,0,0,261,0,2813,3977,15.876,4.537,19.613,2.725,-0.931,-5.666,2.337,-6.586,11.478,-2.036,0.539,0.256,angry
6.07,0,0,0,0,0,0,0,0,1,0,0,0,739,0,3021,3999,19.613,-0.350,19.613,-0.135,-0.480,-4.404,0.723,-5.370,15.529,-1.261,0.922,0.336,angry
6.08,0,0,0,0,0,0,0,0,0,0,2,0,1299,1,3149,4055,19.613,1.944,14.760,-0.795,0.330,-1.249,4.487,-3.098,8.914,-0.682,0.880,0.234,angry
6.09,0,0,0,0,0,0,0,0,1,0,0,1,1677,0,3291,4027,17.049,-4.657,14.911,-1.548,0.077,0.545,-0.273,-3.340,12.531,-0.465,0.564,0.176,angry
6.10,0,0,0,0,0,0,0,0,9,0,2,0,1880,0,3353,4028,12.388,-3.069,10.432,-1.745,-1.243,1.949,1.056,-1.927,10.484,-0.437,0.462,0.221,angry
6.11,0,0,0,0,0,0,0,0,17,0,0,0,2110,0,3355,3991,10.147,-1.384,11.789,-2.158,-1.829,2.676,1.408,-2.682,10.056,-0.394,0.289,0.167,angry
6.12,0,0,0,0,0,0,0,0,9,0,0,0,2151,0,3115,3675,8.633,1.389,12.081,-2.979,-1.414,3.185,1.745,-2.701,9.553,-0.407,0.215,0.104,angry
6.13,0,0,0,0,0,0,0,0,0,0,43,71,2149,0,2925,3437,3.919,1.901,11.552,-3.715,-1.215,3.335,1.906,-2.971,9.565,-0.430,0.202,0.092,angry
6.14,0,0,0,0,0,0,0,0,2,0,0,158,2403,0,3119,3895,0.175,1.937,10.570,-4.173,-1.503,3.111,2.198,-2.926,9.426,-0.397,0.257,0.153,angry
6.15,0,0,0,0,0,0,0,0,11,0,5,346,2294,0,2933,3812,0.163,2.442,9.790,-4.462,-1.621,2.693,2.081,-2.945,9.579,-0.360,0.335,0.174,angry
6.16,0,0,0,0,0,0,0,0,12,1,0,436,2295,1,2679,3733,1.477,3.790,11.119,-4.768,-1.461,2.285,1.602,-3.211,10.096,-0.331,0.376,0.220,angry
6.17,0,0,0,0,0,0,0,0,23,3,5,765,2218,1,2155,3637,2.394,5.720,12.814,-5.105,-1.309,2.015,0.670,-3.067,10.563,-0.174,0.319,0.274,angry
6.18,0,0,0,0,0,0,0,0,31,5,7,1085,2163,5,1820,3549,3.060,6.663,13.171,-5.281,-1.448,1.915,1.350,-3.340,10.125,-0.228,0.177,0.272,angry
6.19,0,0,0,0,0,0,0,0,12,293,12,1389,2153,5,1783,3447,5.092,7.898,13.036,-5.280,-1.548,2.013,1.288,-3.553,9.594,-0.167,0.059,0.170,angry
6.20,0,0,0,0,0,0,0,0,61,359,5,1622,2193,7,1865,3318,7.374,9.342,14.418,-5.198,-1.476,2.260,1.025,-2.983,9.445,-0.153,-0.061,0.121,angry
6.21,0,0,0,0,0,0,0,0,175,431,20,1678,2325,11,1772,3172,8.839,11.432,17.049,-5.103,-1.459,2.630,1.269,-2.823,9.402,-0.099,-0.008,0.104,angry
6.22,0,0,0,0,0,0,0,0,607,444,12,2246,2511,7,1673,2799,12.608,15.079,17.947,-4.890,-0.840,3.021,1.566,-3.345,9.574,-0.181,0.031,0.112,angry
6.23,0,0,0,0,0,0,0,0,1099,891,15,2439,2520,7,1615,2472,9.955,19.613,18.821,-4.677,-0.652,3.301,1.338,-3.050,9.474,-0.240,0.051,0.069,angry
6.24,0,0,0,0,0,0,0,0,1439,1158,122,2551,2519,9,1255,2137,2.217,19.613,19.613,-4.338,-1.473,3.539,1.750,-5.040,8.619,-0.277,0.269,0.098,angry
6.25,0,0,0,0,0,0,0,0,2116,1465,17,2873,2491,7,273,1476,-5.818,19.613,-0.397,-3.015,-2.802,3.842,1.250,-3.797,9.618,-0.279,0.087,0.151,angry
6.26,0,0,0,0,0,0,0,0,2238,1401,7,2778,2003,4,12,748,-16.874,19.613,-11.147,-0.330,-0.711,2.389,2.143,-3.373,8.408,-0.323,0.092,0.051,angry
6.27,0,0,0,0,0,0,0,0,1579,2553,20,2505,2463,1641,1553,3128,-16.925,19.613,-1.707,0.424,-0.272,1.051,1.125,-3.950,8.863,-0.629,0.273,-0.084,angry
6.28,0,0,0,0,0,0,0,111,1608,2557,0,2502,2485,1582,1545,3124,-5.631,19.613,-8.643,3.110,1.067,-0.167,1.312,-3.326,9.512,-0.703,-0.002,-0.096,angry
6.29,0,0,0,0,240,0,654,2816,1612,2559,17,2502,2585,1630,1673,3112,1.025,-12.785,19.613,4.831,-0.365,-2.016,0.955,-2.547,9.888,-2.363,-0.014,-0.101,angry
6.30,0,0,0,0,262,0,2118,3529,1613,2567,12,2494,2611,1646,1554,3128,3.060,19.503,19.613,4.324,-0.389,-2.444,0.630,-2.385,8.341,-4.124,0.134,-0.111,angry
6.31,0,84,0,0,872,0,3106,3731,3325,101,7,2733,19,1,0,169,19.613,13.403,15.725,1.759,2.735,-2.186,6.438,-7.192,15.931,-4.366,1.497,2.089,angry
6.32,0,1253,0,0,1810,0,3281,3807,2197,0,0,569,0,0,0,54,-2.904,8.262,19.613,0.880,2.786,-1.571,5.200,-0.682,19.613,-4.366,2.061,4.366,angry
6.33,0,1808,0,318,2243,0,3335,3838,743,0,0,69,0,0,0,0,6.812,7.719,12.191,0.708,1.846,-1.003,5.904,-12.311,19.613,-4.366,1.191,4.366,angry
6.34,73,2065,0,902,2451,0,3370,3858,1514,2471,0,2543,2663,1831,1622,3145,1.614,4.899,12.139,0.421,0.974,-0.593,15.048,2.691,19.613,-2.420,0.867,4.366,angry
6.35,286,2309,0,1386,2686,0,3425,3847,0,0,0,0,3,0,0,0,3.175,3.122,9.579,0.317,0.334,-0.292,19.613,-10.319,19.613,-1.571,-0.035,3.907,angry
6.36,387,2449,0,1526,2764,0,3424,3813,1564,2565,0,2511,2619,1721,1578,3131,3.302,3.594,9.685,0.333,0.165,-0.242,19.613,7.489,19.075,1.450,2.254,2.712,angry
6.37,490,2618,0,1744,2874,0,3332,3698,1563,0,0,0,2247,1837,18,0,3.412,3.864,8.945,0.258,0.045,-0.144,11.396,4.405,8.981,2.114,-0.947,-0.775,angry
6.38,577,2754,0,1850,2909,0,3174,3493,0,0,0,0,0,0,0,0,3.922,3.366,8.583,0.321,0.059,-0.200,5.693,-0.271,12.713,3.364,-1.804,-2.376,angry
6.39,532,2831,0,1968,2842,0,3015,3333,0,0,0,0,0,0,0,0,3.895,3.199,8.468,0.359,0.071,-0.272,0.579,-1.061,12.838,4.259,-2.171,-2.492,angry
6.40,632,2874,0,2128,2762,0,2781,3139,0,0,0,5,0,0,0,0,3.642,3.321,8.796,0.399,0.042,-0.323,-2.342,-1.626,10.412,4.366,-2.585,-2.264,angry
6.41,711,2930,0,2265,2666,0,2555,2928,0,0,0,0,0,0,0,0,3.218,3.795,9.266,0.397,-0.021,-0.336,-3.644,-2.456,10.942,4.366,-2.722,-1.713,angry
6.42,778,2992,0,2401,1903,0,2310,2672,0,0,0,9,9,0,0,31,3.405,3.824,8.748,0.405,-0.054,-0.335,-3.682,-3.141,10.925,4.366,-2.646,-1.118,angry
6.43,771,3069,0,2522,2341,0,1762,2061,0,0,0,0,0,0,0,0,3.527,3.816,8.298,0.335,-0.034,-0.324,-3.510,-4.298,12.311,4.366,-2.664,-0.596,angry
6.44,894,3139,0,2631,2243,0,1509,1407,1515,2567,2,2495,2585,1647,1553,3123,3.457,3.855,8.677,0.325,-0.037,-0.363,-2.612,-5.452,14.044,4.366,-2.909,-0.280,angry
6.45,1037,3279,0,2827,2443,0,1174,353,1563,2555,0,2443,2581,1644,1549,3119,3.132,2.210,8.013,0.239,-0.016,-0.355,2.018,-8.449,17.794,4.366,-3.343,-0.597,angry
6.46,1531,3434,0,2994,2556,0,883,0,1565,2555,0,2503,2584,1645,1549,3113,3.596,4.173,8.504,0.235,-0.085,-0.342,3.694,-10.051,19.613,4.366,-3.526,-1.867,angry
6.47,2134,3583,0,3142,2538,0,491,0,0,0,0,0,0,0,1,0,3.500,4.211,8.566,0.359,-0.136,-0.285,-1.037,-14.128,19.613,4.366,-3.927,-2.761,angry
6.48,2413,3685,0,3189,2119,0,335,0,0,0,0,0,0,0,0,0,3.407,4.360,8.308,0.460,-0.100,-0.199,-2.705,-19.613,19.613,4.366,-3.833,-3.067,angry
6.49,2634,3756,0,3243,1917,0,256,0,0,0,0,0,0,0,0,0,3.572,3.445,8.351,0.698,-0.003,-0.149,-3.668,-19.613,19.553,4.366,-2.789,-3.002,angry
6.50,2802,3815,0,3290,1660,0,208,0,0,0,2,0,0,0,0,0,3.543,3.893,8.231,0.922,0.094,-0.165,-6.306,-19.613,5.061,3.932,-1.524,-2.418,angry
6.51,2970,3859,0,3342,1296,0,214,0,0,0,2,0,0,11,0,0,3.481,4.259,8.456,1.114,0.163,-0.146,-17.162,-19.613,-6.759,2.022,-1.754,-1.727,angry
6.52,3135,3888,0,3385,1225,0,68,0,0,0,0,0,0,0,0,0,3.895,4.769,8.207,1.325,0.277,-0.195,-15.162,-19.613,-6.618,0.504,-1.946,-1.374,angry
6.53,3260,3905,0,3415,868,0,0,0,0,9,0,0,0,0,0,0,3.943,4.135,8.408,1.673,0.215,-0.178,-12.876,-19.613,-2.945,-0.517,-0.716,-1.562,angry
6.54,3377,3900,0,3454,0,0,0,0,0,0,0,0,0,0,0,0,4.096,3.551,8.961,2.167,0.260,-0.218,-15.433,-19.613,-4.389,-2.358,0.359,-1.310,angry
6.55,3501,3847,0,3478,0,0,0,0,11,0,0,0,0,4,0,334,4.254,2.626,8.080,2.901,0.504,-0.416,-6.943,-0.857,19.613,-0.376,3.580,-0.060,angry
6.56,3573,3701,0,3485,0,0,0,0,0,0,7,0,0,0,0,1369,4.762,2.885,8.825,3.769,0.790,-0.669,-14.521,19.613,19.613,-4.366,0.040,-0.111,angry
6.57,3630,2978,0,3440,0,0,0,0,0,0,58,0,0,0,0,2415,6.483,2.507,8.926,4.996,0.956,-1.218,4.029,-11.806,5.397,-4.366,1.588,1.612,angry
6.58,3619,2190,0,3211,0,0,0,0,0,0,0,0,0,0,393,2951,6.170,3.445,12.708,6.000,0.715,-1.888,0.017,-19.613,19.613,-3.725,1.609,0.064,angry
6.59,3490,1499,0,2529,0,0,0,0,0,0,0,3,0,0,1053,3497,7.975,2.535,19.462,7.148,-0.939,-2.689,-6.879,0.742,15.962,-2.738,1.310,0.308,angry
6.60,2896,640,0,1328,0,0,0,0,0,0,0,0,0,0,1383,3691,7.130,9.120,19.063,7.983,-1.585,-3.729,8.116,-3.539,9.395,-2.835,0.769,0.519,angry
6.61,1033,66,0,608,0,0,0,0,0,0,0,0,0,0,1849,3881,11.205,12.316,19.613,6.361,-1.974,-4.441,6.155,-7.264,13.103,-2.395,1.038,0.274,angry
6.62,215,16,0,304,0,0,0,0,0,0,0,0,157,0,2473,3995,19.613,-3.412,19.613,1.105,-0.046,-4.558,-5.160,-12.038,19.613,-2.183,1.434,0.470,angry
6.63,0,0,0,64,0,0,0,0,0,0,0,0,361,0,2860,4038,19.613,-9.713,19.613,-1.635,1.244,-3.891,2.722,-2.658,11.040,-1.231,1.822,0.594,angry
6.64,0,0,0,0,0,0,0,0,0,0,0,0,413,0,2933,4055,19.613,-1.609,17.511,-1.840,0.641,-1.726,-2.023,-3.144,14.095,-0.936,1.111,0.311,angry
6.65,0,0,0,0,0,0,0,0,0,0,0,0,413,0,2933,4055,19.613,-7.812,11.468,-2.814,0.897,-0.006,-2.023,-3.144,14.095,-0.936,1.111,0.311,angry
6.66,0,0,0,0,0,0,0,0,0,0,2,29,949,0,3053,4071,15.246,-5.432,11.325,-2.992,0.174,1.194,-0.002,-1.903,10.961,-0.667,0.414,0.230,angry
6.67,0,0,0,0,0,0,0,0,2,1,0,102,1173,0,3108,4043,10.003,-2.267,13.587,-3.432,-1.239,1.885,0.769,-1.867,10.250,-0.530,0.359,0.250,angry
6.68,0,0,0,0,0,0,0,0,0,0,0,155,1390,2,3113,4046,9.426,0.402,10.348,-3.845,-1.750,2.251,1.693,-2.670,10.051,-0.509,0.249,0.206,angry
6.69,0,0,0,0,0,0,0,0,0,0,2,277,1613,0,3117,4012,8.284,2.258,9.297,-4.157,-1.399,2.404,1.935,-2.653,9.541,-0.481,0.185,0.187,angry
6.70,0,0,0,0,0,0,0,0,5,1,0,279,1845,0,3068,3878,6.021,3.704,10.755,-4.336,-1.203,2.458,2.337,-2.715,9.364,-0.454,0.164,0.175,angry
6.71,0,0,0,0,0,0,0,0,9,1,0,627,1989,0,2919,3911,4.137,4.932,12.155,-4.455,-1.501,2.441,1.568,-2.679,9.883,-0.416,0.137,0.231,angry
6.72,0,0,0,0,0,0,0,0,13,0,2,1107,2010,0,2790,3854,4.712,6.290,12.629,-4.564,-1.698,2.333,1.528,-2.794,9.682,-0.390,0.192,0.271,angry
6.73,0,0,0,0,0,0,0,0,22,0,0,1163,2063,0,2632,3784,5.760,7.666,12.771,-4.686,-1.697,2.338,1.451,-3.179,10.044,-0.346,0.202,0.277,angry
6.74,0,0,0,0,0,0,0,0,26,1,2,1327,2089,1,2317,3695,6.170,8.662,13.659,-4.730,-1.630,2.453,1.073,-2.662,9.579,-0.266,0.237,0.296,angry
6.75,0,0,0,0,0,0,0,0,33,237,2,1593,2100,3,2012,3628,7.360,9.565,14.945,-4.584,-1.689,2.594,1.221,-3.024,9.725,-0.260,0.175,0.305,angry
6.76,0,0,0,0,0,0,0,0,27,189,10,1715,2089,4,1933,3553,8.923,10.946,15.237,-4.425,-1.527,2.874,1.161,-3.651,10.087,-0.210,0.146,0.223,angry
6.77,0,0,0,0,0,0,0,0,47,333,30,2183,2076,27,1880,3463,9.601,11.643,15.062,-4.179,-1.157,3.149,1.101,-2.777,9.507,-0.137,0.111,0.179,angry
6.78,0,0,0,0,0,0,0,0,121,375,0,2174,2009,0,1742,3355,10.364,14.854,14.557,-3.845,-0.418,3.414,1.434,-2.737,9.404,-0.145,0.111,0.192,angry
6.79,0,0,0,0,0,0,0,0,274,423,12,2235,2157,7,1644,3209,3.179,19.345,18.091,-3.588,-0.261,3.779,1.365,-2.962,9.340,-0.204,0.072,0.126,angry
6.80,0,0,0,0,0,0,0,0,520,475,15,2463,2199,8,1363,2988,-0.500,19.613,18.127,-3.351,-0.760,3.352,0.979,-3.096,9.728,-0.325,-0.044,0.058,angry
6.81,0,0,0,0,0,0,0,0,1374,1084,94,2772,2296,6,1122,2147,-7.523,19.613,2.911,-2.721,-1.340,2.645,1.149,-2.811,8.768,-0.347,0.063,0.056,angry
6.82,0,0,0,0,0,0,0,0,2069,1385,12,2914,2183,9,149,1358,-11.562,19.613,-8.502,-0.907,-1.315,1.366,1.053,-3.170,10.187,-0.452,0.011,0.081,angry
6.83,0,0,0,0,0,0,0,0,2413,1566,5,3049,1767,6,12,901,-5.217,19.613,-5.090,0.872,0.152,0.531,1.800,-3.725,9.936,-0.533,0.085,0.020,angry
6.84,0,0,0,0,0,0,0,0,2645,1460,7,3155,1415,5,7,763,-2.768,19.613,2.174,1.588,-0.070,0.567,1.154,-3.091,8.976,-0.621,0.046,-0.035,angry
6.85,0,0,0,0,0,0,0,0,2826,1378,7,3205,1189,5,7,691,3.575,16.803,-4.954,3.118,0.329,0.799,1.628,-2.974,9.086,-0.670,-0.075,-0.053,angry
6.86,0,0,0,0,0,0,118,1048,2885,1270,12,3223,852,74,5,572,-4.606,16.956,-2.116,4.488,1.360,0.900,1.369,-2.940,9.608,-0.932,-0.235,-0.071,angry
6.87,0,0,0,0,0,0,1232,3264,3165,1184,7,3193,203,5,16,394,-13.855,6.479,19.613,6.484,-1.246,-1.820,-0.093,-1.935,9.641,-3.299,-0.186,0.324,angry
6.88,0,0,0,0,208,0,2652,3632,3422,282,7,2852,41,7,10,334,10.927,12.443,9.989,3.135,0.256,-2.239,6.548,-7.511,11.945,-4.366,0.952,1.497,angry
6.89,52,750,0,0,1424,0,3173,3735,3256,0,0,2215,0,0,0,279,3.883,5.657,8.265,1.107,3.707,-2.078,2.131,-0.812,19.613,-4.366,1.668,3.735,angry
6.90,255,1589,0,0,2039,0,3280,3793,2680,9,0,1261,0,0,0,264,2.978,9.881,17.231,0.758,3.056,-1.642,6.965,-11.432,19.613,-4.366,2.815,4.366,angry
6.91,592,2261,0,846,2543,0,3375,3845,221,0,0,9,0,0,0,0,2.674,5.341,12.862,0.638,0.920,-0.780,-3.074,-19.613,19.613,-4.366,2.293,4.366,angry
6.92,839,2600,0,1617,2656,48,3425,3826,0,0,40,0,0,0,0,0,3.311,4.681,9.515,0.452,0.404,-0.375,19.613,-2.564,19.613,1.989,-0.837,2.746,angry
6.93,900,2736,0,1895,2717,0,3404,3791,0,0,0,0,0,0,2,0,3.338,4.044,9.720,0.410,0.261,-0.317,19.613,1.413,9.962,2.319,0.122,0.808,angry
6.94,991,2819,0,2022,2733,0,3358,3735,0,0,0,0,0,20,0,0,3.278,4.444,8.926,0.323,0.197,-0.229,9.007,4.436,12.079,2.970,-1.297,-0.762,angry
6.95,1038,2902,0,2192,2735,0,3263,3649,0,0,0,0,0,0,0,0,3.127,3.845,9.045,0.301,0.127,-0.199,8.466,0.886,10.841,3.399,-2.560,-1.773,angry
6.96,1150,2958,0,2319,2659,0,3107,3514,0,0,0,0,0,0,27,0,3.627,3.759,8.729,0.295,0.072,-0.158,2.212,0.359,10.613,4.273,-2.660,-2.028,angry
6.97,1261,3005,0,2467,2537,0,2864,3344,0,0,0,0,0,0,0,0,3.515,3.931,8.684,0.303,0.056,-0.159,-4.683,-0.575,10.611,4.366,-3.226,-1.638,angry
6.98,1302,3040,0,2559,2325,0,2620,3131,0,19,0,0,0,0,0,19,3.342,3.974,8.832,0.276,0.033,-0.164,-5.710,-1.681,10.364,4.366,-3.670,-0.845,angry
6.99,1422,3098,0,2703,1738,0,2064,2687,0,0,0,0,0,0,0,5,3.127,3.903,8.691,0.228,-0.008,-0.139,-4.221,-2.854,9.661,4.366,-3.511,-0.114,angry
7.00,1535,3131,0,2766,1483,0,1591,2371,0,0,0,0,11,0,0,0,3.146,3.996,8.605,0.192,-0.035,-0.111,-3.273,-3.503,10.453,4.366,-3.331,0.378,angry
7.01,1707,3205,0,2854,0,0,1015,1512,1564,2547,0,2503,2555,1635,1549,3124,3.438,4.022,8.361,0.199,-0.030,-0.129,-2.794,-5.993,14.492,4.366,-4.110,0.458,angry
7.02,1937,3280,0,2980,0,0,779,326,1564,2555,0,2494,2583,1640,1558,3117,3.249,4.001,8.612,0.163,-0.073,-0.207,1.693,-9.728,15.605,4.366,-4.031,-0.096,angry
7.03,2349,3379,0,3088,0,0,419,0,1565,2555,0,2493,2584,1643,1563,3115,3.213,4.123,8.839,0.131,-0.221,-0.294,0.912,-10.551,16.467,4.366,-3.737,-0.792,angry
7.04,2657,3474,0,3138,0,0,240,0,0,0,0,0,0,0,0,0,3.156,4.365,8.600,0.155,-0.199,-0.252,-6.744,-14.190,18.862,4.366,-4.366,-1.615,angry
7.05,2829,3551,0,3216,0,0,153,0,0,16,0,0,0,0,0,0,3.383,3.936,8.394,0.297,-0.092,-0.196,-9.060,-18.660,18.115,4.238,-3.802,-1.699,angry
7.06,2977,3622,0,3264,166,0,55,0,0,0,30,0,0,27,0,0,3.270,3.883,8.303,0.478,-0.030,-0.149,-15.471,-19.613,15.081,3.667,-3.437,-1.682,angry
7.07,3152,3666,0,3286,1377,0,0,0,0,0,0,0,0,0,0,0,3.357,3.572,8.423,0.774,0.051,-0.149,-17.964,-19.613,8.478,2.749,-3.126,-1.356,angry
7.08,3303,3720,0,3357,1225,0,0,0,0,0,0,0,0,0,0,0,3.469,3.986,8.588,1.006,0.100,-0.155,-15.261,-19.613,1.884,1.557,-1.975,-0.871,angry
7.09,3437,3755,0,3395,761,0,0,0,0,0,89,0,0,39,0,0,3.627,4.274,8.334,1.242,0.187,-0.155,-16.879,-19.613,-1.532,0.527,-0.888,-0.147,angry
7.10,3536,3774,0,3430,561,0,0,0,0,0,0,0,0,6,0,0,3.414,4.606,9.301,1.496,0.248,-0.162,-16.247,-19.613,0.101,-0.451,-1.037,0.277,angry
7.11,3617,3773,0,3447,547,0,0,0,0,0,0,0,0,0,0,0,3.639,2.401,9.191,1.902,0.288,-0.212,-6.773,-19.613,-5.605,-2.631,-0.515,-0.496,angry
7.12,3704,3744,0,3461,0,0,0,0,0,0,0,0,0,5,0,89,4.166,3.184,8.849,2.479,0.362,-0.321,0.979,-8.645,6.773,-0.545,3.865,0.149,angry
7.13,3754,3687,0,3441,0,0,0,0,0,0,0,0,1,0,57,1114,3.900,2.466,8.487,3.312,0.435,-0.495,-8.327,19.398,19.613,-2.587,1.146,0.486,angry
7.14,3763,3504,0,3382,0,0,0,0,0,0,0,0,0,0,508,2456,5.361,3.610,8.181,4.238,0.698,-0.807,-6.409,6.783,-3.610,-4.366,1.285,1.818,angry
7.15,3728,2896,0,3228,0,0,0,0,0,0,0,0,35,0,1223,3196,4.736,2.914,10.769,5.322,0.614,-1.134,3.235,-18.172,19.613,-4.366,1.916,1.799,angry
7.16,3631,2275,0,2805,0,0,0,0,0,0,0,0,181,0,2007,3635,5.430,2.327,19.613,6.643,-0.842,-1.464,19.613,-17.083,19.613,-4.366,4.366,0.182,angry
7.17,2606,1017,0,930,0,0,0,0,0,0,0,0,799,0,2599,3926,13.642,10.994,16.819,8.088,-0.424,-2.662,-0.244,-6.874,14.669,-1.441,3.716,1.012,angry
7.18,248,158,0,179,0,0,0,0,0,5,0,77,1119,0,2855,3999,2.914,4.772,19.613,0.960,0.681,-5.084,0.639,-10.276,16.654,-0.409,2.423,0.230,angry
7.19,0,0,0,0,0,0,0,0,3,9,2,700,1338,0,2841,4042,16.690,-3.508,15.074,-1.204,0.891,-6.345,-2.775,-3.053,10.008,-0.493,0.983,0.297,angry
7.20,0,0,0,0,0,0,0,0,93,37,2,1459,1479,3,2824,3787,19.613,7.611,12.845,-1.993,2.489,-4.415,1.932,-6.591,12.775,-0.736,0.269,-0.061,angry
7.21,0,0,0,0,0,0,0,0,87,379,58,1752,1562,5,2891,4071,19.613,-1.053,8.238,-2.640,2.548,-2.022,0.201,-4.527,10.558,-0.544,0.334,-0.055,angry
7.22,0,0,0,0,0,0,0,0,383,745,25,1951,1673,7,2889,4069,19.613,-1.477,3.170,-2.168,1.361,0.406,-0.503,-3.419,9.974,-0.270,0.162,-0.126,angry
7.23,0,0,0,0,0,0,0,0,519,852,23,2157,1901,7,2888,4058,15.280,-1.422,4.669,-1.750,0.116,2.292,-0.108,-3.433,9.867,-0.167,0.080,-0.068,angry
7.24,0,0,0,0,0,0,0,0,635,839,17,2279,2065,5,2889,4028,10.999,0.366,7.235,-1.894,-0.270,3.424,0.869,-3.294,9.838,-0.163,-0.035,-0.033,angry
7.25,0,0,0,0,0,0,0,0,847,1037,15,2329,2205,7,2878,3979,5.739,0.429,10.149,-2.460,-0.341,3.729,1.341,-3.074,9.522,-0.142,-0.015,-0.026,angry
7.26,0,0,0,0,0,0,0,0,1096,1044,10,2443,2422,6,2611,3786,2.282,0.622,10.192,-3.552,-0.296,3.256,1.635,-3.275,9.579,-0.163,0.010,0.017,angry
7.27,0,0,0,0,0,0,0,0,1173,1102,12,2441,2485,6,2443,3690,2.631,1.712,10.712,-4.068,-0.225,2.889,1.549,-3.278,9.673,-0.158,0.021,0.011,angry
7.28,0,0,0,0,0,0,0,0,1267,1260,12,2405,2490,7,2027,3437,3.510,3.474,12.512,-4.477,-0.415,2.710,1.609,-3.084,9.266,-0.155,0.074,0.008,angry
7.29,0,0,0,0,0,0,0,0,1353,1399,7,2467,2431,7,1531,3064,4.915,6.129,14.138,-4.901,-0.675,2.656,1.659,-3.397,9.469,-0.140,0.141,0.010,angry
7.30,0,0,0,0,0,0,0,0,1385,1459,12,2469,2280,0,1287,2847,7.898,9.378,14.669,-5.287,-0.686,2.749,1.635,-3.390,9.177,-0.149,0.116,0.004,angry
7.31,0,0,0,0,0,0,0,0,1421,1499,7,2461,2121,7,1061,2629,10.233,12.227,14.420,-5.449,-0.626,3.104,1.580,-3.177,9.170,-0.131,0.114,-0.001,angry
7.32,0,0,0,0,0,0,0,0,1481,1542,12,2571,1385,8,877,2139,18.498,19.206,10.530,-4.911,-0.236,4.586,1.446,-3.239,9.440,-0.151,0.146,-0.010,angry
7.33,0,0,0,0,0,0,0,0,1529,1515,7,2601,1270,7,637,1877,19.613,19.613,4.951,-3.392,0.754,7.240,1.551,-3.354,9.531,-0.248,0.123,0.000,angry
7.34,0,0,0,0,0,0,0,0,1655,1429,12,2687,1001,7,351,1763,16.563,19.613,4.243,-2.422,0.478,8.160,1.152,-5.186,9.222,-0.407,0.106,0.026,angry
7.35,0,0,0,0,0,0,0,0,1628,1381,5,2749,902,7,172,1590,3.718,19.613,0.613,-1.458,-0.540,8.639,1.595,-3.440,9.064,-0.436,0.040,0.065,angry
7.36,0,0,0,0,0,0,0,0,1689,1512,5,2772,907,4,34,1461,0.548,19.613,-9.641,0.586,-1.409,8.085,1.702,-3.074,9.615,-0.383,-0.005,0.124,angry
7.37,0,0,0,0,0,0,0,0,1789,1431,2,2847,455,3,47,1325,-0.539,19.613,-13.929,1.749,0.610,7.064,1.336,-2.784,8.712,-0.570,-0.037,0.159,angry
7.38,0,0,0,0,0,0,0,0,1927,1197,10,2910,197,3,8,1163,-5.976,19.613,-11.416,2.789,0.225,5.281,1.310,-3.417,9.567,-0.553,-0.124,0.321,angry
7.39,0,0,0,0,0,0,0,169,2067,1327,7,3002,125,19,6,902,-1.724,19.613,-9.697,3.908,-1.439,3.736,0.565,-2.907,9.493,-0.428,-0.453,0.858,angry
7.40,0,0,0,0,0,0,323,1911,2290,1354,5,3066,63,4,3,787,11.765,16.834,-1.080,3.947,-0.236,3.545,1.460,-2.914,9.005,-0.155,-0.833,1.541,angry
7.41,0,0,0,0,0,0,817,3042,2439,1326,5,3019,75,4,0,755,-8.164,-10.309,19.613,4.542,-0.863,2.641,1.609,-4.085,10.080,0.268,-1.013,2.132,angry
7.42,0,0,0,0,0,0,2413,3618,2573,804,12,2999,89,5,1,597,-3.077,8.128,19.613,3.234,-0.912,-1.551,1.820,-3.237,9.804,0.599,-1.296,3.275,angry
7.43,0,0,0,0,3,0,2865,3687,2529,571,7,2999,42,1,3,543,19.613,16.707,0.323,1.496,2.077,-1.039,2.397,-4.104,9.498,0.769,-1.478,3.908,angry
7.44,0,192,0,0,1190,0,3046,3711,2427,355,0,2989,19,2,1,463,8.756,5.179,6.888,1.411,2.425,-0.130,5.143,-5.806,10.714,1.051,-1.503,4.366,angry
7.45,0,943,0,559,0,0,3245,3729,2055,0,0,2739,0,0,0,298,8.516,5.777,9.732,1.408,1.174,0.239,2.547,-5.088,7.896,1.067,-1.815,4.366,angry
7.46,0,1302,0,904,1891,0,3300,3734,1901,2,33,2571,0,1,0,309,2.425,1.918,11.159,1.305,1.122,0.681,2.377,-5.052,8.715,0.935,-1.996,4.366,angry
7.47,0,1742,0,1246,2005,0,3358,3719,1705,0,2,2343,3,0,43,311,5.148,4.793,8.847,1.228,0.896,1.432,2.691,-3.840,8.255,0.793,-2.119,4.366,angry
7.48,128,1990,0,1398,2186,0,3358,3647,1576,2584,0,2523,2603,1648,1562,3129,2.665,4.367,9.239,1.242,1.023,2.507,3.010,-2.696,9.953,0.352,-2.061,4.366,angry
7.49,211,2193,0,1535,0,0,3323,3457,107,0,7,535,3,3,1,164,1.343,4.053,9.172,1.675,1.321,3.389,6.285,-1.343,11.392,0.265,-1.577,4.366,angry
7.50,177,2318,0,1602,0,0,3273,3299,0,1,2,0,0,0,0,164,0.402,3.730,10.242,1.760,1.404,3.440,0.510,-2.241,15.601,0.866,-1.896,4.165,angry
7.51,261,2483,0,1725,0,0,3213,3152,0,0,0,0,0,0,0,151,0.723,2.964,9.517,1.753,1.421,3.279,-4.985,-6.555,15.376,1.060,-3.455,2.982,angry
7.52,288,2588,0,1717,0,0,3143,3018,0,0,0,0,0,0,0,179,1.331,2.083,9.969,1.634,1.503,2.899,-6.993,-1.018,14.116,1.727,-3.567,3.189,angry
7.53,419,2721,0,1904,0,0,3099,2969,0,1,0,0,0,0,9,152,3.270,2.835,9.907,1.478,1.396,2.381,-10.017,-2.270,8.241,1.507,-3.183,4.053,angry
7.54,624,2864,0,1991,0,0,3066,2933,0,0,0,0,0,0,0,137,2.959,3.043,9.716,1.181,1.139,1.820,-9.471,-4.604,10.633,1.530,-2.657,4.366,angry
7.55,743,2910,0,2186,0,0,3084,2946,0,0,0,76,0,3,0,139,3.800,3.393,9.254,0.740,0.832,1.219,-6.390,-5.205,9.342,1.668,-2.174,4.366,angry
7.56,767,2981,0,2285,0,0,3109,2965,0,3,15,0,0,0,0,86,4.436,2.550,8.562,0.519,0.590,0.686,-5.358,-5.935,7.274,1.565,-1.988,4.366,angry
7.57,838,2998,0,2448,2366,0,3133,2997,0,0,0,0,0,0,0,85,4.240,3.587,8.760,0.343,0.365,0.350,-3.472,-7.008,7.578,1.490,-1.892,4.366,angry
7.58,727,3095,0,2610,2496,0,3149,3006,0,0,5,5,0,0,0,73,4.092,3.436,8.746,0.277,0.229,0.132,-2.114,-6.922,6.642,1.503,-1.698,4.366,angry
7.59,784,3146,0,2734,2246,0,3154,2992,0,0,0,0,0,0,0,60,3.326,3.419,8.631,0.261,0.185,0.063,-1.946,-6.756,6.622,1.464,-1.589,4.366,angry
7.60,711,3186,0,2787,2608,0,3122,2949,0,0,0,0,0,0,0,71,2.923,3.503,8.873,0.315,0.154,0.106,-2.497,-6.438,6.694,1.486,-1.406,4.366,angry
7.61,833,3210,0,2905,2663,0,3028,2841,0,0,0,0,0,3,0,57,3.000,3.601,8.947,0.380,0.132,0.207,-3.019,-6.337,6.093,1.537,-1.111,4.366,angry
7.62,1134,3238,0,2975,0,0,2902,2559,0,0,0,0,0,0,0,12,2.662,3.663,9.048,0.473,0.168,0.313,-2.904,-6.194,6.771,1.524,-0.763,4.366,angry
7.63,1202,3297,0,3012,0,0,2734,1695,1541,2650,0,2525,2607,1656,1562,3149,2.854,4.319,9.222,0.518,0.171,0.416,-2.239,-5.315,5.401,1.425,-0.397,4.366,angry
7.64,1493,3383,0,3088,0,0,2288,314,1559,2591,0,2525,2611,1556,1565,3153,2.777,3.749,8.777,0.585,0.236,0.536,0.484,-5.569,5.789,1.240,-0.189,4.366,angry
7.65,1600,3424,0,3131,0,0,1167,0,0,3,0,0,0,0,0,2,3.139,4.044,8.830,0.700,0.407,0.621,1.504,-4.360,3.259,0.739,0.057,3.269,angry
7.66,1689,3455,0,3161,0,0,409,0,0,0,0,0,0,3,5,2,3.208,3.531,8.629,0.727,0.427,0.642,1.810,-4.963,3.089,0.371,-0.017,2.653,angry
7.67,1891,3459,0,3211,0,0,401,0,0,0,0,0,0,0,0,4,3.115,3.426,8.487,0.883,0.495,0.508,3.658,-4.432,1.566,0.286,0.117,2.002,angry
7.68,2017,3370,0,3283,0,0,342,0,0,0,0,467,0,0,0,35,3.594,4.104,9.893,1.040,0.549,0.304,19.613,-19.613,19.613,-1.223,-3.449,-0.279,angry
7.69,2171,3249,0,3344,0,0,397,0,6,1,5,327,151,1,1399,1995,5.073,3.012,8.918,1.545,0.439,0.167,19.613,-19.613,13.676,3.701,1.530,-0.621,angry
7.70,2448,2814,0,3376,0,0,163,0,9,0,0,681,391,0,1997,2872,8.574,3.666,9.033,2.440,0.469,-0.012,12.608,0.402,-0.716,-0.478,0.345,0.751,angry
7.71,2613,1903,0,3238,0,0,0,0,24,7,12,780,583,6,2019,2927,12.605,8.942,8.418,2.541,2.005,-0.571,0.283,-6.333,7.178,-0.053,0.192,0.266,angry
7.72,2494,411,0,2799,0,0,0,0,1567,2599,10,2535,2612,1684,1588,3167,8.748,3.565,10.925,2.951,4.039,-2.156,2.227,-3.266,9.538,0.356,-0.450,-0.062,angry
7.73,730,0,0,1252,0,0,0,0,52,9,23,1325,1549,3,2854,3592,14.291,4.046,8.985,2.474,5.997,-4.356,1.228,-2.696,9.632,0.054,0.048,0.117,angry
7.74,2,0,0,612,0,0,0,0,57,2,7,1342,1591,0,2940,3654,19.613,5.203,16.848,1.558,5.767,-0.885,1.164,-3.270,9.553,0.114,0.164,0.103,angry
7.75,0,0,0,246,0,0,0,0,36,1,5,1309,1577,0,3031,3691,19.613,8.025,3.393,1.565,3.518,3.271,1.070,-2.588,9.799,0.136,0.128,0.028,angry
7.76,0,0,0,0,0,0,0,0,30,0,0,1203,1598,0,3115,3739,19.613,7.693,3.510,2.014,2.773,6.112,1.065,-2.286,9.251,0.061,-0.064,-0.040,angry
7.77,0,0,0,0,0,0,0,0,41,2,48,1045,1545,0,3171,3757,7.046,1.405,7.762,1.471,2.566,6.447,1.204,-2.579,9.725,0.033,-0.128,-0.049,angry
7.78,0,0,0,0,0,0,0,0,13,0,0,768,1421,0,3157,3687,1.262,-0.268,10.721,0.815,1.691,5.552,1.276,-2.569,9.867,0.047,-0.061,-0.027,angry
7.79,0,0,0,0,0,0,0,0,3,0,0,637,1259,0,3119,3721,2.241,-0.816,11.344,-0.156,1.389,4.281,1.290,-2.521,9.400,0.068,-0.039,-0.027,angry
7.80,0,0,0,0,0,0,0,0,3,0,0,637,1259,0,3119,3721,4.717,1.006,10.403,-1.161,1.549,3.260,1.259,-2.351,9.357,0.028,0.001,-0.018,angry
7.81,0,0,0,0,0,0,0,0,0,0,127,783,1162,0,3113,3669,7.159,2.239,8.528,-1.861,1.602,2.744,1.310,-2.318,9.424,-0.039,0.054,0.018,angry
7.82,0,0,0,0,0,0,0,0,0,0,127,783,1162,0,3113,3669,10.343,4.085,6.682,-2.138,1.475,2.693,1.310,-2.318,9.424,-0.039,0.054,0.018,angry
7.83,0,0,0,0,0,0,0,0,0,0,0,1005,1349,1,2991,3548,11.794,5.349,6.002,-2.271,1.367,2.911,1.173,-2.660,9.704,-0.090,0.081,0.083,angry
7.84,0,0,0,0,0,0,0,0,0,0,0,957,1373,0,2908,3376,12.194,6.218,5.535,-2.345,1.137,3.118,1.044,-2.914,9.957,-0.101,-0.057,0.058,angry
7.85,0,0,0,0,0,0,0,0,0,0,0,907,1500,0,2787,3143,12.177,6.632,5.904,-2.347,0.714,3.282,0.433,-2.787,9.644,-0.137,-0.039,0.102,angry
7.86,0,0,0,0,0,0,0,0,0,0,0,867,1609,12,2556,3181,12.711,7.879,5.997,-2.400,0.249,3.420,0.757,-2.868,9.591,-0.128,-0.084,0.194,angry
7.87,0,0,0,0,0,0,0,0,0,0,0,953,1678,0,2577,3195,12.910,8.478,6.364,-2.372,-0.209,3.521,1.264,-2.514,9.299,-0.147,-0.067,0.293,angry
7.88,0,0,0,0,0,0,0,0,4,21,0,843,1785,0,2601,3223,13.106,9.780,7.034,-2.358,-0.617,3.623,1.405,-2.907,9.562,-0.187,-0.035,0.350,angry
7.89,0,0,0,0,0,0,0,0,10,0,25,953,2073,0,2540,3171,12.361,10.460,7.654,-2.338,-1.043,3.764,1.058,-2.928,9.802,-0.191,0.001,0.411,angry
7.90,0,0,0,0,0,0,0,0,61,6,2,1299,2263,1,2634,3176,10.628,10.604,8.045,-2.247,-1.535,3.933,0.943,-2.777,9.610,-0.202,-0.009,0.487,angry
7.91,0,0,0,0,0,0,0,0,308,265,2,1564,2501,5,2669,3173,8.622,11.332,8.684,-2.061,-1.957,4.062,1.549,-3.100,9.570,-0.161,-0.089,0.406,angry
7.92,0,0,0,0,0,0,0,0,559,445,7,1707,2733,5,2663,3160,0.615,10.678,11.272,-1.858,-3.026,3.947,2.076,-2.772,9.651,-0.166,-0.104,0.345,angry
7.93,0,0,0,0,0,0,0,0,731,395,2,1871,2863,0,2648,3123,1.604,12.467,9.895,-1.649,-3.169,3.407,1.678,-2.962,9.500,-0.159,-0.081,0.356,angry
7.94,0,0,0,0,0,0,0,0,1187,873,7,2083,3022,4,2630,3094,-0.464,14.870,9.706,-1.611,-2.405,2.764,1.525,-2.804,9.364,-0.132,0.017,0.327,angry
7.95,0,0,0,0,0,0,0,0,1501,1159,7,2279,3131,6,2475,2890,-3.694,16.431,7.513,-1.432,-1.907,2.009,1.362,-3.211,9.421,-0.113,0.050,0.341,angry
7.96,0,0,0,0,0,0,0,0,1833,1357,0,2409,3159,5,2287,2515,-3.409,18.318,3.263,-1.109,-1.381,1.139,1.573,-3.160,9.321,-0.178,0.020,0.318,angry
7.97,0,0,0,0,0,0,0,0,2104,1548,15,2631,3178,7,1994,1873,-1.750,19.613,1.413,-0.667,-0.753,0.550,1.705,-3.043,9.764,-0.167,-0.066,0.322,angry
7.98,0,0,0,0,0,0,0,0,2355,1722,2,2859,3001,7,1150,1195,-0.060,19.613,-2.164,0.471,-0.567,0.815,0.958,-1.674,9.524,-0.420,-0.210,0.250,angry
7.99,0,0,0,0,0,0,0,0,2733,1980,5,3079,2759,6,183,924,2.337,15.074,-5.655,3.200,-0.491,2.391,0.831,-2.962,10.065,-0.994,-0.141,0.059,angry
8.00,0,0,0,0,0,0,176,139,2877,2035,7,3117,2577,6,73,726,-0.962,19.613,-1.978,4.290,1.179,3.550,1.633,-3.824,9.969,-0.801,-0.209,0.062,angry
8.01,0,0,0,0,0,0,1966,2928,3027,2183,12,3118,2231,4,7,691,-19.613,-11.068,19.613,2.489,2.999,-1.188,1.073,-3.136,9.203,-1.018,-0.448,0.177,angry
8.02,0,0,0,0,949,0,3018,3529,3213,1463,5,2919,1371,0,9,372,19.613,19.613,-9.522,1.007,3.023,-2.412,0.481,-0.479,9.852,-3.647,-0.232,0.464,angry
8.03,0,655,0,0,1607,0,3184,3683,3007,729,5,2063,547,3,39,235,-13.228,-1.844,19.613,0.597,3.600,-1.401,1.192,-1.970,13.961,-4.366,-0.656,0.887,angry
8.04,0,1516,0,865,2166,0,3246,3760,1967,0,0,469,6,2,0,51,2.423,6.213,13.846,0.719,1.373,-0.676,6.536,1.405,19.613,-4.366,0.024,2.546,angry
8.05,0,1827,0,1271,2251,0,3321,3773,1325,0,0,21,3,0,0,11,4.772,4.448,8.961,0.416,0.583,-0.402,5.528,-12.426,19.613,-4.366,0.040,3.343,angry
8.06,65,2129,0,1624,2429,0,3399,3776,445,0,0,0,0,0,0,0,3.840,4.152,9.076,0.265,0.233,-0.191,-2.816,-16.537,19.613,-4.366,-1.951,3.677,angry
8.07,139,2362,0,1799,2651,0,3424,3715,0,0,0,0,0,0,0,0,3.922,3.306,8.969,0.217,0.181,-0.151,14.451,-6.244,19.613,1.242,0.254,4.366,angry
8.08,165,2426,0,1855,2715,0,3394,3671,0,0,0,0,0,0,0,0,3.651,3.608,8.918,0.215,0.111,-0.158,9.155,10.534,14.952,2.678,1.821,4.366,angry
8.09,246,2507,0,1878,2733,0,3344,3605,1599,2569,0,2524,2586,1652,1556,3125,3.651,3.357,8.681,0.204,0.122,-0.159,9.232,5.511,12.596,3.089,0.492,3.267,angry
8.10,320,2642,0,1937,2704,0,3179,3443,1567,2591,0,2527,2607,1693,1577,3157,3.637,3.112,8.689,0.258,0.132,-0.258,9.972,2.796,12.096,3.514,-1.383,1.830,angry
8.11,463,2714,0,2085,2547,0,2859,3235,0,0,0,0,0,0,0,0,3.527,3.376,8.717,0.333,0.092,-0.326,6.302,-0.230,9.957,4.366,-2.962,-0.882,angry
8.12,571,2755,0,2235,2453,0,2640,3088,0,0,0,0,0,0,0,0,3.395,3.491,8.753,0.372,0.071,-0.351,0.481,-0.646,9.828,4.366,-3.444,-1.438,angry
8.13,704,2779,0,2355,2380,0,2457,2880,0,0,0,0,0,0,0,0,3.290,4.108,8.768,0.407,0.034,-0.347,-1.714,-1.769,10.372,4.366,-3.480,-1.371,angry
8.14,843,2827,0,2503,2306,0,2251,2667,0,0,0,0,0,0,0,0,3.287,3.986,8.645,0.322,0.032,-0.269,-2.088,-3.306,11.600,4.366,-3.082,-1.069,angry
8.15,884,2852,0,2614,2229,0,2010,2397,0,0,0,0,0,0,0,0,3.347,4.025,8.667,0.290,0.033,-0.243,-3.139,-3.809,12.761,4.366,-2.611,-0.611,angry
8.16,944,2923,0,2730,2321,0,1723,2105,0,0,225,0,0,0,0,0,3.230,3.922,8.689,0.263,0.013,-0.216,-3.259,-4.662,13.657,4.366,-2.491,-0.194,angry
8.17,1104,3046,0,2913,2059,0,1345,1226,1625,2568,0,2476,2591,1656,1555,3119,3.395,4.180,8.593,0.216,0.032,-0.187,1.032,-7.108,16.870,4.366,-2.470,-0.325,angry
8.18,1452,3210,0,3059,0,0,1118,190,1565,2565,0,2503,2587,1627,1553,3113,3.184,3.982,8.780,0.174,0.024,-0.139,5.523,-11.696,19.613,4.366,-2.646,-1.439,angry
8.19,1770,3386,0,3184,0,0,785,0,1563,2557,0,2491,2583,1671,1553,3117,3.177,4.051,8.724,0.192,-0.007,-0.105,4.168,-16.278,19.613,4.366,-2.415,-2.376,angry
8.20,2211,3548,0,3283,0,0,469,0,0,0,17,0,0,0,0,0,3.201,3.855,8.736,0.307,0.013,-0.141,-2.670,-19.613,11.009,3.310,-2.800,-3.092,angry
8.21,2399,3610,0,3351,0,0,449,0,0,0,0,0,0,0,0,0,3.472,3.479,8.770,0.565,0.014,-0.138,-4.872,-19.613,5.128,2.357,-2.696,-3.111,angry
8.22,2623,3718,0,3363,0,0,462,0,0,0,0,0,0,0,0,0,3.223,3.627,8.590,0.941,0.054,-0.111,-8.329,-19.613,-1.697,1.582,-2.468,-2.679,angry
8.23,2832,3778,0,3392,0,0,391,0,0,0,0,0,0,0,0,0,3.689,3.761,8.624,1.274,0.171,-0.090,-13.597,-19.613,-9.062,0.242,-2.487,-2.055,angry
8.24,3008,3810,0,3415,0,0,320,0,0,0,0,0,0,0,0,0,3.764,4.331,8.205,1.527,0.238,-0.116,-10.731,-19.613,-6.902,-2.486,-2.400,-1.956,angry
8.25,3199,3818,0,3447,0,0,194,0,0,4,0,0,0,0,0,0,3.857,3.326,8.392,1.860,0.340,-0.123,-0.038,-19.613,-6.280,-3.378,-0.297,-1.810,angry
8.26,3344,3773,0,3466,0,0,43,0,21,0,0,0,0,0,0,393,5.409,3.091,8.859,2.419,0.400,-0.191,-7.673,0.570,18.364,-1.557,3.119,0.324,angry
8.27,3466,3611,0,3475,0,0,0,0,0,0,0,4,0,0,151,1763,7.386,3.079,8.566,3.358,0.521,-0.305,-18.577,19.613,19.613,-4.366,-0.961,-0.068,angry
8.28,3552,2880,0,3440,0,0,0,0,0,0,48,0,0,0,223,2747,6.656,2.988,8.298,4.554,0.840,-0.788,-4.561,-10.537,6.857,-4.366,0.669,1.912,angry
8.29,3583,2265,0,3297,0,0,0,0,3,0,0,0,0,0,826,3238,5.643,3.812,7.499,5.624,1.036,-1.716,7.683,-19.613,19.613,-3.534,1.113,0.953,angry
8.30,3575,1652,0,2800,0,0,0,0,1509,2577,0,2515,2605,1687,1577,3131,4.851,3.184,19.580,7.012,0.582,-3.003,2.409,3.122,9.582,-3.134,0.992,0.526,angry
8.31,2769,359,0,1276,0,0,0,0,0,0,0,0,423,0,2683,3871,12.476,7.039,19.613,7.929,-0.009,-5.537,3.402,-13.841,18.864,-0.895,2.195,1.138,angry
8.32,1222,0,0,527,0,0,0,0,0,0,0,0,1036,0,2909,3931,12.179,9.989,19.613,6.911,0.603,-5.925,-0.864,-2.947,14.813,-0.419,2.671,1.490,angry
8.33,112,0,0,272,0,0,0,0,13,0,0,0,1315,0,2965,3967,19.613,9.323,19.613,2.770,0.176,-4.943,3.108,-5.957,10.927,-0.451,1.741,0.945,angry
8.34,0,0,0,0,0,0,0,0,0,0,51,8,1422,0,3023,3989,19.613,-1.939,19.613,0.083,0.371,-3.465,2.847,-4.578,11.150,-0.169,1.419,0.514,angry
8.35,0,0,0,0,0,0,0,0,0,0,51,8,1422,0,3023,3989,19.613,-3.539,15.160,-1.580,1.250,-0.446,2.847,-4.578,11.150,-0.169,1.419,0.514,angry
8.36,0,0,0,11,0,0,0,0,0,0,0,47,1451,0,2957,4029,15.110,-4.966,8.037,-1.386,0.309,1.096,1.109,-2.914,10.266,-0.187,0.372,0.345,angry
8.37,0,0,0,0,0,0,0,0,0,0,0,371,1659,3,3016,4012,9.227,-5.191,9.732,-1.514,-1.004,1.947,1.772,-3.654,10.190,-0.207,0.296,0.240,angry
8.38,0,0,0,0,0,0,0,0,0,0,0,591,1769,0,2932,3955,9.433,-2.500,9.783,-1.830,-1.823,2.379,1.070,-2.940,9.778,-0.131,0.207,0.143,angry
8.39,0,0,0,0,0,0,0,0,0,1,0,447,1617,0,2572,3270,7.523,-0.903,11.679,-2.603,-1.580,2.708,1.504,-3.144,9.677,-0.160,0.113,0.126,angry
8.40,0,0,0,0,0,0,0,0,1576,2565,2,2495,2587,1653,1556,3119,4.137,0.670,12.016,-3.310,-1.584,2.879,1.638,-3.065,9.493,-0.198,0.113,0.168,angry
8.41,0,0,0,0,0,0,0,0,4,3,12,973,1876,0,2579,3852,0.979,1.628,9.843,-4.179,-1.738,2.722,1.566,-3.144,9.685,-0.139,0.049,0.213,angry
8.42,0,0,0,0,0,0,0,0,6,0,0,1230,1773,0,2373,3785,0.632,2.385,9.560,-4.488,-1.627,2.469,1.724,-2.954,9.524,-0.143,0.069,0.243,angry
8.43,0,0,0,0,0,0,0,0,17,30,5,1197,1687,0,2028,3695,2.081,3.893,10.922,-4.740,-1.429,2.195,1.750,-3.237,9.651,-0.133,0.230,0.307,angry
8.44,0,0,0,0,0,0,0,0,11,273,5,1637,1656,0,1669,3601,3.764,5.748,12.969,-5.004,-1.303,2.162,1.571,-3.632,10.063,-0.173,0.270,0.284,angry
8.45,0,0,0,0,0,0,0,0,9,123,7,1781,1599,0,1505,3419,5.569,7.391,13.630,-5.190,-1.256,2.361,1.403,-3.323,9.294,-0.155,0.145,0.197,angry
8.46,0,0,0,0,0,0,0,0,87,171,0,1917,1619,3,1319,3468,6.831,8.904,15.146,-5.314,-1.170,2.670,1.307,-2.895,9.498,-0.163,0.135,0.166,angry
8.47,0,0,0,0,0,0,0,0,287,383,7,2163,1661,4,1305,3243,7.731,10.472,17.372,-5.411,-1.073,2.961,1.288,-3.342,9.646,-0.180,0.132,0.161,angry
8.48,0,0,0,0,0,0,0,0,363,358,2,2077,1662,3,1210,2867,8.516,11.751,18.826,-5.449,-0.942,3.174,1.250,-3.474,9.723,-0.181,0.110,0.112,angry
8.49,0,0,0,0,0,0,0,0,749,339,12,2385,1881,11,1109,2951,12.273,14.076,18.979,-5.354,-0.374,3.218,1.453,-3.905,9.340,-0.176,0.094,0.087,angry
8.50,0,0,0,0,0,0,0,0,1567,827,10,2719,2103,6,827,2447,4.942,19.613,19.613,-4.970,-0.638,3.538,1.968,-3.268,9.292,-0.188,-0.003,0.136,angry
8.51,0,0,0,0,0,0,0,0,2030,1126,7,2843,2269,5,532,2084,0.397,19.613,16.719,-4.311,-1.597,3.316,1.652,-3.637,10.259,-0.253,0.018,0.138,angry
8.52,0,0,0,0,0,0,0,0,2341,1271,5,2935,2255,5,141,1557,-6.756,19.613,0.093,-3.192,-1.980,3.030,1.317,-2.926,9.543,-0.291,-0.044,0.163,angry
8.53,0,0,0,0,0,0,0,0,2693,1576,23,2989,2280,17,19,1371,-17.391,19.613,-9.486,-1.721,-2.065,2.255,1.058,-3.191,9.201,-0.434,-0.214,0.082,angry
8.54,0,0,0,0,0,0,0,0,3031,1892,2,3193,1957,2,8,654,-14.533,19.613,-3.874,0.133,-0.922,0.341,0.881,-3.124,8.997,-0.454,-0.124,-0.097,angry
8.55,0,0,0,0,0,0,0,0,3031,1892,2,3193,1957,2,8,654,-11.406,19.613,-4.666,0.869,-0.099,-0.537,0.881,-3.124,8.997,-0.454,-0.062,-0.147,angry
8.56,0,0,0,0,0,0,0,0,3388,2255,0,3277,1603,2,0,330,-4.334,19.613,-10.230,3.528,0.791,-0.683,1.889,-2.782,9.857,-0.882,-0.084,-0.262,angry
8.57,0,0,0,0,0,0,176,1081,3483,2328,0,3172,1071,5,0,267,7.597,8.102,19.613,1.488,2.883,0.146,2.430,-1.176,9.984,-1.734,-0.020,-0.368,angry
8.58,0,0,0,0,0,0,808,2807,3593,2229,0,3145,454,1,0,203,-5.454,-18.835,19.613,6.213,-2.127,-0.470,2.478,-1.575,9.953,-2.912,0.080,-0.416,angry
8.59,0,0,0,0,0,0,1916,3530,3631,1723,0,3100,279,2,0,167,0.503,19.613,19.613,4.022,-0.268,-2.508,3.953,-0.778,9.855,-4.366,0.282,-0.519,angry
8.60,0,20,0,0,208,0,2992,3766,3571,413,0,2382,3,0,0,9,19.613,2.686,-1.353,2.492,1.858,-1.723,5.025,0.445,19.613,-4.366,2.308,2.042,angry
