timestamp,L1,L2,L3,L4,L5,L6,L7,L8,R1,R2,R3,R4,R5,R6,R7,R8,acc_x_left,acc_y_left,acc_z_left,gyro_x_left,gyro_y_left,gyro_z_left,acc_x_right,acc_y_right,acc_z_right,gyro_x_right,gyro_y_right,gyro_z_right,mood
0,2928,3607,3517,2630,196,0,0,0,0,0,0,0,0,0,1874,3435,2.796,3.223,9.505,1.857,-0.225,0.171,2.04,-2.552,9.704,-0.795,1.14,0.334,angry
0.01,2960,3503,3479,2454,0,0,0,0,21,0,0,0,0,0,1919,3496,3.45,3.294,9.029,2.015,-0.132,0.133,-0.287,-3.888,12.39,-0.784,1.25,0.444,angry
0.02,2987,3295,3393,2128,0,0,0,0,0,0,17,0,0,0,2187,3539,3.378,3.405,9.318,2.327,-0.157,0.107,1.468,-3.256,10.781,-0.75,1.449,0.389,angry
0.03,2997,2827,3196,1954,0,0,0,0,9,0,43,0,23,0,2263,3579,4.089,3.397,8.626,2.66,0.07,0.029,-1.776,-2.38,9.78,-0.81,0.71,0.381,angry
0.04,2945,2467,2769,1684,0,0,0,0,20,75,7,616,10,0,2386,3629,2.782,3.757,9.886,3.018,0.071,-0.049,0.895,-4.3,10.839,-0.855,0.47,0.206,angry
0.05,2875,2158,2142,1072,0,0,0,0,104,255,7,2013,7,0,2586,3691,2.99,4.712,10.752,3.446,-0.019,-0.42,1.073,-5.09,10.087,-0.716,-0.124,-0.031,angry
0.06,2393,1693,496,175,0,0,0,0,76,169,74,2187,3,0,2695,3723,4.506,8.042,10.642,3.486,0.26,-0.801,0.52,-3.172,9.996,-0.568,-0.021,-0.027,angry
0.07,1353,1171,0,0,0,0,0,160,205,217,28,2508,48,3,2749,3757,5.555,6.622,9.828,2.915,1.056,-1.087,0.934,-3.335,9.713,-0.478,0.129,-0.015,angry
0.08,570,705,0,0,0,0,0,406,351,203,652,2649,4,10,2797,3787,-0.627,3.991,19.149,1.856,1.403,-1.113,1.068,-3.598,9.62,-0.346,0.175,-0.015,angry
0.09,0,333,0,0,0,0,0,438,655,235,1568,2943,46,18,2751,3817,1.803,-3.519,15.522,0.355,1.226,-1.862,1.077,-3.687,9.603,-0.287,0.116,-0.01,angry
0.1,0,150,0,0,0,0,0,599,775,247,1597,3033,88,29,2843,3805,4.867,-5.191,16.144,-1.487,1.151,-1.499,0.718,-3.543,9.452,-0.173,0.059,0.001,angry
0.11,0,162,0,0,0,0,0,463,986,283,1737,3115,74,21,2941,3803,5.65,-4.769,10.704,-2.343,1.684,-1.037,0.852,-3.474,9.323,-0.203,-0.062,-0.024,angry
0.12,0,330,0,0,0,0,0,411,1129,293,1727,3149,53,17,2973,3781,6.5,-1.911,9.651,-2.713,1.245,-0.397,1.118,-3.364,9.33,-0.25,-0.115,-0.045,angry
0.13,0,196,0,0,0,0,0,339,1359,703,1704,3149,56,18,2986,3750,6.088,0.45,9.369,-2.812,0.746,0.182,1.269,-3.864,9.357,-0.277,-0.235,-0.059,angry
0.14,0,64,0,0,0,0,0,275,1491,853,1584,3100,231,43,3007,3679,5.705,2.713,9.646,-2.759,0.119,0.472,1.058,-3.962,9.807,-0.283,-0.254,-0.071,angry
0.15,0,39,0,0,0,0,0,182,1611,1115,1525,3052,377,59,3003,3653,5.725,4.654,8.121,-2.483,0.006,0.368,1.077,-3.79,9.357,-0.271,-0.261,-0.073,angry
0.16,0,93,0,0,0,0,0,153,1789,1503,1650,2999,1107,49,3001,3485,5.713,7.161,8.459,-1.801,-0.451,0.043,1.097,-3.986,9.215,-0.247,-0.275,-0.063,angry
0.17,0,31,0,0,0,0,0,134,1927,1693,1835,3035,1559,51,2991,3231,8.531,10.372,10.59,-1.613,-0.066,-0.091,1.221,-3.936,9.06,-0.105,-0.045,-0.049,angry
0.18,0,70,0,0,0,0,0,114,1983,1791,1799,3019,1619,39,2968,3124,9.129,12.866,8.803,-1.03,-0.979,0.654,1.573,-4.063,9.268,-0.009,0.03,0.004,angry
0.19,0,184,0,0,0,0,0,107,2199,1851,1906,3108,1663,47,2899,3080,6.333,13.02,6.208,-0.784,-1.05,1.547,1.283,-3.857,9.199,-0.025,0.001,0.001,angry
0.2,0,305,0,0,0,0,0,137,2296,1897,1988,3102,1719,37,2845,2991,2.605,13.458,5.827,0.119,-0.445,2.197,1.312,-3.733,9.187,-0.07,-0.047,0.007,angry
0.21,0,379,0,0,0,0,0,129,2515,2019,2021,3110,1798,47,2611,2944,2.028,14.059,6.23,0.332,0.173,2.125,1.386,-3.802,9.282,-0.151,-0.072,0.006,angry
0.22,0,422,0,0,0,0,0,173,2728,2171,2428,3082,1903,48,2360,2847,1.985,13.36,4.551,0.205,0.382,1.95,1.29,-3.996,9.167,-0.151,-0.116,0.022,angry
0.23,0,451,0,0,0,0,0,192,2859,2333,2147,3107,1967,46,2373,2779,2.818,11.358,1.812,0.409,0.201,1.808,1.31,-4.013,9.064,-0.152,-0.143,-0.003,angry
0.24,0,466,0,0,0,0,0,194,2928,2364,2157,3096,2055,47,2393,2653,3.677,10.968,3.057,1.036,0.018,1.877,1.434,-4.07,9.033,-0.114,-0.162,0.009,angry
0.25,0,562,0,0,0,0,0,203,3027,2535,2160,3006,2293,51,2477,2644,5.205,11.375,6.677,1.06,-0.058,2.208,1.329,-4.415,9.414,-0.037,-0.367,0.002,angry
0.26,0,225,0,0,0,0,0,357,3037,2588,2167,2963,2467,58,2661,2648,7.446,14.423,12.335,-2.89,3.667,0.308,1.405,-3.986,9.282,0.071,-0.396,-0.027,angry
0.27,0,379,0,0,0,0,0,128,2970,2727,2165,2871,2732,35,2739,2667,15.931,4.053,-3.428,1.883,-0.794,3.249,1.769,-3.946,8.825,0.063,-0.382,-0.068,angry
0.28,0,327,0,0,0,0,0,285,2725,2833,2167,2831,2998,47,2943,2783,-0.096,10.281,7.822,0.69,0.291,2.83,1.774,-4.118,9.155,0.256,-0.353,-0.09,angry
0.29,0,353,0,0,0,0,0,177,1989,2917,2154,2725,3183,51,3149,2904,4.384,2.873,7.585,0.739,-0.586,2.852,1.563,-3.979,9.263,0.231,-0.41,-0.119,angry
0.3,0,306,0,0,0,0,0,125,1417,2898,2101,2603,3262,74,3171,2999,-8.341,12.062,18.696,2.862,-1.272,4.174,1.92,-3.996,9.433,0.314,-0.384,-0.06,angry
0.31,0,229,0,0,0,0,0,176,993,2900,1937,2056,3455,51,3283,3066,-3.802,5.272,14.763,0.759,-1.498,2.805,1.678,-4.027,10.297,0.42,-0.34,0.03,angry
0.32,0,410,0,0,0,0,0,172,757,2782,1940,916,3451,53,3497,3191,-1.616,8.531,13.293,-1.504,0.152,1.496,2.037,-4.125,9.689,0.434,-0.41,0.065,angry
0.33,0,450,0,0,0,0,0,121,692,2653,1978,233,3453,47,3499,3260,-2.387,6.857,10.101,-1.535,-0.278,0.814,1.676,-4.547,9.589,0.523,-0.517,0.036,angry
0.34,0,362,0,0,0,0,0,103,408,1933,555,0,3432,3,3631,3449,-3.055,6.507,8.478,-1.295,-0.378,0.176,2.21,-4.312,10.312,0.551,-1.053,-0.495,angry
0.35,0,267,0,0,0,0,0,90,381,1320,0,0,3293,0,3719,3623,-1.865,6.067,8.368,-0.939,0.221,0.06,3.098,-3.443,8.478,0.355,-0.933,-0.512,angry
0.36,0,253,0,0,0,0,0,99,381,1320,0,0,3293,0,3719,3623,-1.556,5.66,7.956,-0.769,-0.05,0.053,3.338,-3.019,8.262,0.311,-0.846,-0.47,angry
0.37,0,276,0,0,0,0,0,108,136,1023,2,0,3213,0,3773,3740,-1.413,4.944,7.707,-0.501,0.07,-0.043,4.015,-3.203,8.643,0.28,-0.733,-0.434,angry
0.38,0,246,0,0,0,0,0,110,33,853,2,0,3004,0,3789,3767,-1.101,4.539,7.966,-0.366,0.013,-0.243,3.814,-2.978,8.37,0.262,-0.668,-0.444,angry
0.39,0,211,0,0,0,0,0,111,38,693,0,0,2985,0,3803,3799,-0.297,4.209,8.241,-0.202,0.068,-0.489,3.725,-2.684,8.298,0.265,-0.552,-0.399,angry
0.4,0,209,0,0,0,0,0,109,38,693,0,0,2985,0,3803,3799,0.68,3.888,8.954,-0.141,0.216,-0.707,3.725,-2.684,8.298,0.265,-0.552,-0.399,angry
0.41,0,211,0,0,0,0,0,122,110,703,2,0,2839,0,3818,3833,1.319,3.632,9.414,-0.098,0.305,-0.803,3.809,-2.682,8.334,0.232,-0.412,-0.267,angry
0.42,0,202,0,0,0,0,0,128,8,675,0,0,2685,4,3875,3857,1.755,3.031,9.598,-0.086,0.329,-0.796,4.135,-2.631,8.528,0.207,-0.301,-0.192,angry
0.43,0,144,0,0,0,0,0,148,8,675,0,0,2685,4,3875,3867,2.471,2.734,9.658,-0.081,0.394,-0.78,3.677,-2.71,8.94,0.176,-0.256,-0.151,angry
0.44,0,99,0,0,0,0,0,144,7,571,2,0,2215,0,3820,3868,2.818,2.294,9.677,-0.018,0.418,-0.649,3.915,-2.763,8.545,0.189,-0.178,-0.125,angry
0.45,0,185,0,0,0,0,0,144,13,436,0,0,2057,0,3813,3891,2.988,2.081,9.584,0.075,0.444,-0.498,4.271,-2.614,8.253,0.176,-0.074,-0.068,angry
0.46,0,208,0,0,0,0,0,146,13,436,0,0,2057,0,3813,3891,3.055,1.839,9.462,0.098,0.395,-0.375,4.271,-2.614,8.253,0.176,-0.074,-0.068,angry
0.47,0,290,0,0,0,0,0,145,7,371,0,0,1869,0,3816,3915,3.01,1.678,9.495,0.169,0.363,-0.274,3.797,-2.567,8.686,0.128,0.046,-0.018,angry
0.48,0,256,0,0,0,0,0,160,27,299,20,0,1935,0,3817,3915,3.048,1.865,9.756,0.186,0.32,-0.228,3.61,-2.593,8.768,0.091,0.077,0.002,angry
0.49,0,269,0,0,0,0,0,150,27,299,20,0,1935,0,3815,3931,3.115,2.1,10.106,0.122,0.335,-0.251,3.926,-2.61,8.495,0.065,0.125,0.034,angry
0.5,0,273,0,0,0,0,0,157,41,267,5,0,1937,0,3820,3930,2.863,2.172,10.111,0.029,0.362,-0.319,3.713,-2.691,8.722,0.067,0.171,0.049,angry
0.51,0,269,0,0,0,0,0,155,0,172,0,0,1995,0,3823,3944,2.622,2.093,9.78,-0.031,0.376,-0.406,3.575,-2.717,9.019,0.058,0.172,0.059,angry
0.52,0,273,0,0,0,0,0,161,25,167,0,0,2021,0,3823,3943,2.373,2.057,9.459,-0.046,0.285,-0.496,3.28,-2.753,9.06,0.054,0.165,0.045,angry
0.53,0,218,0,0,0,0,0,122,7,105,0,0,2029,0,3821,3946,2.492,2.095,9.34,-0.054,0.136,-0.573,3.388,-2.847,9.122,0.045,0.14,0.03,angry
0.54,0,269,0,0,0,0,0,176,44,101,0,0,2063,0,3827,4004,2.772,2.179,9.476,-0.058,0.072,-0.641,3.5,-2.808,8.902,0.062,0.155,0.011,angry
0.55,0,267,0,0,0,0,0,150,0,91,0,0,2103,0,3833,3955,3.055,2.387,9.649,-0.093,0.066,-0.726,3.455,-2.653,8.871,0.065,0.181,0.011,angry
0.56,0,256,0,0,0,0,0,162,0,91,0,0,2120,0,3833,3955,3.314,2.593,9.776,-0.164,0.066,-0.801,3.493,-2.492,8.981,0.034,0.225,0.028,angry
0.57,0,240,0,0,0,0,0,170,23,101,0,0,2169,0,3839,3961,3.587,2.737,9.67,-0.229,0.07,-0.841,3.338,-2.758,8.983,0.022,0.208,0.031,angry
0.58,0,256,0,0,0,0,0,169,23,69,5,0,2221,0,3848,3961,3.701,2.813,9.357,-0.278,0.065,-0.868,3.491,-2.67,9.179,0.029,0.218,0.04,angry
0.59,0,228,0,0,0,0,0,171,19,89,2,0,2217,0,3795,3992,3.601,2.715,9.055,-0.323,0.036,-0.895,3.285,-2.751,9.177,0.024,0.18,0.041,angry
0.6,0,128,0,0,0,0,0,138,19,89,2,0,2217,0,3795,3992,3.687,2.504,8.772,-0.316,-0.01,-0.921,3.438,-2.662,9.005,0.019,0.167,0.045,angry
0.61,0,175,0,0,0,0,0,179,11,201,0,0,2329,0,3853,3967,3.812,2.516,8.705,-0.299,-0.011,-0.917,3.333,-2.543,8.916,-0.003,0.183,0.062,angry
0.62,0,208,0,0,0,0,0,169,0,239,0,0,2395,0,3819,3966,3.953,2.535,8.794,-0.285,-0.038,-0.923,3.302,-2.713,9.055,-0.017,0.201,0.067,angry
0.63,0,186,0,0,0,0,0,171,0,239,0,0,2395,0,3855,3963,4.123,2.497,8.739,-0.266,-0.058,-0.887,3.376,-2.471,8.906,-0.022,0.25,0.098,angry
0.64,0,176,0,0,0,0,0,187,7,282,28,0,2504,0,3863,3961,3.948,2.555,8.873,-0.269,-0.045,-0.843,3.445,-2.528,8.617,-0.038,0.331,0.145,angry
0.65,0,163,0,0,0,0,0,155,13,359,2,0,2583,63,3861,3947,4.063,2.564,9.081,-0.289,-0.065,-0.794,3.472,-2.6,9.239,-0.068,0.389,0.202,angry
0.66,0,165,0,0,0,0,0,173,2,314,2,0,2649,77,3865,3943,3.84,2.375,9.096,-0.343,-0.048,-0.74,3.1,-2.957,9.196,-0.049,0.373,0.184,angry
0.67,0,176,0,0,0,0,0,167,0,395,0,0,2668,0,3869,3937,3.565,2.112,9.021,-0.321,-0.042,-0.726,3.141,-2.708,9.076,-0.042,0.406,0.197,angry
0.68,0,183,0,0,0,0,0,159,1,453,2,0,2730,0,3956,3927,3.352,1.942,8.935,-0.34,-0.045,-0.724,3.077,-2.974,9.21,-0.044,0.384,0.2,angry
0.69,0,172,0,0,0,0,0,168,4,595,5,0,2761,0,3863,3923,3.285,1.805,8.964,-0.327,-0.103,-0.746,2.919,-2.957,9.313,-0.026,0.391,0.191,angry
0.7,0,176,0,0,0,0,0,157,4,595,5,0,2761,0,3863,3923,3.278,1.824,9.177,-0.329,-0.124,-0.739,3.093,-2.763,8.938,-0.022,0.419,0.192,angry
0.71,0,170,0,0,0,0,0,176,7,615,7,0,2851,0,3884,3915,3.235,1.791,9.385,-0.327,-0.095,-0.713,3.021,-2.88,9.117,-0.031,0.467,0.204,angry
0.72,0,161,0,0,0,0,0,181,12,725,2,0,2906,0,3865,3903,3.242,1.662,9.349,-0.384,-0.112,-0.701,3.007,-2.837,8.856,-0.019,0.544,0.201,angry
0.73,0,151,0,0,0,0,0,179,59,792,5,0,2957,4,3867,4008,3.199,1.669,9.601,-0.394,-0.036,-0.691,2.38,-2.693,9.256,-0.029,0.571,0.209,angry
0.74,0,176,0,0,0,0,0,183,59,792,5,0,2957,0,3803,3881,2.971,1.657,9.649,-0.425,-0.046,-0.691,2.586,-2.95,9.215,-0.049,0.551,0.203,angry
0.75,0,160,0,0,0,0,0,190,77,793,5,0,3005,0,3803,3881,2.861,1.597,9.488,-0.426,-0.093,-0.683,2.507,-2.835,9.414,-0.075,0.56,0.214,angry
0.76,0,162,0,0,0,0,0,181,47,889,5,0,3079,0,3837,3821,3.079,1.47,9.57,-0.477,-0.123,-0.703,2.61,-2.832,9.06,-0.072,0.59,0.222,angry
0.77,0,109,0,0,0,0,0,161,24,1000,12,0,3100,0,3830,3821,3.019,1.36,9.61,-0.513,-0.122,-0.695,2.466,-2.78,9.069,-0.096,0.661,0.265,angry
0.78,0,87,0,0,0,0,0,159,26,1039,7,5,3110,0,3851,3791,2.842,1.585,9.898,-0.673,-0.098,-0.72,2.294,-2.617,8.88,-0.13,0.778,0.311,angry
0.79,0,51,0,0,0,0,0,176,33,1087,7,0,3124,0,3776,3775,2.552,1.719,9.922,-0.747,-0.081,-0.706,1.815,-2.349,9.665,-0.258,0.867,0.444,angry
0.8,0,55,0,0,0,0,0,176,47,1159,23,0,3002,0,3724,3768,2.224,1.841,9.905,-0.856,-0.102,-0.739,2.289,-3.165,9.51,-0.341,0.801,0.484,angry
0.81,0,50,0,0,0,0,0,171,47,1159,23,0,3002,0,3724,3768,2.298,2.318,10.376,-0.999,-0.125,-0.755,2.732,-3.259,8.827,-0.262,0.992,0.454,angry
0.82,0,64,0,0,0,0,0,141,101,1133,1638,453,2539,26,3561,3775,2.195,2.653,10.491,-1.229,-0.03,-0.8,1.832,-3.333,9.821,-0.201,1.056,0.379,angry
0.83,0,69,0,0,0,0,0,113,191,1067,1748,1440,2195,41,3464,3791,1.927,2.658,9.029,-1.362,0.233,-1.022,0.982,-4.135,10.697,-0.079,0.809,0.259,angry
0.84,0,109,0,0,0,0,0,125,541,1338,1896,2363,1724,52,3092,3759,2.085,2.698,6.895,-1.219,0.213,-1.265,1.231,-2.919,9.529,-0.096,0.6,-0.017,angry
0.85,0,112,0,0,0,0,0,103,696,1321,1988,2685,1558,51,2951,3724,3.29,3.484,5.974,-0.782,0.045,-1.346,1.415,-3.206,9.692,-0.097,0.56,-0.001,angry
0.86,0,91,0,0,0,0,0,123,908,1443,1998,2990,1741,48,2875,3595,4.405,4.98,6.184,-0.415,-0.048,-1.128,1.001,-3.29,9.73,0.006,0.303,0.07,angry
0.87,0,144,0,0,0,0,0,100,906,1550,2126,3099,1737,11,2698,3187,4.611,6.036,5.507,-0.081,-0.086,-0.881,1.07,-3.122,9.443,-0.084,0.141,0.049,angry
0.88,0,0,0,0,0,0,0,656,1277,1835,2165,3231,1754,49,2541,2807,8.569,-1.279,11.198,0.037,-0.302,-0.941,1.192,-3.34,9.586,-0.068,0.123,0.052,angry
0.89,0,67,0,0,0,0,0,2339,1451,1940,2162,3229,1583,51,2315,2633,8.068,-0.998,1.259,1.382,-0.052,-0.625,1.154,-3.28,9.591,-0.084,0.128,0.05,angry
0.9,0,0,0,0,0,0,446,2967,1439,2109,2198,3257,1291,51,1613,2264,4.317,6.457,13.721,1.759,-0.389,-0.529,1.279,-3.199,9.699,-0.175,0.103,0.039,angry
0.91,0,442,0,0,0,0,1088,3219,1775,2165,2316,3272,543,47,487,1245,4.968,10.274,19.613,1.045,-0.596,-0.408,0.716,-3.01,9.876,-0.55,0.078,-0.063,angry
0.92,0,1685,0,0,656,0,1638,3349,1829,1451,2208,3223,133,22,4,115,2.533,3.505,12.052,0.399,0.203,-0.123,0.781,-1.003,9.948,-1.114,0.149,-0.328,angry
0.93,0,2225,0,0,944,0,2188,3443,1981,951,2198,3257,0,0,20,141,5.037,3.428,9.929,0.503,-0.654,0,2.373,-4.013,9.744,-1.603,0.498,-0.291,angry
0.94,0,2474,48,0,1322,0,2489,3507,2237,153,2003,3213,0,0,0,39,3.306,3.34,10.036,0.116,-0.475,0.073,4.48,-4.243,10.206,-2.237,1.286,-0.279,angry
0.95,0,2559,81,0,1683,0,2670,3536,2335,7,1622,3114,0,0,0,93,3.177,2.519,9.361,-0.229,-0.065,0.079,4.82,-3.941,13.238,-2.549,1.96,0.204,angry
0.96,0,2644,145,0,2018,0,2855,3599,2009,0,0,1740,0,0,0,63,3.045,2.289,9.491,-0.054,-0.44,0.087,4.767,-7.209,14.387,-3.309,2.528,2.983,angry
0.97,0,2647,82,0,2120,0,2881,3610,233,0,0,295,0,0,0,0,3.182,2.31,9.306,-0.136,-0.293,0.122,4.324,-10.154,15.541,-2.316,3.338,3.977,angry
0.98,0,2702,13,0,2208,0,2987,3627,233,0,0,295,0,0,0,0,3.51,2.564,9.182,-0.155,-0.29,0.184,4.324,-10.154,15.541,-2.316,3.338,3.977,angry
0.99,0,2695,0,0,2301,0,3015,3630,54,11,0,7,0,7,0,0,3.63,2.334,9.17,-0.103,-0.248,0.137,19.613,-2.921,7.422,-1.666,2.158,-2.751,angry
1,0,2685,0,0,2278,0,2941,3623,20,0,0,0,0,0,0,0,3.582,2.188,9.041,-0.089,-0.216,0.073,16.221,-4.808,7.116,-2.319,1.162,-4.92,angry
1.01,0,2699,0,0,2379,0,3049,3634,0,0,0,0,4,2,0,0,3.584,1.985,8.729,-0.078,-0.144,0.062,4.805,-2.124,11.997,-2.168,0.747,-5.392,angry
1.02,0,2688,0,0,2423,0,3058,3632,0,0,0,0,0,0,0,5,3.39,2.143,9.254,-0.032,-0.096,0.011,-1.99,0.029,14.724,-1.493,0.297,-4.57,angry
1.03,0,2666,0,0,2423,0,3061,3618,0,0,0,0,0,0,0,5,3.364,2.172,9.131,-0.008,-0.111,0.026,-1.99,0.029,14.724,-1.493,0.297,-4.57,angry
1.04,0,2677,0,0,2469,0,3085,3623,0,0,0,0,0,0,0,0,3.721,2.26,9.088,-0.04,-0.157,0.003,-4.499,2.631,15.038,0.28,-0.241,-1.749,angry
1.05,0,2688,0,0,2502,0,3086,3618,0,0,0,0,0,0,0,0,3.625,2.095,8.727,-0.026,-0.179,0.008,-1.891,1.609,13.836,1.277,-0.139,-0.528,angry
1.06,0,2719,0,0,2522,0,3092,3602,0,0,0,0,0,0,0,0,3.57,1.973,8.923,0.042,-0.137,-0.017,1.195,0.354,12.064,2.014,-0.231,0.126,angry
1.07,0,2751,0,0,2581,0,3094,3551,0,0,0,0,0,0,0,0,3.812,1.937,8.595,0.061,-0.078,-0.037,3.656,0.113,10.163,2.537,-0.253,0.251,angry
1.08,0,2824,0,0,2625,0,3088,3574,0,0,0,0,0,0,0,0,3.804,1.798,8.586,0.127,0.053,-0.076,4.968,-1.02,9.574,2.806,-0.559,-0.089,angry
1.09,0,2896,0,0,2675,0,3071,3557,0,0,0,0,0,0,0,0,3.658,2.131,9.043,0.133,0.148,-0.152,5.794,-1.516,8.736,2.86,-0.831,-0.659,angry
1.1,0,2974,256,0,2722,0,3056,3537,0,0,0,0,0,0,0,0,3.773,2.088,8.806,0.17,0.186,-0.167,5.794,-1.516,8.736,2.86,-1.073,-1.171,angry
1.11,0,3053,634,0,2742,0,2960,3467,43,0,0,0,0,0,0,0,3.486,2.193,8.926,0.155,0.183,-0.176,5.377,-2.085,8.801,2.842,-1.073,-1.171,angry
1.12,0,3126,1136,0,2847,0,2972,3474,0,0,0,0,0,0,0,0,3.242,2.09,9.076,0.17,0.204,-0.226,4.587,-2.315,9.108,2.853,-1.229,-1.569,angry
1.13,0,3184,1633,69,2896,0,2925,3426,0,0,0,0,0,0,0,0,3.294,2.318,9.309,0.22,0.185,-0.229,3.163,-3.982,12.115,3.045,-1.454,-1.995,angry
1.14,0,3248,2014,156,2956,0,2832,3355,0,0,0,0,0,0,0,0,3.534,2.236,8.847,0.181,0.238,-0.259,2.588,-3.979,11.475,3.141,-1.268,-2.066,angry
1.15,0,3328,2326,192,3013,0,2787,3239,0,0,0,0,0,0,0,0,3.381,2.045,8.997,0.166,0.342,-0.371,1.607,-3.606,10.774,3,-1.005,-2.046,angry
1.16,0,3382,2609,389,3050,0,2720,3061,0,4,0,5,0,0,0,0,3.56,2.282,9.261,0.242,0.318,-0.396,1.607,-3.606,10.774,3,-1.005,-2.046,angry
1.17,0,3462,2770,539,3089,0,2677,2831,0,0,0,0,0,0,0,0,3.407,1.994,8.353,0.256,0.418,-0.503,-0.299,-5.586,15.323,2.837,-0.258,-1.688,angry
1.18,125,3484,2945,848,3107,0,2625,2534,0,0,0,0,93,0,0,0,3.062,2.011,9.244,0.292,0.35,-0.611,-2.133,-7.082,18.174,3.158,-0.006,-1.344,angry
1.19,592,3616,3165,1657,3162,0,2476,2432,0,0,0,0,0,0,0,0,2.964,2.914,10.139,0.212,0.359,-0.615,-4.719,-7.587,18.627,3.409,-0.193,-0.967,angry
1.2,1229,3695,3323,2111,3189,0,2239,1801,0,0,17,0,0,0,0,0,3.371,2.643,9.697,0.538,0.183,-0.484,-4.061,-11.957,15.608,3.587,-0.794,-0.235,angry
1.21,1901,3763,3412,2342,3023,0,1719,905,0,0,0,0,0,0,2,0,2.643,2.658,9.366,0.399,0.178,-0.387,-6.488,-17.557,7.712,2.878,-1.548,-0.049,angry
1.22,2353,3811,3517,2520,2423,0,627,0,0,0,0,0,0,0,0,3,2.957,2.691,9.139,0.524,0.143,-0.477,-5.538,-19.075,1.537,2.187,-1.673,-0.163,angry
1.23,2559,3849,3568,2602,1998,0,496,0,0,0,0,0,0,0,0,0,3.615,1.19,8.432,1.165,-0.161,-0.111,-5.061,-19.613,-3.321,1.106,-0.95,-0.644,angry
1.24,2800,3824,3581,2647,1647,0,480,0,0,0,58,0,0,0,12,0,3.105,3.115,9.05,1.428,0.124,-0.046,-7.781,-19.613,-2.591,-0.678,0.511,-0.934,angry
1.25,3102,3865,3659,2845,1096,0,503,0,0,0,0,0,5,0,0,0,4.477,2.715,7.879,2.107,-0.047,0.191,-2.234,2.72,19.613,-0.96,2.397,0.399,angry
1.26,3248,3868,3666,2913,921,0,112,0,0,0,0,0,0,0,0,604,4.887,3.67,9.438,2.606,-0.292,0.075,5.55,7.125,16.02,-1.255,0.325,-0.059,angry
1.27,3362,3814,3654,2941,475,0,0,0,0,0,0,0,1,0,0,1753,3.972,2.861,8.789,3.579,-0.562,0.206,0.263,3.594,7.25,-2.509,0.453,0.541,angry
1.28,3453,3729,3614,2928,474,0,0,0,0,11,0,0,0,0,199,2451,3.309,2.464,10.848,4.027,-0.063,0.197,-9.629,-10.23,19.613,-2.12,0.692,0.809,angry
1.29,3534,2991,3314,2656,0,0,0,0,0,0,0,0,0,0,529,3012,4.374,1.192,12.938,5.701,-0.584,-0.389,-2.411,-3.496,13.724,-1.822,0.459,0.625,angry
1.3,3536,2853,2777,2339,0,0,0,0,0,0,0,0,0,0,993,3355,5.892,6.838,16.953,6.173,-0.282,-1.379,1.13,-3.644,13.379,-1.982,0.022,0.383,angry
1.31,3413,2508,1846,1674,0,0,0,0,0,43,0,0,0,0,1644,3541,8.492,8.131,19.613,6.668,-1.055,-2.641,3.175,-3.687,10.381,-1.94,-0.412,0.316,angry
1.32,2503,1819,0,164,0,0,0,0,0,0,0,0,0,0,2791,3757,6.232,5.449,17.255,7.718,-0.09,-4.77,-3.555,-7.628,17.691,-1.499,0.648,0.898,angry
1.33,1563,819,0,0,0,0,0,57,0,7,0,0,0,0,3052,3837,7.156,8.868,15.146,7.129,1.437,-5.118,2.093,-3.752,8.712,-1.089,0.535,0.24,angry
1.34,674,393,0,0,0,0,0,529,42,0,0,0,246,0,3263,3887,3.249,14.911,14.933,6.63,-0.072,-4.841,-0.421,-4.281,12.301,-0.782,0.062,-0.01,angry
1.35,0,143,0,0,0,0,0,636,0,0,17,0,615,0,3415,3925,13.707,6.043,19.613,-0.087,-1.961,-4.877,3.44,-3.56,10.017,-0.454,0.058,-0.023,angry
1.36,0,64,0,0,0,0,0,576,0,0,7,0,1132,0,3495,3939,19.613,1.525,19.613,-0.851,-1.426,-2.846,1.697,-3.227,10.46,-0.182,0.05,0.021,angry
1.37,0,60,0,0,0,0,0,561,0,214,2,0,1623,0,3571,3946,15.897,-3.95,12.886,-2.57,2.046,-0.943,1.997,-2.806,11.092,-0.14,0.109,0.03,angry
1.38,0,151,0,0,0,0,0,554,0,303,0,0,1917,0,3631,3943,8.622,-5.744,7.051,-3.445,2.301,-0.022,2.109,-2.116,8.966,-0.2,0.003,-0.026,angry
1.39,0,89,0,0,0,0,0,499,0,560,2,19,2121,0,3667,3911,8.674,-4.254,3.871,-2.877,0.805,0.821,2.274,-3.148,9.926,-0.086,0.038,-0.019,angry
1.4,0,59,0,0,0,0,0,523,0,747,2,39,2358,0,3675,3853,8.648,-2.725,7.951,-1.819,-0.54,2.247,2.988,-3.172,9.323,-0.151,0.082,-0.045,angry
1.41,0,54,0,0,0,0,0,556,0,1006,5,81,2504,0,3641,3767,8.897,0.443,12.069,-2.876,-1.136,2.87,2.418,-2.461,9.227,-0.229,0.046,-0.049,angry
1.42,0,46,0,0,0,0,0,498,5,1011,7,12,2569,0,3621,3601,6.402,2.011,11.887,-3.891,-0.746,3.242,2.315,-3.273,9.737,-0.176,-0.028,-0.092,angry
1.43,0,0,0,0,0,0,0,432,0,1093,7,57,2651,0,3547,3437,3.232,3.098,8.614,-4.423,-0.107,3.415,2.052,-3.146,9.876,-0.161,-0.104,-0.132,angry
1.44,0,2,0,0,0,0,0,384,0,1171,7,99,2713,4,3435,3271,1.894,3.795,8.346,-4.677,-0.544,3.269,2.179,-2.959,9.55,-0.124,-0.094,-0.108,angry
1.45,0,12,0,0,0,0,0,352,0,1310,17,151,2716,0,3284,3209,3.201,4.985,9.268,-4.806,-0.512,2.884,2.274,-2.868,9.268,-0.111,-0.083,-0.123,angry
1.46,0,0,0,0,0,0,0,302,0,1400,17,78,2715,0,3027,3078,4.271,6.574,10.932,-4.813,-0.874,2.742,2.54,-2.547,8.945,-0.094,0.026,-0.045,angry
1.47,0,0,0,0,0,0,0,294,12,1440,680,82,2717,0,3027,3018,4.209,7.714,11.736,-5.251,-0.266,2.604,2.708,-2.437,8.566,-0.091,0.192,0.078,angry
1.48,0,0,0,0,0,0,0,291,0,1461,913,281,2750,4,2968,2971,4.322,8.624,12.605,-5.565,-0.088,2.534,2.72,-2.31,8.308,-0.148,0.382,0.216,angry
1.49,0,0,0,0,0,0,0,291,43,1564,1136,594,2825,7,2983,2927,4.954,9.682,14.116,-5.563,-0.394,2.576,2.164,-2.332,8.782,-0.216,0.488,0.362,angry
1.5,0,0,0,0,0,0,0,288,2,1547,1901,1095,2853,5,2953,2833,4.808,11.365,16.695,-5.454,-0.847,2.683,2.784,-2.624,8.373,-0.373,0.776,0.673,angry
1.51,0,0,0,0,0,0,0,237,35,1741,1945,1756,2859,24,2915,2852,4.496,13.906,19.613,-5.455,-1.031,2.518,1.669,-1.712,8.504,-0.496,0.729,0.833,angry
1.52,0,0,0,0,0,0,0,176,470,1933,2126,2665,2716,51,2713,2823,5.018,19.446,19.613,-5.073,-1.111,2.257,2.452,-3.766,10.58,-0.09,0.657,0.403,angry
1.53,0,0,0,0,0,0,0,134,1099,2205,2208,3089,2577,51,2485,2611,0.986,19.613,8.509,-4.42,-0.434,1.767,1.087,-3.227,9.888,-0.236,0.216,0.117,angry
1.54,0,50,0,0,0,0,0,117,1612,2381,2249,3189,2567,48,2015,2389,-6.299,19.613,-5.497,-2.642,-0.6,0.851,2.138,-3.438,9.598,-0.193,0.246,0.066,angry
1.55,0,141,0,0,0,0,0,26,2387,2679,2106,3353,2203,47,313,1005,-5.25,19.613,-10.187,0.231,-0.647,0.793,1.865,-4.891,9.167,-0.366,0.153,0.145,angry
1.56,0,106,0,0,0,0,0,81,3173,2582,2316,3561,1083,5,19,282,-1.92,19.613,3.129,1.906,-0.585,-0.573,1.147,-4.451,9.404,-1.128,0.225,-0.095,angry
1.57,0,0,0,0,0,0,0,631,3467,2443,2316,3613,357,3,5,292,11.059,-4.259,14.59,0.162,-0.411,-1.651,1.015,-3.191,10.094,-1.318,0.323,-0.1,angry
1.58,0,0,0,0,0,0,171,2359,3809,2395,2331,3711,415,3,4,104,3.242,-8.43,0.347,2.621,0.448,-0.534,1.846,-2.205,10.393,-2.438,0.52,-0.224,angry
1.59,0,9,0,0,0,0,801,3167,3983,2117,2395,3701,231,0,11,0,-3.948,10.994,19.613,5.148,0.272,-1.392,2.145,-2.456,9.189,-3.912,1.041,-0.276,angry
1.6,0,401,0,0,24,0,1914,3437,3967,1823,2439,3516,105,1,0,4,10.015,2.954,9.823,2.785,-0.81,-0.926,3.316,-2.231,9.761,-4.722,1.397,-0.198,angry
1.61,0,1127,0,0,875,0,2557,3533,3895,831,1661,2796,0,0,0,0,7.762,11.382,7.01,2.701,0.825,-0.087,3.376,-5.851,15.739,-6.4,0.612,1.572,angry
1.62,0,2186,0,0,1909,0,2817,3582,1885,153,0,1652,0,0,0,0,3.134,2.397,8.669,0.182,2.232,-0.554,3.766,-7.714,19.613,-8.64,0.318,3.713,angry
1.63,0,2533,0,0,2030,0,2897,3605,1493,0,0,100,0,0,0,0,3.213,4.848,12.522,0.65,1.223,-0.537,3.663,-6.323,18.337,-8.586,0.978,5.278,angry
1.64,0,2777,306,0,2295,0,2966,3628,595,0,0,0,0,0,0,0,2.808,3.44,11.619,0.525,1.07,-0.595,1.374,-13.396,19.613,-4.683,2.532,5.478,angry
1.65,0,2991,1378,176,2455,0,3003,3628,0,0,0,0,0,0,0,0,3.266,3.079,9.483,0.558,0.881,-0.495,-5.432,6.522,19.613,-0.399,0.255,6.265,angry
1.66,0,3130,2064,639,2659,0,3055,3619,0,0,23,0,0,0,0,0,3.182,2.365,9.663,0.515,0.393,-0.439,13.465,8.114,19.613,1.835,-1.45,5,angry
1.67,0,3200,2413,947,2807,0,3069,3600,0,0,0,0,0,0,0,0,2.6,2.049,10.412,0.37,0.302,-0.467,19.613,3.692,7.353,2.324,-0.241,2.941,angry
1.68,0,3274,2594,1241,2865,0,3042,3554,0,0,0,0,0,0,17,0,3.467,1.705,9.5,0.477,0.2,-0.527,18.988,4.008,8.973,2.185,-0.655,0.384,angry
1.69,0,3330,2763,1510,2924,0,2991,3524,0,0,0,0,0,0,0,0,3.512,2.313,8.732,0.436,0.604,-0.401,15.112,1.853,12.007,2.653,-1.388,-1.852,angry
1.7,38,3394,2896,1866,2960,0,2912,3469,0,0,0,0,0,0,0,0,3.01,2.811,9.979,0.438,0.413,-0.424,7.781,1.422,11.023,3.214,-1.739,-3.188,angry
1.71,153,3440,2993,2086,2977,0,2778,3403,0,0,0,0,0,0,0,0,2.983,3.242,9.565,0.326,0.311,-0.319,-1.468,1.678,11.36,3.684,-2.059,-3.372,angry
1.72,382,3485,3031,2298,2981,0,2491,3177,0,0,0,0,0,0,0,0,2.701,2.828,9.534,0.256,0.193,-0.317,-6.723,0.254,11.966,4.219,-2.346,-2.588,angry
1.73,621,3511,3058,2461,2886,0,2058,2663,0,0,0,0,0,0,0,0,3.01,2.775,9.242,0.25,0.229,-0.383,-5.734,-1.221,9.965,4.926,-1.592,-0.472,angry
1.74,877,3577,3287,2603,2842,0,1744,2109,23,0,0,0,0,0,0,0,2.825,3.397,9.019,0.216,0.19,-0.328,-0.613,-4.906,12.787,5.419,-1.66,-0.086,angry
1.75,1205,3617,3342,2725,2657,0,1183,1971,0,0,33,0,0,0,0,0,2.622,3.079,9.12,0.16,0.182,-0.286,0.883,-6.421,12.73,5.537,-1.803,-0.509,angry
1.76,1333,3457,3178,2819,2227,0,806,1764,0,0,0,0,0,0,0,0,2.648,2.849,9.182,0.314,0.102,-0.238,-1.817,-6.249,15.821,5.791,-2.186,-1.317,angry
1.77,1775,3666,3472,2999,2339,0,715,1469,0,0,0,0,0,0,0,0,2.638,3.881,9.91,0.302,0.068,-0.14,-4.108,-11.293,19.613,6.218,-2.018,-0.906,angry
1.78,2160,3709,3527,3136,2195,0,481,873,0,0,0,0,0,0,0,0,2.116,3.498,9.876,0.206,0.002,-0.118,-4.468,-14.645,19.613,6.468,-2.204,-0.715,angry
1.79,2559,3742,3607,3262,1990,0,110,0,0,99,0,0,0,0,0,0,2.437,2.703,9.002,0.257,-0.026,-0.227,-3.879,-19.613,11.308,5.159,-2.426,-0.715,angry
1.8,2585,3524,3440,3139,1451,0,0,0,26,0,17,0,0,0,0,0,2.739,2.751,8.198,0.82,-0.062,0.119,-10.281,-19.613,-1.087,2.443,-1.896,-1.24,angry
1.81,3056,3792,3679,3454,1152,0,0,0,0,0,17,0,0,0,0,0,2.631,2.77,8.629,0.981,-0.186,0.165,-10.839,-19.613,-4.757,1.068,-1.138,-1.295,angry
1.82,3200,3799,3701,3483,665,0,0,0,69,0,0,1,0,4,4,0,2.399,2.157,10.858,1.361,-0.47,0.188,-12.862,-19.613,-4.714,-0.024,-0.489,-1.221,angry
1.83,3365,3744,3719,3531,114,0,0,0,2,0,0,0,0,0,0,0,3.838,2.078,9.172,2.482,-0.307,0.219,-0.637,-17.013,-4.247,-2.036,2.311,0.087,angry
1.84,3454,3575,3703,3536,0,0,0,0,0,0,0,22,0,0,0,423,4.537,2.112,9.859,3.314,-0.338,0.391,1.575,16.743,19.613,-1.84,0.647,0.16,angry
1.85,3525,3435,3678,3535,0,0,0,0,0,0,0,0,0,0,0,1945,4.927,2.33,9.445,4.113,-0.199,0.112,4.317,10.774,-2.119,-5.776,-0.914,0.061,angry
1.86,3573,3343,3536,3477,0,0,0,0,0,0,0,0,0,0,0,2825,4.693,1.674,8.212,5.133,0.112,-0.221,-9.778,-18.378,19.613,-5.452,0.146,0.035,angry
1.87,3581,3187,2944,3209,0,0,0,0,0,0,0,29,0,0,679,3448,6.251,2.078,8.394,5.633,0.479,-0.904,-4.891,-9.943,14.092,-3.96,0.471,0.443,angry
1.88,3570,2927,2559,2405,0,0,0,0,0,0,0,0,0,0,1071,3637,4.738,2.808,12.529,6.245,0.864,-2.065,2.919,-1.824,14.317,-3.442,0.339,0.74,angry
1.89,3490,2534,1982,1988,0,0,0,0,0,0,0,0,0,0,1973,3739,5.516,5.902,14.954,6.337,0.93,-4.246,4.068,-6.883,9.428,-3.321,-0.095,0.458,angry
1.9,2704,2101,1217,1635,0,0,0,0,0,0,0,9,0,0,2661,3811,7.774,8.511,17.205,6.959,-0.071,-5.542,9.608,-17.478,19.613,-2.704,0.684,0.281,angry
1.91,758,585,0,16,0,0,0,14,39,0,0,0,314,0,2968,3938,9.215,7.858,16.223,6.982,0.74,-6.403,0.759,-5.349,10.585,-0.94,0.795,0.523,angry
1.92,0,158,0,0,0,0,0,449,7,596,867,1378,1435,5,3087,3885,9.874,14.834,19.355,3.865,2.301,-5.319,0.613,-3.915,11.023,-0.693,0.417,0.279,angry
1.93,0,0,0,0,0,0,0,438,18,887,1417,1966,1700,6,3214,3887,19.613,5.942,19.613,0.717,-1.824,-1.867,1.664,-4.436,9.981,-0.532,0.152,0.147,angry
1.94,0,0,0,0,0,0,0,355,21,1081,1533,2149,2201,7,3359,3829,13.834,-3.364,9.828,-1.847,1.457,1.256,1.738,-3.527,9.728,-0.258,-0.183,0.019,angry
1.95,0,0,0,0,0,0,0,326,133,1559,1799,2347,2520,43,3321,3685,6.349,-3.644,5.897,-1.981,-0.572,2.318,2.095,-3.232,9.239,-0.18,0.012,0.055,angry
1.96,0,0,0,0,0,0,0,379,266,1745,1881,2381,2597,45,3247,3592,4.82,0.96,14.15,-2.365,-1.921,3.385,2.085,-2.897,8.99,-0.214,0.181,0.114,angry
1.97,0,0,0,0,0,0,0,370,234,1977,1916,2553,2617,45,2973,3341,-0.646,1.535,10.29,-3.869,-1.011,3.304,1.451,-3.419,9.579,-0.264,0.085,0.124,angry
1.98,0,0,0,0,0,0,0,353,221,2103,1919,2655,2535,69,2407,2905,-0.639,2.78,9.768,-4.585,-1.447,2.779,1.561,-3.479,9.412,-0.167,0.044,0.142,angry
1.99,0,0,0,0,0,0,0,336,165,2159,1957,2662,2403,39,2345,2776,1.116,5.495,10.472,-4.701,-1.42,2.411,1.705,-3.548,9.306,-0.162,0.066,0.149,angry
2,0,0,0,0,0,0,0,281,381,2096,1988,2845,2137,51,1955,2571,1.334,7.683,11.878,-5.162,-0.532,2.184,1.659,-3.385,9.067,-0.125,0.107,0.152,angry
2.01,0,0,0,0,0,0,0,323,429,1975,2014,3017,2059,53,1873,2181,2.392,9.515,14.755,-5.202,-0.708,2.295,1.535,-3.615,9.134,-0.058,0.046,0.117,angry
2.02,0,0,0,0,0,0,0,250,723,1913,2119,3117,2158,51,1637,2074,2.028,11.116,16.587,-5.041,-0.738,2.479,1.599,-3.603,9.498,-0.014,0.099,0.121,angry
2.03,0,0,0,0,0,0,0,199,974,2031,2178,3227,2107,54,1287,1894,2.43,14.564,19.613,-5.127,-0.492,2.148,1.645,-4.544,9.677,-0.038,0.155,0.074,angry
2.04,0,0,0,0,0,0,0,139,1183,2123,2188,3259,2125,71,1015,1639,3.816,19.415,16.961,-5.046,-0.446,1.879,1.683,-3.309,9.45,-0.079,0.111,0.119,angry
2.05,0,0,0,0,0,0,0,97,1813,2263,2208,3410,1883,37,110,981,2.102,19.613,8.327,-4.209,-0.279,1.931,1.506,-3.646,9.294,-0.197,0.055,0.073,angry
2.06,0,95,0,0,0,0,0,48,2494,2451,2234,3508,1467,5,5,230,-4.865,19.613,-4.427,-2.283,0.17,1.735,1.87,-2.698,8.305,-0.808,0.303,-0.087,angry
2.07,0,39,0,0,0,0,0,0,3131,2457,2249,3604,725,4,4,105,-7.405,19.613,-11.552,-0.175,-0.199,1.43,0.85,-3.314,9.761,-0.865,0.217,-0.118,angry
2.08,0,32,0,0,0,0,0,505,3379,2550,2403,3659,489,2,5,40,-4.173,19.436,-11.523,2.746,-0.654,-0.29,1.211,-3.206,9.898,-1.152,0.276,-0.177,angry
2.09,0,0,0,0,0,0,0,2081,3681,2407,2272,3749,328,4,3,41,6.211,-7.36,19.613,1.852,0.162,-1.043,1.867,-3.352,9.392,-2.107,0.485,-0.175,angry
2.1,0,0,0,0,0,0,490,2882,3699,2264,2321,3752,71,1,0,6,2.521,-9.158,-3.191,3.362,0.973,-1.675,1.951,-2.969,9.926,-2.734,0.669,-0.184,angry
2.11,0,0,0,0,0,0,1168,3237,3820,2143,2382,3752,105,0,0,0,-12.775,8.116,19.613,2.986,3.679,-3.615,3.809,-3.175,9.95,-3.647,0.97,-0.231,angry
2.12,0,1043,0,0,1163,0,2418,3441,3831,891,2428,3416,0,0,0,0,19.613,19.233,-0.328,2.934,0.452,-1.195,6.196,-5.126,14.25,-5.624,1.601,0.142,angry
2.13,0,2362,0,0,2046,0,2559,3537,3753,503,2275,2675,41,1,0,0,-4.817,4.142,19.613,1.459,1.347,-0.497,3.033,-5.622,16.649,-6.323,1.383,1.215,angry
2.14,305,2918,1571,354,2539,0,2761,3608,2341,0,0,1749,0,0,0,0,0.764,3.733,11.272,0.285,0.323,-0.235,3.857,-6.038,18.478,-8.355,1.027,3.69,angry
2.15,636,3138,2451,1181,2736,0,2878,3611,920,7,0,921,0,0,30,0,2.569,2.806,8.612,0.242,0.41,-0.409,4.515,-13.324,18.648,-5.337,2.014,5.283,angry
2.16,987,3280,2811,1904,2874,0,2954,3603,0,0,0,0,0,27,0,0,2.152,2.476,10.52,0.55,0.082,-0.381,0.342,-0.582,19.613,-0.215,-0.55,5.083,angry
2.17,1408,3377,3007,2224,3037,0,2943,3568,0,0,0,149,0,0,0,0,2.761,3.754,10.269,0.269,-0.051,-0.209,16.443,3.74,5.145,2.663,0.531,2.825,angry
2.18,1673,3451,3141,2350,3111,0,2800,3482,0,0,0,11,0,0,0,0,3.045,2.579,9.424,0.278,0.118,-0.17,13.324,1.446,9.802,2.525,-0.835,-0.29,angry
2.19,1855,3497,3211,2450,3123,0,2533,3325,9,0,0,7,0,0,0,0,3.021,2.813,9.258,0.24,0.181,-0.158,12.919,0.429,9.342,2.982,-1.403,-1.765,angry
2.2,1917,3536,3273,2550,3056,0,2145,2921,35,0,0,0,0,0,0,0,3.055,2.926,9.182,0.163,0.13,-0.124,0.548,-1.398,10.326,3.896,-2.15,-3.062,angry
2.21,1936,3557,3312,2629,2862,0,1584,2432,0,0,0,0,0,0,0,0,2.844,3.112,9.048,0.131,0.117,-0.137,-2.983,-2.361,10.221,4.341,-2.585,-2.64,angry
2.22,1935,3583,3348,2708,2647,0,1042,2143,0,0,0,0,0,0,0,0,2.789,2.892,9.093,0.13,0.1,-0.156,-3.402,-3.601,10.444,4.849,-2.106,-1.057,angry
2.23,2061,3600,3364,2813,2462,0,766,1898,0,0,0,0,0,0,0,0,2.837,2.835,9.043,0.168,0.067,-0.151,0.668,-6.56,12.845,5.238,-2.263,-0.603,angry
2.24,2271,3639,3434,2917,2463,0,746,1771,0,0,0,0,0,0,0,0,2.643,2.971,9.395,0.082,0.098,-0.136,0.613,-9.239,17.964,5.428,-2.88,-1.433,angry
2.25,2439,3664,3257,2976,2509,0,539,1297,0,0,0,0,0,0,0,0,2.804,3.134,9.414,0.115,0.051,-0.141,-0.486,-10.154,19.348,5.501,-3.341,-1.786,angry
2.26,2653,3716,3543,3126,2512,0,290,587,0,0,0,0,0,0,0,0,2.856,3.364,9.22,0.105,0.096,-0.232,1.087,-17.267,19.613,5.714,-3.041,-1.931,angry
2.27,2879,3741,3605,3216,2304,0,48,0,0,0,58,0,0,3,0,0,2.519,2.789,9.359,0.184,0.005,-0.216,-2.195,-19.613,11.459,4.806,-2.306,-1.995,angry
2.28,2960,3778,3622,3255,2230,0,0,0,0,0,0,0,0,25,0,0,2.66,2.787,9.328,0.253,0.009,-0.106,-7.434,-19.613,5.368,3.801,-2.275,-1.764,angry
2.29,3057,3795,3645,3285,2095,0,0,0,0,0,0,0,0,25,0,0,2.495,3.081,9.491,0.501,-0.029,-0.017,-7.434,-19.613,5.368,3.801,-2.275,-1.764,angry
2.3,3152,3766,3630,3333,1804,0,0,0,0,0,0,19,0,0,0,0,2.67,2.717,9.385,0.772,0.036,0.044,-10.554,-19.613,-2.413,0.972,-1.442,-2.771,angry
2.31,3248,3818,3680,3371,1278,0,0,0,0,0,0,19,0,0,0,0,3,3.053,9.503,1.065,-0.058,0.146,-14.961,-19.613,-6.088,-0.163,-0.236,-2.519,angry
2.32,3376,3824,3712,3431,882,0,0,0,0,0,0,0,0,0,0,0,3.053,2.715,9.986,1.55,-0.281,0.241,-12.998,-19.613,-8.741,-1.493,0.556,-1.735,angry
2.33,3456,3805,3706,3442,432,0,0,0,0,0,0,0,0,0,0,0,3.153,1.913,9.85,2.077,-0.557,0.189,-5.279,-19.613,-5.301,-2.546,2.689,-0.411,angry
2.34,3514,3747,3710,3456,279,0,0,0,0,0,0,0,0,1,0,9,5.049,2.037,10.336,2.831,-0.718,0.206,-3.79,3.867,19.613,-1.309,2.231,-0.109,angry
2.35,3549,3515,3672,3437,0,0,0,0,0,0,0,0,0,0,0,985,3.637,1.657,8.667,3.567,-0.187,0.034,-2.073,13.958,8.636,-3.467,0.282,0.369,angry
2.36,3598,3313,3599,3341,0,0,0,0,0,0,0,0,0,0,0,2142,4.693,2.093,9.349,4.601,-0.366,-0.104,-2.804,-3.385,9.639,-4.475,0.734,0.999,angry
2.37,3614,3225,3250,3054,0,0,0,0,0,0,0,0,0,0,315,2915,4.685,1.532,9.1,5.891,-0.737,-0.849,-4.642,-12.51,19.613,-3.526,0.472,0.67,angry
2.38,3615,3056,2714,2559,0,0,0,0,0,0,89,0,0,0,843,3373,2.464,2.133,13.319,5.992,-0.127,-1.701,0.486,-2.957,12.979,-2.857,0.835,0.945,angry
2.39,3522,2761,2203,2126,0,0,0,0,0,0,0,0,0,0,2141,3576,6.141,7.989,19.613,5.79,-0.036,-3.416,6.747,-4.855,11.31,-2.958,0.455,0.616,angry
2.4,3169,2256,1366,1777,0,0,0,0,0,0,0,0,0,0,2568,3683,8.432,8.461,15.057,6.544,-1.124,-4.596,1.501,-9.242,19.003,-2.135,0.98,0.616,angry
2.41,1942,1426,0,754,0,0,0,0,0,6,0,0,298,0,2741,3737,6.998,11.133,16.235,7.588,-0.606,-5.068,0.45,-3.881,14.844,-1.344,1.978,0.913,angry
2.42,930,546,0,0,0,0,0,70,69,279,2,0,779,0,2893,3775,10.139,18.771,17.016,6.393,0.795,-5.073,-2.914,-1.48,13.226,-1.334,1.737,0.874,angry
2.43,0,282,0,0,0,0,0,658,91,571,12,440,1123,5,3028,3810,1.07,13.657,19.613,-0.233,-0.071,-4.643,1.082,-4.061,11.102,-1.4,0.887,0.497,angry
2.44,0,15,0,0,0,0,0,327,127,713,1543,2071,1715,31,3130,3837,19.613,-2.581,18.292,-2.297,-1.365,-3.075,0.785,-3.888,10.183,-0.978,-0.064,0.074,angry
2.45,0,0,0,0,0,0,0,340,167,1011,1773,2515,2007,43,3252,3807,15.196,-5.923,3.994,-2.85,2.016,-0.884,1.295,-4.046,10.065,-0.464,-0.11,-0.068,angry
2.46,0,0,0,0,0,0,0,336,235,1325,1789,2604,2205,45,3270,3749,9.984,-6.249,10.76,-1.246,1.385,2.452,1.417,-3.706,9.522,-0.305,0.068,-0.031,angry
2.47,0,0,0,0,0,0,0,320,361,1501,1860,2780,2421,114,3192,3607,3.994,-0.984,12.045,-2.623,-1.658,3.774,1.516,-3.656,9.328,-0.215,0.048,-0.042,angry
2.48,0,0,0,0,0,0,0,314,633,1711,1919,2940,2525,51,2998,3421,-3.5,0.778,11.626,-4.074,-2.73,3.262,1.523,-3.658,9.335,-0.19,0.044,-0.034,angry
2.49,0,29,0,0,0,0,0,279,632,1755,1932,3052,2557,47,2869,3271,-2.073,3.326,11.36,-4.428,-1.273,2.996,1.563,-3.694,9.227,-0.158,0.014,-0.007,angry
2.5,0,63,0,0,0,0,0,251,823,1881,1983,3141,2517,52,2539,2985,-0.773,7.151,13.697,-5.016,-0.813,1.869,1.468,-3.627,9.376,-0.148,0.13,0.011,angry
2.51,0,48,0,0,0,0,0,229,937,2003,1998,3239,2681,51,2188,2811,1.183,9.833,13.144,-5.506,-0.252,1.448,1.362,-3.675,9.134,-0.112,0.183,0.01,angry
2.52,0,47,0,0,0,0,0,176,1423,2136,2065,3333,2415,53,1852,2414,7.307,12.081,12.184,-5.134,0.284,1.86,1.494,-3.627,9.457,-0.279,0.165,-0.024,angry
2.53,0,0,0,0,0,0,0,150,1912,2159,2142,3387,1607,51,856,1834,9.819,15.869,11.009,-4.107,1.612,3.107,1.712,-3.773,9.222,-0.322,0.234,0.025,angry
2.54,0,0,0,0,0,0,0,133,2388,2203,2172,3487,1272,19,54,1049,10.116,19.613,10.661,-3.366,2.5,3.659,1.374,-4.211,9.448,-0.232,0.208,0.035,angry
2.55,0,0,0,0,0,0,0,95,2647,2208,2183,3528,950,21,87,559,8.959,19.613,3.651,-1.995,1.408,4.914,0.972,-4.017,9.285,-0.17,0.197,0.01,angry
2.56,0,0,0,0,0,0,0,19,2853,2198,2198,3544,744,4,20,556,5.562,19.613,2.253,-0.803,-0.142,5.705,1.465,-3.634,9.299,-0.082,0.188,-0.053,angry
2.57,0,21,0,0,0,0,0,45,3015,2131,2216,3628,541,5,2,430,3.661,19.613,2.066,-0.269,-0.64,6.043,1.353,-3.788,9.242,-0.201,0.148,-0.04,angry
2.58,0,129,0,0,0,0,0,0,3184,2183,2218,3641,279,37,2,311,-4.7,19.613,-0.589,-0.79,-1.434,4.658,1.403,-4.436,9.646,-0.179,0.162,-0.064,angry
2.59,0,188,0,0,0,0,0,0,3535,2053,2229,3682,115,45,0,1,0.309,19.613,-9.479,0.183,-0.193,1.193,1.413,-4.01,9.318,-0.46,0.174,-0.02,angry
2.6,0,142,0,0,0,0,0,411,3525,1951,2236,3676,0,0,0,1,5.65,17.652,-11.794,2.989,-0.213,0.406,1.381,-4.271,9.263,-0.566,0.179,-0.023,angry
2.61,0,0,0,0,0,0,0,1101,3591,1976,2239,3705,0,0,0,0,13.568,10.285,11.432,0.111,-0.613,0.009,1.695,-4.065,9.778,-0.665,0.231,-0.06,angry
2.62,0,0,0,0,0,0,111,2393,3644,1844,2259,3719,0,0,0,0,3.443,-8.085,12.922,1.509,0.581,0.186,1.365,-4.061,9.203,-0.79,0.196,-0.043,angry
2.63,0,0,0,0,48,0,636,3034,3685,1593,2275,3737,0,0,0,0,-19.613,-0.256,10.357,5.509,1.468,-1.232,1.255,-3.752,9.412,-1.029,0.163,-0.055,angry
2.64,149,1727,0,0,1344,0,2173,3338,3703,1495,2280,3740,0,0,0,0,19.613,19.613,0.888,4.101,0.014,0.044,1.812,-3.625,9.431,-1.505,0.139,-0.067,angry
2.65,510,2751,0,0,2253,0,2527,3395,3637,617,2318,3695,0,0,1,0,-4.702,3.874,19.613,0.892,-0.841,0.332,3.292,-3.584,11.669,-2.433,0.538,-0.115,angry
2.66,998,3146,1610,0,2643,0,2743,3417,3246,3,1753,3356,0,0,0,0,2.986,1.027,8.856,0.846,-0.047,-0.624,3.179,-4.266,11.157,-2.804,0.593,0.928,angry
2.67,1412,3346,2512,399,3011,0,2851,3414,1434,0,0,2705,0,0,0,0,3.017,2.88,8.988,0.706,-0.555,-0.524,1.585,-7.676,13.968,-2.66,-0.259,3.428,angry
2.68,1899,3461,2866,1072,3109,0,2899,3363,887,0,0,2227,2,0,9,0,3.428,2.705,8.906,0.503,-0.074,-0.112,-0.115,-7.999,12.658,-2.476,-0.908,4.528,angry
2.69,2243,3525,3043,1535,3184,0,2861,3280,0,0,0,960,0,0,0,0,3.886,3.591,9.153,0.287,0.22,-0.205,-5.409,4.566,13.645,0.514,-1.37,8.731,angry
2.7,2464,3583,3172,1802,3270,0,2762,3141,0,0,0,2,0,0,0,0,2.689,2.897,9.548,0.375,-0.016,-0.06,19.613,-0.369,4.432,1.392,-1.691,6.035,angry
2.71,2609,3395,3237,1773,3133,0,2536,2459,0,0,0,0,0,0,0,0,2.571,2.993,9.155,0.229,-0.058,-0.12,19.386,1.446,6.112,1.163,-2.992,2.956,angry
2.72,2832,3664,3330,2042,3273,0,2243,2228,0,0,0,116,0,0,0,0,2.933,3.342,9.031,0.263,0.06,-0.126,1.932,2.143,11.7,1.456,-3.987,0.441,angry
2.73,2960,3679,3377,2226,3173,0,1842,1751,0,0,0,33,0,0,0,0,3.153,3.297,8.918,0.233,0.088,-0.117,-6.345,1.053,12.845,2.405,-3.609,1.965,angry
2.74,3057,3682,3431,2315,2949,0,1483,1078,0,0,0,159,0,0,0,0,2.883,3.479,8.961,0.22,0.092,-0.07,-6.819,0.354,11.746,2.65,-3.369,2.719,angry
2.75,3095,3690,3474,2450,2633,0,891,610,0,0,0,147,0,0,0,0,2.734,3.414,8.988,0.199,0.091,0.019,-6.072,-2.78,11.921,2.865,-3.821,3.585,angry
2.76,3102,3694,3491,2587,2308,0,378,0,0,0,0,57,0,0,0,0,2.483,3.163,9.28,0.295,0.123,0.002,-10.515,-3.78,11.102,2.79,-4.217,4.717,angry
2.77,3134,3700,3515,2651,2272,0,163,0,0,0,0,51,0,0,0,0,2.691,3.472,9.057,0.342,0.136,-0.019,-12.725,-4.492,9.658,2.552,-4.462,5.744,angry
2.78,3191,3690,3527,2725,2031,0,0,0,0,0,0,55,0,0,0,0,2.77,3.244,9.1,0.419,0.112,0.047,-13.01,-6.206,9.572,2.317,-4.391,6.832,angry
2.79,3274,3686,3551,2847,2023,0,0,0,0,0,0,21,0,0,0,0,2.823,3.244,9.007,0.527,0.083,0.042,-11.198,-7.415,7.97,1.995,-4.2,7.524,angry
2.8,3331,3718,3559,2931,1809,0,0,0,0,0,0,0,0,0,0,3,2.859,3.536,8.933,0.642,0.066,0.1,-9.448,-7.163,5.669,1.399,-3.851,7.755,angry
2.81,3418,3730,3598,3011,1662,0,0,0,0,0,0,0,0,0,0,0,2.648,3.503,9.316,0.735,0.028,0.177,-7.719,-6.541,5.339,0.687,-3.484,7.435,angry
2.82,3466,3728,3622,3071,1472,0,0,0,0,0,0,11,0,0,0,0,2.629,3.184,9.127,0.873,0.014,0.291,-4.949,-4.697,5.878,-0.09,-2.955,6.458,angry
2.83,3514,3711,3616,3124,1095,0,0,0,0,0,115,0,0,0,0,0,2.655,3.232,9.124,1.028,-0.06,0.326,-8.473,18.905,10.166,2.28,2.263,6.727,angry
2.84,3567,3667,3627,3167,684,0,0,0,0,0,0,0,0,0,0,0,2.217,3.084,9.989,1.05,0.022,0.312,-10.374,1.925,12.91,-0.136,1.435,2.718,angry
2.85,3603,3552,3626,3207,235,0,0,0,30,0,0,467,0,0,0,0,3.409,4.065,7.764,1.425,0.122,0.58,-19.613,0.85,19.613,-0.873,-0.731,1.52,angry
2.86,3635,3312,3623,3235,0,0,0,0,16,171,0,1485,0,0,0,0,4.123,3.062,9.22,1.827,0.003,0.477,9.364,-9.392,5.89,0.019,0.326,0.207,angry
2.87,3668,3296,3607,3259,0,0,0,0,0,358,1543,1908,25,0,475,185,4.298,1.86,8.827,2.424,0.068,0.535,-6.756,0.031,13.221,0.671,0.177,-0.073,angry
2.88,3702,3099,3427,3013,0,0,0,0,3,487,1463,2063,414,5,1177,1675,4.858,4.049,8.911,3.393,0.499,0.215,3.23,-0.953,9.742,-0.163,-0.093,0.211,angry
2.89,3695,2513,2860,2531,0,0,0,0,29,615,1781,2659,443,9,1662,2711,4.815,5.021,11.693,3.956,0.531,0.178,0.268,-4.19,9.711,-0.266,0.351,0.317,angry
2.9,3657,1830,1586,2097,0,0,0,0,70,437,1783,2887,531,22,2391,3051,4.168,5.289,11.621,4.048,2.051,-0.559,0.869,-3.551,9.488,0.034,-0.1,0.075,angry
2.91,3162,711,0,1200,0,0,0,0,103,373,1829,2876,710,28,2647,3172,7.211,6.819,12.045,3.961,3.476,-1.115,1.592,-3.675,9.493,0.113,-0.095,0.093,angry
2.92,1930,206,0,30,0,0,0,38,151,407,1860,2979,937,37,2918,3335,3.508,6.261,8.703,3.603,6.673,-0.993,1.587,-3.163,9.292,0.208,0.162,0.178,angry
2.93,1113,2,0,0,0,0,0,448,169,277,1676,3028,1175,37,3103,3478,-1.731,14.552,17.887,1.71,7.131,1.118,1.137,-3.237,9.694,0.106,-0.102,0.023,angry
2.94,0,0,0,0,0,0,0,432,217,223,1689,3032,1361,35,3154,3507,7.781,-0.632,14.08,-0.191,4.323,2.262,1.211,-3.388,9.608,0.127,-0.036,0.033,angry
2.95,0,0,0,0,0,0,0,333,285,285,1676,3067,1564,69,3245,3519,5.969,-0.299,6.661,-0.472,4.274,2.851,1.475,-3.342,9.555,0.074,-0.072,0.026,angry
2.96,0,0,0,0,0,0,0,274,265,227,1686,3004,1789,43,3273,3453,9.333,0.886,6.469,-1.003,3.901,2.457,1.547,-3.282,9.567,0.124,-0.004,0.028,angry
2.97,0,0,0,0,0,0,0,288,308,202,1671,2969,1852,43,3284,3411,12.404,2.421,8.732,-1.618,3.529,2.357,1.425,-3.352,9.436,0.132,-0.035,0.034,angry
2.98,0,0,0,0,0,0,0,288,277,233,1620,2835,1975,31,3255,3308,13.178,2.792,5.806,-2.255,3.806,2.924,1.396,-3.364,9.601,0.123,-0.075,0.003,angry
2.99,0,0,0,0,0,0,0,304,219,190,1566,2602,2125,39,3235,3320,13.345,3.692,6.167,-2.389,3.183,3.344,1.439,-3.263,9.419,0.141,-0.009,0.026,angry
3,0,0,0,0,0,0,0,317,135,159,1671,2517,2108,29,3195,3347,14.523,4.992,6.881,-2.397,2.618,3.824,1.446,-3.251,9.488,0.123,0.006,0.027,angry
3.01,0,0,0,0,0,0,0,326,91,240,1622,2346,2120,23,3195,3365,15.184,5.957,6.421,-2.797,2.601,4.103,1.496,-3.048,9.464,0.078,0.017,0.027,angry
3.02,0,0,0,0,0,0,0,356,37,143,1737,2315,2154,13,3239,3387,15.507,6.543,6.488,-2.809,2.272,4.281,1.453,-3.038,9.464,0.051,0.014,0.049,angry
3.03,0,0,0,0,0,0,0,345,44,178,1714,2233,2217,69,3273,3415,16.089,6.981,7.384,-2.701,1.77,4.539,1.477,-2.895,9.304,0.017,0.025,0.064,angry
3.04,0,0,0,0,0,0,0,355,73,199,1563,2185,2185,21,3260,3435,16.13,7.975,8.102,-2.743,1.522,4.665,1.314,-2.861,9.433,-0.023,0.044,0.083,angry
3.05,0,0,0,0,0,0,0,315,77,351,1543,2212,2263,20,3346,3475,16.443,9.606,8.849,-2.735,1.083,4.901,1.511,-3.079,9.503,-0.093,0.028,0.119,angry
3.06,0,0,0,0,0,0,0,285,56,274,1430,2189,2275,19,3327,3469,14.609,11.044,9.582,-2.611,0.677,5.1,1.614,-3.232,9.594,-0.101,0.024,0.118,angry
3.07,0,0,0,0,0,0,0,225,75,412,1494,2155,2377,22,3339,3423,10.666,11.799,11.186,-2.422,-0.331,4.915,1.683,-2.926,9.313,-0.133,0.018,0.169,angry
3.08,0,0,0,0,0,0,0,135,203,391,1604,2361,2463,41,3285,3403,9.543,12.61,11.071,-2.101,-0.782,4.571,1.611,-3.354,9.459,-0.16,0.02,0.112,angry
3.09,0,0,0,0,0,0,0,84,297,581,1850,2507,2495,46,3278,3367,7.748,14.085,8.768,-2.028,-0.348,3.953,1.425,-3.043,9.1,-0.191,-0.067,0.098,angry
3.1,0,0,0,0,0,0,0,0,647,885,1957,2570,2567,51,3215,3354,2.624,15.957,7.302,-1.745,-1.643,3.318,1.264,-2.509,8.394,-0.208,-0.05,0.077,angry
3.11,0,0,0,0,0,0,0,0,567,1171,1993,2898,2599,47,3141,3219,3.383,19.613,2.076,-0.419,-0.308,3.489,1.607,-3.225,9.299,-0.092,-0.005,-0.026,angry
3.12,0,0,0,0,0,0,0,0,711,1187,1998,2998,2595,51,3047,3144,-0.122,19.613,-9.467,0.871,1.608,2.88,1.93,-2.413,10.53,-0.157,0.05,-0.059,angry
3.13,0,0,0,0,0,0,0,0,787,1255,2037,3093,2553,53,2841,3143,-0.17,18.512,0.079,1.826,0.391,3.053,1.511,-3.261,9.589,-0.075,0.04,-0.026,angry
3.14,0,0,0,0,0,0,0,659,1214,1307,2062,3179,2457,51,2568,2879,-2.593,14.942,4.657,2.03,-0.82,2.422,1.504,-3.141,9.335,-0.094,0.049,-0.019,angry
3.15,0,0,0,0,0,0,0,1843,1203,1669,2073,3197,2427,48,2231,2685,-5.301,-3.072,16.431,1.507,-2.039,0.827,1.614,-3.347,9.436,-0.145,0.092,0,angry
3.16,0,112,0,0,0,0,729,3013,1414,1652,2106,3299,1981,31,1171,2003,-8.159,2.035,19.326,1.515,0.465,-1.895,1.492,-4.348,9,-0.193,0.079,0.116,angry
3.17,0,972,0,0,655,0,2066,3328,1811,1509,2142,3322,862,5,10,684,19.613,14.712,-4.386,3.221,-0.451,-0.155,1.832,-1.944,10.25,-0.783,-0.099,0.599,angry
3.18,0,1986,0,0,1525,0,2528,3425,2019,1021,2106,3309,393,3,3,470,2.26,3.73,12.096,0.655,0.121,-0.161,-1.137,-1.899,9.225,-1.167,-0.259,0.852,angry
3.19,173,2363,0,0,2113,0,2752,3506,2381,1015,2080,3446,0,0,0,207,2.665,2.717,11.329,0.487,-0.397,-0.167,2.164,-3.007,10.594,-1.554,-1.035,2.321,angry
3.2,278,2559,0,0,2387,0,2867,3537,2501,530,2096,3343,0,0,0,173,3.405,2.114,9.357,0.374,-0.139,0.174,6.29,-4.408,10.582,-2.819,-1.398,3.63,angry
3.21,409,2781,0,0,2650,0,2971,3543,2441,5,1865,3042,0,0,0,89,3.34,1.839,9.369,0.286,-0.086,-0.049,3.352,-2.519,10.87,-3.393,-1.906,4.174,angry
3.22,467,3056,368,0,2832,0,3088,3549,941,28,0,1976,0,0,0,28,3.697,3.436,9.438,0.306,-0.049,-0.063,1.906,-5.997,18.797,-4.529,-4.024,5.428,angry
3.23,487,3214,1520,81,2955,0,3136,3541,152,0,0,1051,0,0,0,0,3.821,2.763,8.918,0.089,0.034,-0.03,-1.805,-8.028,14.72,-2.722,-4.106,6.588,angry
3.24,498,3290,2064,199,3029,0,3175,3514,0,0,0,28,0,0,0,0,3.795,2.349,8.95,0.129,0.066,-0.032,-2.828,1.049,15.73,-1.274,-3.373,6.952,angry
3.25,469,3380,2397,353,3127,0,3184,3492,0,0,0,0,0,0,0,0,3.694,2.251,8.808,0.25,0.143,-0.063,5.643,3.991,11.14,0.21,-1.276,4.161,angry
3.26,479,3425,2544,543,3123,0,3175,3463,0,0,12,0,0,0,0,0,3.539,2.365,9.179,0.225,0.159,-0.087,6.251,5.432,10.08,0.482,-1.8,2.257,angry
3.27,482,3451,2670,685,3167,0,3161,3438,0,18,0,0,0,0,0,0,3.263,2.535,9.299,0.143,0.155,-0.11,4.824,5.03,11.437,0.613,-2.28,0.743,angry
3.28,519,3438,2721,831,3134,0,3094,3338,0,0,0,0,0,0,0,0,3.407,2.557,9.143,0.105,0.171,-0.125,-0.606,5.279,13.01,1.144,-2.367,-0.058,angry
3.29,560,3509,2832,1058,3216,0,3095,3358,0,0,0,0,0,0,0,0,3.275,2.466,9.294,0.225,0.09,-0.097,-4.841,4.578,13.953,1.683,-2.415,-0.102,angry
3.3,592,3561,2938,1259,3262,0,3029,3267,0,0,0,0,0,0,0,0,3.275,2.622,8.911,0.206,0.127,-0.126,-6.807,2.31,13.558,2.831,-1.902,0.904,angry
3.31,635,3579,2992,1429,3273,0,2978,3133,0,0,0,0,0,0,0,0,3.211,2.799,9.196,0.139,0.11,-0.129,-5.634,1.25,12.491,3.261,-1.764,1.324,angry
3.32,677,3612,3067,1600,3286,0,2933,3109,0,0,0,0,0,0,0,0,3.266,2.641,8.997,0.076,0.147,-0.166,-3.479,-0.316,11.892,3.528,-1.765,1.422,angry
3.33,777,3662,3170,1852,3302,0,2864,2962,0,0,7,0,16,0,0,0,3.249,2.595,8.99,0.172,0.086,-0.155,-2.732,-0.117,10.496,3.582,-2.052,1.269,angry
3.34,911,3647,3266,2045,3309,0,2800,2799,0,0,0,0,0,0,0,0,3.215,2.725,9.246,0.17,0.165,-0.176,-1.393,-2.792,12.969,3.907,-2.164,0.814,angry
3.35,1060,3715,3342,2198,3292,0,2716,2593,0,0,0,0,0,0,0,0,3.129,2.84,9.23,0.138,0.172,-0.177,-2.33,-2.581,12.033,3.768,-1.527,0.494,angry
3.36,1153,3738,3398,2336,3199,0,2657,2281,0,0,7,0,0,0,0,0,3.165,2.634,9.043,0.183,0.127,-0.156,-3.625,-2.938,12.845,3.369,-1.285,0.588,angry
3.37,1405,3761,3454,2468,3121,0,2550,1319,0,0,0,0,0,0,0,0,2.931,2.708,8.985,0.17,0.133,-0.223,-1.31,-8.389,16.211,2.908,-0.962,0.421,angry
3.38,1651,3795,3506,2604,3099,0,2366,624,0,0,0,0,0,0,0,0,2.816,2.655,9.103,0.192,0.104,-0.23,-3.847,-14.052,15.854,2.871,-0.938,-0.256,angry
3.39,1982,3824,3568,2725,3024,0,1875,0,0,0,0,0,0,0,0,0,2.907,2.911,9.167,0.261,0.051,-0.221,-2.416,-16.747,11.504,2.736,-0.658,-0.317,angry
3.4,2289,3857,3618,2826,2834,0,896,0,0,0,0,0,0,1,0,0,2.916,2.255,8.99,0.362,0.007,-0.153,-4.369,-19.36,-0.702,1.686,-0.486,0.081,angry
3.41,2443,3867,3646,2880,2450,0,233,0,0,10,0,0,0,0,0,0,3.077,3.737,9.835,0.804,-0.165,0.136,-4.652,-19.613,-2.354,0.972,-0.926,0.416,angry
3.42,2586,3893,3663,2932,2182,0,97,0,17,0,0,0,0,0,0,0,3.725,2.284,9.371,0.908,-0.012,0.055,-1.401,-19.613,-8.234,-0.756,-0.496,0.264,angry
3.43,2702,3903,3677,2970,1767,0,81,0,0,0,43,0,0,0,1,0,3.414,3.22,8.971,1.074,-0.034,0.089,-3.91,-19.613,-9.433,-1.86,1.027,0.316,angry
3.44,2672,3765,3679,2985,1360,0,43,0,0,0,0,0,0,0,0,7,3.579,2.854,9.112,1.461,-0.067,0.139,7.774,-10.386,18.364,-0.419,1.885,0.027,angry
3.45,2926,3905,3707,3031,891,0,73,0,0,0,0,0,0,0,0,1083,3.931,2.392,9.266,1.816,-0.147,0.157,0.383,10.853,17.399,-1.427,-0.415,-0.157,angry
3.46,2992,3888,3703,3017,358,0,0,0,0,0,0,0,0,0,0,2219,4.25,2.361,8.638,2.508,-0.196,0.238,-0.206,4.168,-0.848,-3.368,-0.89,0.147,angry
3.47,3044,3821,3700,2963,0,0,0,0,0,0,0,0,0,0,17,2923,5.583,2.31,8.315,2.014,0.703,-0.07,-1.717,-11.717,19.613,-2.579,-0.216,0.479,angry
3.48,2863,3627,3472,2769,0,0,0,0,0,5,0,0,0,0,613,3276,6.033,3.33,10.355,3.063,0.817,-0.279,-0.804,-5.519,12.914,-1.888,0.094,0.091,angry
3.49,3035,3371,3555,2836,0,0,0,0,0,0,0,0,0,0,1193,3403,6.515,2.998,10.913,3.636,0.812,-0.351,0.397,-1.018,10.147,-2.024,-0.392,0.35,angry
3.5,3101,3145,3290,2768,0,0,0,0,0,0,0,0,0,0,1695,3493,9.038,4.185,9.749,4.438,1.443,-1.661,19.613,-5.071,16.295,-2.381,1.079,0.164,angry
3.51,3143,2896,2738,2483,0,0,0,0,0,0,2,0,0,0,2199,3575,6.723,8.705,13.877,3.564,2.309,-1.512,3.546,-4.448,8.186,-0.701,0.476,0.297,angry
3.52,3118,2599,1984,2188,0,0,0,0,0,0,0,0,61,0,2469,3660,5.112,9.443,18.68,4.777,2.969,-2.906,0.11,-4.915,14.427,-0.63,0.785,0.66,angry
3.53,2735,2301,1349,1642,0,0,0,0,0,0,17,24,205,0,2725,3727,9.29,9.732,17.315,4.345,2.537,-3.625,0.962,-5.602,12.189,-0.417,0.5,0.46,angry
3.54,1506,774,0,99,0,0,0,0,0,0,0,83,456,55,3099,3835,14.602,5.492,14.72,3.287,2.941,-5.463,1.152,-3.062,10.116,0.041,0.167,0.179,angry
3.55,240,187,0,0,0,0,0,86,1,0,2,493,531,0,3214,3877,9.845,9.067,15.366,4.187,4.389,-5.467,0.867,-2.512,9.852,-0.015,0.008,0.145,angry
3.56,0,135,0,0,0,0,0,218,0,1,7,1003,793,0,3309,3898,19.613,-0.323,6.598,1.661,3.248,-1.159,1.839,-2.126,8.935,-0.172,-0.012,0.169,angry
3.57,0,55,0,0,0,0,0,281,3,185,365,1307,1260,1,3386,3951,19.613,-2.241,15.761,-1.442,3.56,2.192,1.508,-2.974,9.874,-0.276,0.018,0.21,angry
3.58,0,119,0,0,0,0,0,238,5,206,450,1637,1758,17,3439,3924,2.993,-1.65,4.618,-0.053,2.145,4.483,2.219,-3.388,9.474,-0.203,0.105,0.197,angry
3.59,0,122,0,0,0,0,0,301,3,333,212,2153,2172,2,3475,3859,0.448,-0.687,14.767,-0.171,-1.061,3.641,1.918,-2.784,9.234,-0.294,0.193,0.204,angry
3.6,0,0,0,0,0,0,0,308,13,845,1141,2520,2365,9,3422,3764,1.592,-0.438,11.392,-1.006,-1.135,3.101,1.501,-3.309,10.044,-0.362,0.111,0.225,angry
3.61,0,0,0,0,0,0,0,323,7,878,1625,2667,2413,5,3347,3603,4.733,-1.353,8.988,-2.677,-0.423,2.365,1.772,-3.479,9.498,-0.306,0.112,0.238,angry
3.62,0,0,0,0,0,0,0,336,21,1010,1776,2787,2398,2,3250,3620,7.293,1.439,6.438,-2.693,-0.65,2.393,1.607,-3.349,9.615,-0.296,0.07,0.23,angry
3.63,0,0,0,0,0,0,0,325,120,1145,1901,2984,2569,30,3020,3271,7.302,3.534,8.712,-4.048,0.528,2.77,1.607,-4.135,9.562,-0.245,-0.031,0.136,angry
3.64,0,0,0,0,0,0,0,287,271,1320,2034,3092,2614,47,2486,2681,4.341,6.031,10.843,-4.434,0.045,2.94,1.48,-3.448,9.419,-0.227,-0.052,0.105,angry
3.65,0,0,0,0,0,0,0,251,667,1397,1993,3128,2615,53,2348,2597,6.179,8.047,11.693,-3.851,-0.679,3.182,1.456,-3.531,9.452,-0.217,-0.046,0.072,angry
3.66,0,0,0,0,0,0,0,226,1097,1674,2083,3189,2649,47,1890,2247,9.311,10.647,13.29,-3.683,-0.364,4.036,1.448,-3.493,9.263,-0.218,0.006,0.07,angry
3.67,0,0,0,0,0,0,0,144,1333,1817,2121,3305,2516,47,1400,1903,3.821,14.516,17.087,-3.781,-0.671,4.559,1.362,-3.51,9.692,-0.167,0.05,0.082,angry
3.68,0,0,0,0,0,0,0,64,1599,1909,2149,3371,2471,49,659,1763,-0.831,17.023,16.783,-3.08,-1.483,4.369,1.822,-3.941,9.448,-0.16,0.146,0.055,angry
3.69,0,0,0,0,0,0,0,10,2021,2196,2188,3465,2333,45,175,1273,1.602,19.446,11.973,-2.813,-0.188,2.838,1.721,-3.539,9.036,-0.139,0.142,0.137,angry
3.7,0,0,0,0,0,0,0,2,2441,2347,2203,3539,2141,7,3,412,-6.354,19.613,5.782,-3.598,-0.292,0.442,1.492,-3.328,9.395,-0.349,0.175,0.149,angry
3.71,0,14,0,0,0,0,0,0,2707,2341,2224,3605,1635,5,5,343,-4.786,19.613,-0.773,-2.936,-1.179,-0.709,1.262,-2.971,9.369,-0.382,0.08,0.1,angry
3.72,0,23,0,0,0,0,0,0,3013,2416,2244,3635,1395,5,3,265,1.487,19.613,-3.843,-0.887,-1.288,-0.692,1.228,-4.487,9.505,-0.566,0.097,0.002,angry
3.73,0,49,0,0,0,0,0,75,3441,2585,2236,3863,639,3,6,151,-2.483,19.213,-0.433,-0.104,0.826,-0.831,1.513,-3.771,9.17,-0.64,0.131,-0.148,angry
3.74,0,0,0,0,0,0,0,609,3724,2585,2242,3835,327,0,0,4,3.654,9.61,-0.943,2.429,0.803,-0.579,0.883,-3.285,9.634,-1.265,0.229,-0.171,angry
3.75,0,0,0,0,0,0,0,1328,3821,2431,2247,3839,105,0,0,0,5.375,1.547,15.893,-0.743,1.261,-1.17,2.258,-2.921,8.993,-1.808,0.347,-0.131,angry
3.76,0,0,0,0,0,0,0,2226,3898,2133,2267,3870,169,1,0,0,4.451,-8.641,4.175,4.358,0.183,-0.374,1.504,-3.105,9.39,-2.461,0.532,-0.218,angry
3.77,0,0,0,0,0,0,332,2866,3957,1827,2288,3864,19,0,0,0,-0.965,-1.836,5.31,0.619,1.512,-2.111,1.98,-3.311,9.675,-3.141,0.779,-0.283,angry
3.78,0,0,0,0,0,0,797,3231,3986,1651,2290,3821,69,0,0,0,0.915,8.789,19.613,4.697,-0.577,-1.634,2.899,-3.34,9.852,-3.75,1.017,-0.221,angry
3.79,0,0,0,0,0,0,1683,3413,3947,1551,2326,3703,85,1,0,0,4.93,8.171,13.211,3.114,-0.565,-1.118,1.46,-2.813,11.746,-4.439,1.301,0.037,angry
3.8,0,816,0,0,1344,0,2496,3543,3947,1315,2316,3411,99,0,0,0,7.671,11.746,7.688,3.335,1.653,-0.354,1.585,-3.644,13.525,-5.012,1.444,0.509,angry
3.81,0,2229,0,0,2277,0,2703,3616,3475,335,15,2492,0,0,0,0,3.417,5.308,13.666,1.385,1.842,-0.495,1.666,-5.88,19.613,-7.152,0.439,2.378,angry
3.82,41,2864,1454,256,2555,0,2864,3642,1046,45,0,943,0,0,0,0,3.728,4.077,10.934,0.867,0.525,-0.428,3.613,-7.994,16.984,-8.517,0.137,4.231,angry
3.83,264,3189,2545,1138,2851,0,2989,3633,527,0,0,217,0,0,0,0,2.741,2.765,9.962,0.517,0.282,-0.318,4.69,-15.34,14.411,-7.153,0.806,4.487,angry
3.84,609,3343,2911,1790,2998,0,3054,3615,0,0,0,0,0,0,0,0,3.117,2.938,9.936,0.482,0.042,-0.078,8.305,-12.766,19.613,0.5,0.064,3.697,angry
3.85,768,3392,3024,1979,3133,0,3066,3583,0,0,0,47,0,0,0,0,3.371,2.531,9.555,0.198,0.196,-0.185,12.78,1.58,12.864,2.432,0.196,3.11,angry
3.86,912,3497,3108,2103,3213,0,3020,3543,0,10,0,22,0,0,0,0,3.505,2.981,8.837,0.124,0.186,-0.215,13.479,4.111,3.958,2.494,0.261,1.657,angry
3.87,1013,3503,3184,2241,3265,0,2955,3456,0,0,0,0,0,0,0,0,3.45,2.744,9.122,0.092,0.189,-0.265,13.06,0.527,5.957,2.269,-0.172,-0.155,angry
3.88,1262,3568,3267,2374,3322,0,2695,3123,0,0,0,0,0,0,0,0,3.433,3.144,9.076,0.139,0.078,-0.185,9.165,-2.832,10.97,3.569,-0.551,-2.79,angry
3.89,1481,3616,3331,2437,3312,0,2448,2612,0,0,0,0,0,0,0,0,3.163,2.679,9.378,0.16,-0.051,-0.135,3.132,-2.382,10.199,4.333,-0.616,-3.271,angry
3.9,1659,3648,3376,2490,3267,0,2027,2210,0,0,0,0,0,0,0,0,3.259,3.007,9.146,0.205,-0.071,-0.165,-2.468,-2.741,6.895,4.892,-1.393,-2.536,angry
3.91,1816,3673,3419,2534,3183,0,1447,1786,0,0,0,0,0,0,0,0,3.235,2.928,8.926,0.151,0.094,-0.157,-0.958,-4.65,9.062,5.159,-0.729,-1.172,angry
3.92,1965,3710,3461,2626,3024,0,1019,1487,0,0,0,0,0,0,0,0,3.304,3.139,8.985,0.111,0.137,-0.153,-0.192,-5.95,11.217,5.301,-0.924,-0.946,angry
3.93,2064,3723,3495,2692,2832,0,807,1136,0,0,0,0,0,0,0,0,3.237,2.94,8.969,0.091,0.186,-0.128,2.085,-7.851,13.424,5.538,-1.461,-1.196,angry
3.94,1981,3733,3531,2871,2675,0,665,881,0,0,0,0,1,0,0,0,3.244,2.935,9.036,0.107,0.14,-0.192,0.618,-9.795,17.569,5.53,-1.9,-1.528,angry
3.95,2069,3733,3479,2958,2539,0,426,774,0,0,0,0,1,0,0,0,3.591,3.089,8.945,0.104,0.182,-0.222,0.618,-9.795,17.569,5.53,-1.9,-1.528,angry
3.96,2255,3760,3569,3050,2601,0,304,572,0,0,0,0,0,0,0,0,3.211,2.806,9.584,0.173,0.048,-0.304,1.82,-14.437,19.479,5.585,-1.632,-1.668,angry
3.97,2559,3772,3627,3187,2498,0,160,0,0,0,0,0,35,0,0,0,3.17,3.165,9.014,0.054,0.123,-0.307,-4.377,-17.667,18.742,5.093,-2.057,-1.793,angry
3.98,2829,3799,3673,3281,2286,0,105,0,0,0,0,0,0,0,0,0,3.077,3.28,9.333,0.175,0.072,-0.213,-2.095,-19.613,6.311,2.951,-2.369,-1.622,angry
3.99,2947,3815,3686,3344,2219,0,16,0,0,0,0,0,0,0,0,0,2.885,2.65,8.772,0.47,0.076,-0.084,-6.986,-19.613,5.528,2.703,-1.911,-1.827,angry
4,3058,3809,3607,3382,1998,0,0,0,0,0,0,0,0,0,0,0,2.914,2.662,9.251,0.686,-0.012,-0.031,-8.93,-19.613,-3.213,1.308,-2.313,-1.988,angry
4.01,3206,3842,3714,3424,1747,0,0,0,0,0,0,0,0,0,0,1,3.148,2.732,8.983,0.907,-0.075,0.037,-9.155,-19.613,-8.557,0.158,-1.108,-1.571,angry
4.02,3289,3836,3728,3447,1306,0,0,0,0,0,0,0,0,0,0,0,3.079,2.538,9.088,1.201,-0.094,0.106,-10.36,-19.613,-10.894,-1.399,0.269,-0.982,angry
4.03,3382,3837,3743,3443,941,0,0,0,0,0,0,0,0,0,0,0,3.984,2.421,8.377,1.652,-0.24,0.104,-8.849,-19.613,-8.138,-2.831,1.56,-0.245,angry
4.04,3443,3824,3735,3487,451,0,0,0,0,0,0,5,25,0,0,0,3.469,2.162,9.445,2.058,-0.442,0.168,6.337,-11.562,19.613,-1.127,2.955,0.373,angry
4.05,3516,3776,3738,3478,157,0,0,0,0,0,92,0,0,0,0,453,4.357,3.426,9.122,2.658,-0.432,0.161,-0.232,11.712,19.613,-2.703,-0.255,-0.221,angry
4.06,3570,3629,3713,3459,4,0,0,0,0,0,0,0,0,0,0,1990,3.4,2.234,8.382,3.633,-0.496,0.13,0.429,1.252,2.921,-4.302,-0.719,0.012,angry
4.07,3605,3299,3666,3386,0,0,0,0,0,0,5,0,0,0,0,2735,4.848,1.889,9.143,4.066,-0.326,-0.15,-3.752,-12.031,19.613,-3.221,-0.154,0.479,angry
4.08,3635,3263,3549,3183,0,0,0,0,39,0,0,0,0,4,399,3247,3.761,1.319,9.249,5.213,-0.458,-0.685,-2.873,-4.446,14.468,-2.842,-0.288,0.228,angry
4.09,3635,2963,2549,2311,0,0,0,0,0,0,0,0,0,35,1979,3547,7.283,3.373,7.889,6.129,-0.768,-2.114,19.613,1.075,18.804,-2.681,-0.449,0.38,angry
4.1,3283,2418,1571,1507,0,0,0,0,0,0,0,0,0,0,2479,3655,8.068,8.985,15.074,6.976,-1.83,-4.347,-2.15,-7.209,10.228,-1.275,0.713,0.565,angry
4.11,1686,1147,0,144,0,0,0,0,0,0,2,0,479,0,2979,3788,9.337,7.59,16.951,6.216,-0.858,-6.279,3.531,-3.256,8.756,-0.264,1.229,0.681,angry
4.12,726,240,0,0,0,0,0,363,5,205,0,24,1035,0,3096,3760,3.639,17.739,19.613,3.254,0.758,-6.193,0.637,-3.496,10.803,-0.266,0.896,0.52,angry
4.13,0,26,0,0,0,0,0,354,0,139,5,95,1517,0,3284,3900,8.143,3.943,19.613,0.367,-2.132,-5.642,2.495,-3.893,10.872,-0.429,0.546,0.457,angry
4.14,0,80,0,0,0,0,0,360,3,217,790,492,1788,2,3345,3903,19.613,1.712,14.734,-0.675,-2.445,-3.109,1.123,-3.373,10.855,-0.382,0.392,0.408,angry
4.15,0,0,0,0,0,0,0,333,10,509,1277,1505,2275,2,3442,3902,16.503,-6.151,2.942,-3.301,1.623,-1.057,1.736,-3.572,10.056,-0.152,0.343,0.26,angry
4.16,0,0,0,0,0,0,0,337,27,539,1202,1848,2395,9,3469,3880,11.564,-3.349,9.536,-2.931,0.373,0.577,2.018,-3.503,9.668,-0.154,0.319,0.202,angry
4.17,0,0,0,0,0,0,0,347,7,743,1387,2292,2553,2,3463,3789,5.112,-1.523,12.06,-2.593,-1.642,3.429,1.765,-2.931,9.55,-0.266,0.148,0.205,angry
4.18,0,0,0,0,0,0,0,328,4,1149,1430,2456,2589,3,3219,3669,-0.338,0.651,10.949,-3.407,-2.324,3.496,1.683,-3.462,9.519,-0.328,0.184,0.256,angry
4.19,0,0,0,0,0,0,0,286,3,1196,1748,2591,2557,3,3093,3539,-1.729,3.187,12.464,-4.195,-1.558,3.118,1.623,-3.484,9.62,-0.299,0.214,0.268,angry
4.2,0,0,0,0,0,0,0,311,21,1223,1983,2845,2380,9,2733,3373,0.769,5.691,12.514,-4.016,-1.308,2.817,1.46,-3.555,9.392,-0.216,0.179,0.253,angry
4.21,0,0,0,0,0,0,0,292,59,1225,1963,3116,2213,21,2199,2939,3.223,7.642,12.28,-5.001,-0.128,2.443,1.501,-3.802,9.474,-0.146,0.051,0.191,angry
4.22,0,0,0,0,0,0,0,232,159,1317,1978,3131,2247,39,2120,2711,2.722,9.129,16.111,-5.565,0.29,2.387,1.393,-3.555,9.242,-0.129,0.034,0.159,angry
4.23,0,0,0,0,0,0,0,209,787,1416,2096,3243,2261,48,1775,2395,3.598,11.614,19.613,-5.282,-0.164,2.327,1.697,-3.826,9.383,-0.074,0.126,0.134,angry
4.24,0,0,0,0,0,0,0,129,1315,1559,2126,3421,2314,48,1148,2057,4.377,15.902,19.613,-5.262,0.22,1.984,1.645,-3.74,9.436,-0.173,0.148,0.099,angry
4.25,0,0,0,0,0,0,0,123,1471,1791,2157,3444,2355,49,539,1811,6.129,19.613,16.723,-4.804,-0.362,1.454,1.417,-3.481,9.316,-0.318,0.076,0.061,angry
4.26,0,0,0,0,0,0,0,68,2036,2173,2218,3555,2299,30,145,947,0.522,19.613,1.973,-3.442,-0.438,1.771,1.448,-3.541,9.5,-0.282,0.088,0.047,angry
4.27,0,62,0,0,0,0,0,0,2463,2387,2234,3655,1791,4,4,218,-5.006,19.613,-9.395,-0.47,-1.167,1.996,1.451,-3.735,9.833,-0.368,0.156,0.082,angry
4.28,0,99,0,0,0,0,0,0,2746,2423,2229,3720,1465,23,3,169,-3.895,19.613,-7.939,1.384,-0.904,0.133,1.063,-6.127,8.971,-0.577,0.169,-0.25,angry
4.29,0,0,0,0,0,0,0,489,3209,2376,2244,3813,557,4,3,143,9.716,17.789,4.29,1.447,-1.606,-1.465,1.633,-4.623,9.989,-0.722,0.244,-0.233,angry
4.3,0,0,0,0,0,0,0,1323,3405,2222,2249,3853,447,1,37,115,13.824,-1.257,17.71,-0.704,1.728,-2.394,1.472,-3.302,10.436,-1.269,0.356,-0.26,angry
4.31,0,0,0,0,0,0,256,2945,3677,1727,2275,3884,2,0,2,0,-0.508,-10.403,-6.414,2.685,2.443,-2.564,1.611,-2.418,9.874,-2.817,0.59,-0.318,angry
4.32,0,0,0,0,89,0,1264,3362,3755,1355,2326,3880,61,0,5,0,-2.962,11.365,19.613,4.515,-1.453,-1.905,2.03,-3.354,10.278,-3.612,0.979,-0.438,angry
4.33,0,500,0,0,1083,0,2447,3510,3863,947,2323,3639,0,0,0,0,19.613,15.505,19.613,3.952,0.874,-1.266,6.117,-5.861,12.783,-4.951,1.964,0.158,angry
4.34,229,2099,0,0,2132,0,2718,3582,3481,17,0,2875,0,0,0,0,2.612,2.315,17.403,1.086,2.589,-1.123,3.816,-8.528,19.613,-7.653,1.537,3.101,angry
4.35,564,2703,240,0,2537,0,2832,3646,2622,24,2,2238,0,0,0,0,2.26,3.136,11.842,0.495,0.948,-0.563,5.337,-7.345,16.949,-8.274,0.901,4.455,angry
4.36,673,3024,1700,201,2757,0,2949,3670,422,0,0,620,0,0,0,0,2.945,2.258,9.665,0.361,0.196,-0.166,3.697,-10.652,15.057,-6.801,2.305,5.076,angry
4.37,752,3214,2358,737,2942,0,3042,3676,0,0,0,0,3,0,0,0,3.213,2.174,9.244,0.37,0.104,-0.212,14.035,-7.712,19.613,0.638,-0.375,2.431,angry
4.38,839,3280,2601,985,3071,0,3071,3651,0,0,0,0,3,0,0,0,3.242,2.533,9.886,0.253,0.15,-0.137,14.035,-7.712,19.613,0.638,-0.375,2.431,angry
4.39,862,3326,2544,1186,3115,0,2893,3626,0,0,74,0,45,0,0,0,4.166,3.038,9.663,0.274,0.218,-0.21,12.424,5.866,6.855,2.389,0.532,0.11,angry
4.4,954,3376,2855,1392,3209,0,3030,3603,0,0,17,0,1,0,0,0,3.428,2.595,8.983,0.176,0.131,-0.15,8.914,2.229,10.659,2.339,-0.525,-1.126,angry
4.41,995,3456,2992,1649,3271,0,2894,3510,0,0,0,0,19,0,0,0,3.342,2.574,9.562,0.12,0.183,-0.169,8.528,0.256,11.447,3.134,-0.798,-1.881,angry
4.42,1063,3529,3120,1843,3344,0,2678,3261,0,0,10,0,0,0,0,0,3.486,2.377,9.285,-0.02,0.064,-0.187,0.005,0.091,9.05,4.308,-1.211,-2.233,angry
4.43,1211,3575,3197,2046,3299,0,2444,2787,0,0,0,0,0,0,0,0,3.359,2.981,9.12,0.172,-0.025,-0.189,-0.678,-2.454,8.856,4.863,-1.597,-1.494,angry
4.44,1311,3638,3261,2194,3280,0,2149,2416,0,0,0,0,0,0,0,0,3.242,2.998,8.95,0.194,0.121,-0.193,-0.017,-4.085,9.91,5.049,-1.397,-1.175,angry
4.45,1456,3669,3344,2368,3234,0,1753,2409,0,0,0,0,0,0,0,0,3.285,2.732,8.863,0.226,0.166,-0.124,-0.101,-6.036,12.479,5.309,-1.871,-1.077,angry
4.46,1535,3696,3415,2525,3143,0,1399,2272,0,0,0,0,0,0,0,0,3.445,2.851,9.031,0.187,0.241,-0.14,0.994,-8.545,16.077,5.574,-2.029,-1.493,angry
4.47,1803,3728,3473,2697,2995,0,1008,2033,0,0,0,8,0,0,0,0,3.29,2.725,8.882,0.196,0.257,-0.158,0.472,-9.419,18.483,5.574,-2.105,-1.764,angry
4.48,2124,3738,3536,2902,2787,0,658,1600,0,0,0,0,0,0,0,0,3.014,2.818,9.009,0.199,0.234,-0.198,0.414,-15.725,19.613,5.645,-2.236,-1.936,angry
4.49,2471,3771,3605,3095,2559,0,245,491,0,0,0,0,0,0,0,0,3.11,2.696,9.021,0.191,0.188,-0.268,-4.712,-19.613,15.965,5.281,-2.615,-1.858,angry
4.5,2699,3799,3665,3249,2297,0,23,0,0,0,74,0,0,0,0,0,3.112,2.531,9.067,0.305,0.094,-0.354,-5.243,-19.613,5.808,4.273,-2.226,-1.722,angry
4.51,2850,3821,3680,3329,2099,0,48,0,0,0,66,0,0,0,0,0,2.646,2.054,8.832,0.719,0.061,-0.092,-10.793,-19.613,-1.7,2.857,-1.754,-1.76,angry
4.52,3117,3838,3727,3357,1777,0,0,0,0,0,0,0,0,0,0,0,2.801,2.629,9.057,1.174,-0.121,0.131,-13.702,-19.613,-6.251,0.274,-0.354,-1.243,angry
4.53,3216,3851,3621,3424,1184,0,0,0,0,0,0,0,0,0,0,0,3.215,2.449,9.062,1.43,-0.168,0.172,-13.149,-19.613,-7.084,-1.225,0.472,-0.734,angry
4.54,3342,3843,3757,3497,739,0,0,0,6,0,0,0,13,0,0,0,3.46,3.316,10.235,1.913,-0.465,0.357,-8.768,-19.613,-12.376,-3.683,1.76,0.292,angry
4.55,3438,3797,3753,3506,161,0,0,0,0,0,0,0,0,0,0,4,3.816,1.401,9.685,2.927,-0.578,0.321,-2.169,-2.571,19.613,-2.538,2.388,0.394,angry
4.56,3524,3623,3741,3521,0,0,0,0,0,0,0,0,26,0,0,1307,3.855,0.876,8.995,3.526,-0.236,0.09,2.88,10.645,14.985,-3.967,-1.163,0.487,angry
4.57,3581,3474,3696,3472,0,0,0,0,0,0,0,0,0,0,0,2201,5.08,3.958,9.843,5.412,-0.302,-0.663,0.881,-9.009,7.87,-4.744,-0.147,0.805,angry
4.58,3621,3347,3486,3252,0,0,0,0,0,0,0,0,0,9,237,3125,3.021,1.279,10.106,6.444,-0.617,-0.722,-4.803,-14.257,19.613,-3.426,0.232,0.683,angry
4.59,3569,2991,2422,2086,0,0,0,0,0,0,0,0,0,0,1582,3629,7.752,5.274,13.999,7.658,-0.664,-2.718,5.844,-5.962,9.579,-2.843,0.139,0.802,angry
4.6,3425,2591,1878,1776,0,0,0,0,27,0,0,0,0,0,2275,3729,7.515,11.131,19.613,7.279,-0.537,-4.369,-14.042,-19.613,19.613,-1.795,2.228,1.427,angry
4.61,1486,1200,0,144,0,0,0,0,0,0,2,0,213,0,2789,3739,8.145,5.471,18.356,7.302,-0.499,-6.549,-1.623,-3.206,8.346,-1.115,1.256,0.826,angry
4.62,576,203,0,0,0,0,0,251,8,88,0,0,509,0,2873,3887,5.423,10.044,19.58,3.109,2.224,-6.415,-2.866,-3.816,14.856,-0.857,1.181,0.667,angry
4.63,0,30,0,0,0,0,0,283,29,149,7,0,1115,0,3013,3923,4.633,4.087,19.613,-0.329,-0.552,-5.798,1.697,-5.406,12.754,-0.658,0.517,0.198,angry
4.64,0,3,0,0,0,0,0,334,41,261,1458,1213,1685,12,3103,3940,19.613,2.638,17.636,-0.015,-3.292,-2.907,1.539,-4.482,10.918,-0.339,0.202,0.001,angry
4.65,0,0,0,0,0,0,0,276,19,599,1128,2181,2295,7,3247,3917,16.731,-4.721,2.787,-3.137,1.469,-0.798,1.398,-3.591,9.912,-0.116,-0.076,0.011,angry
4.66,0,0,0,0,0,0,0,259,37,823,1338,2403,2541,10,3237,3951,11.265,-6.096,4.774,-2.95,2.247,-0.011,1.946,-3.414,9.685,-0.056,-0.001,0.024,angry
4.67,0,0,0,0,0,0,0,233,31,1016,1458,2494,2645,60,3188,3709,6.883,-0.072,11.363,-2.141,-1.369,3.31,1.853,-3.318,9.246,-0.048,0.005,0.038,angry
4.68,0,0,0,0,0,0,0,281,43,1319,1661,2525,2718,12,2979,3491,1.52,1.403,9.627,-3.277,-2.079,3.771,1.678,-3.359,9.369,-0.164,-0.017,0.04,angry
4.69,0,0,0,0,0,0,0,210,82,1575,1832,2719,2686,25,2479,3127,-2.21,3.223,12.289,-4.283,-1.593,3.568,1.676,-3.357,9.309,-0.185,0.01,0.1,angry
4.7,0,0,0,0,0,0,0,187,91,1637,1881,2799,2637,10,2355,2901,0.012,4.776,12.1,-4.166,-1.903,2.968,1.712,-3.527,9.266,-0.184,0.063,0.109,angry
4.71,0,0,0,0,0,0,0,91,202,1593,1978,3083,2585,41,1931,2556,2.693,7.269,11.461,-5.088,-0.664,2.33,1.566,-3.572,9.191,-0.138,0.196,0.135,angry
4.72,0,0,0,0,0,0,0,98,342,1365,1924,3099,2291,48,1779,2185,5.483,8.689,15.165,-5.761,0.081,2.271,1.633,-3.493,8.93,-0.091,0.183,0.113,angry
4.73,0,0,0,0,0,0,0,119,626,1542,2044,3191,2312,48,1581,2123,4.056,10.403,19.242,-5.524,-0.462,2.672,1.592,-3.558,9.129,-0.115,0.152,0.129,angry
4.74,0,0,0,0,0,0,0,86,1225,1471,2116,3289,2361,16,1179,1931,3.807,15.194,19.613,-5.439,-0.749,2.623,1.607,-3.536,9.146,-0.132,0.182,0.113,angry
4.75,0,0,0,0,0,0,0,16,1646,1903,2180,3385,2316,51,377,1371,5.152,19.613,19.613,-4.93,-0.583,2.026,1.276,-3.84,8.906,-0.213,0.173,0.082,angry
4.76,0,0,0,0,0,0,0,0,2022,2035,2216,3449,2382,30,115,955,0.831,19.613,1.877,-3.918,0.498,1.451,1.302,-4.101,9.304,-0.191,0.124,0.073,angry
4.77,0,0,0,0,0,0,0,0,2297,2149,2203,3516,2303,25,81,666,-3.994,19.613,-3.335,-2.956,-1.41,1.632,1.549,-3.977,9.254,-0.186,0.074,0.111,angry
4.78,0,18,0,0,0,0,0,0,2903,2408,2226,3687,1643,0,0,421,-5.351,19.613,-14.959,-0.602,-1.305,1.654,1.686,-4.35,9.759,-0.571,0.269,-0.112,angry
4.79,0,4,0,0,0,0,0,0,3372,2516,2247,3811,799,1,48,337,-4.937,19.613,-1.556,1.679,0.407,-0.198,1.178,-3.922,9.27,-0.953,0.142,-0.144,angry
4.8,0,0,0,0,0,0,0,726,3544,2469,2352,3839,461,5,0,247,13.443,7.365,11.21,-1.173,0.361,-1.298,1.949,-3.112,9.577,-1.522,0.276,-0.139,angry
4.81,0,0,0,0,0,0,186,2524,3704,2183,2203,3859,52,3,1,175,2.65,-15.519,-2.433,4.399,-0.715,-1.87,2.045,-2.758,9.744,-2.239,0.493,-0.176,angry
4.82,0,0,0,0,0,0,987,3307,3875,1506,2362,3848,89,5,3,119,-4.681,13.707,19.613,1.276,4.515,-3.686,2.66,-2.081,10.295,-4.369,1.157,-0.385,angry
4.83,137,15,0,0,1174,0,2433,3514,3857,631,2382,3477,4,0,3,3,19.613,1.757,19.613,1.541,-1.831,-0.602,3.27,-0.915,13.415,-6.092,2.288,0.524,angry
4.84,329,1693,0,0,2299,0,2779,3614,3739,49,1988,3031,0,1,0,0,-2.38,7.118,18.421,1.271,2.173,-1.019,2.978,-5.842,17.394,-7.617,1.665,2.105,angry
4.85,707,2645,0,0,2794,0,2935,3679,2063,0,0,1756,0,0,0,0,0.218,3.694,13.937,1.559,1.031,-0.291,6.838,-10.779,19.613,-8.308,0.396,4.753,angry
4.86,1036,3131,1767,144,3024,0,3023,3689,0,0,0,0,0,0,0,0,2.988,3.965,9.991,0.236,0.595,-0.55,5.21,-7.819,19.613,-2.636,1.245,4.83,angry
4.87,1273,3258,2427,498,3107,0,3058,3666,0,0,0,0,0,0,0,0,3.991,4.087,10.309,0.045,0.287,-0.233,11.902,-14.049,19.613,-0.53,-1.006,3.574,angry
4.88,1735,3392,2902,1218,3238,0,3087,3618,0,0,0,0,0,0,0,0,3.031,1.53,9.637,0.341,0.048,-0.124,15.842,2.313,19.613,2.724,-0.098,3.034,angry
4.89,2027,3499,3103,1685,3344,0,2954,3506,0,0,0,0,0,0,0,0,3.239,3.211,8.703,0.294,0.041,-0.212,9.369,3.563,3.519,2.799,-0.53,-0.018,angry
4.9,2159,3550,3170,1846,3363,0,2810,3347,0,0,0,0,0,0,0,0,3.187,2.555,9.17,0.265,0.15,-0.161,9.215,1.681,5.981,2.688,-1.339,-1.119,angry
4.91,2288,3578,3231,2002,3376,0,2622,2977,0,0,0,0,0,0,0,0,3.158,2.971,9.352,0.2,0.194,-0.109,8.176,0.101,7.681,3.092,-1.329,-1.932,angry
4.92,2366,3622,3277,2110,3365,0,2390,2597,0,0,0,0,0,0,0,0,2.947,3.144,9.304,0.22,0.084,-0.117,3.725,-0.757,8.957,3.58,-1.319,-2.348,angry
4.93,2471,3665,3339,2241,3330,0,1935,2195,0,0,0,0,0,0,0,0,3.057,3.151,9.196,0.111,0.042,-0.108,-2.507,-1.8,8.938,4.41,-2.143,-1.852,angry
4.94,2559,3699,3408,2349,3279,0,1372,1488,0,0,23,0,0,0,0,0,3.163,2.897,9.151,0.102,0,-0.094,-2.492,-2.744,8.777,4.642,-2.087,-1.27,angry
4.95,2643,3727,3447,2387,3179,0,885,708,0,0,0,0,0,2,0,0,3.158,2.871,9.074,0.142,0.046,-0.078,-0.644,-6.189,12.9,5.146,-2.14,-0.5,angry
4.96,2709,3745,3503,2509,3015,0,444,368,0,0,0,0,0,0,0,0,3.359,2.983,8.861,0.09,0.11,-0.104,2.497,-8.119,14.277,5.272,-2.461,-1.062,angry
4.97,2755,3763,3526,2559,2906,0,297,0,0,0,0,0,0,0,0,0,3.304,3.05,8.942,0.072,0.125,-0.135,1.666,-9.278,17.174,5.214,-2.785,-1.677,angry
4.98,2807,3775,3537,2640,2797,0,254,0,0,0,0,0,0,0,0,0,3.376,2.981,8.887,0.056,0.158,-0.155,1.69,-11.25,19.573,5.032,-3.042,-2.136,angry
4.99,2884,3789,3571,2736,2726,0,176,0,0,0,0,0,0,0,0,0,3.28,2.947,9.067,0.043,0.151,-0.18,2.315,-14.19,19.613,4.954,-2.74,-2.469,angry
5,2963,3797,3602,2826,2656,0,89,0,0,0,48,0,0,0,0,0,3.014,2.904,9.103,0.053,0.098,-0.208,1.877,-18.433,19.613,4.87,-2.365,-2.754,angry
5.01,3040,3815,3622,2895,2558,0,27,0,0,0,0,0,0,0,0,5,2.732,2.358,8.981,0.114,0.088,-0.165,-0.18,-19.613,17.894,4.635,-2.18,-3.061,angry
5.02,3127,3837,3653,2982,2503,0,66,0,0,0,0,0,0,0,0,0,2.796,2.581,9.052,0.183,0.042,-0.115,-5.248,-19.613,9.778,3.979,-2.36,-3.191,angry
5.03,3205,3849,3680,3060,2481,0,96,0,0,0,0,0,0,0,0,0,2.933,2.804,9.091,0.274,0.016,-0.06,-6.795,-19.613,1.063,2.845,-2.208,-3.003,angry
5.04,3286,3871,3709,3120,2327,0,59,0,0,0,0,0,0,0,0,0,3.127,2.61,9.227,0.52,0.019,0.037,-12.409,-19.613,-3.998,1.328,-2.132,-2.903,angry
5.05,3350,3883,3725,3158,2110,0,0,0,0,0,0,0,0,0,0,0,3.144,2.598,9.301,0.809,0.014,0.058,-12.428,-19.613,-5.116,0.265,-1.9,-2.377,angry
5.06,3408,3898,3735,3199,1802,0,0,0,0,0,0,0,0,0,0,0,3.16,2.854,9.182,1.153,0.004,0.114,-11.722,-19.613,-5.669,-0.528,-0.859,-1.783,angry
5.07,3473,3893,3747,3229,1619,0,0,0,0,0,0,0,0,0,0,0,3.16,2.449,9.455,1.476,-0.116,0.185,-11.791,-19.613,-3.163,-1.085,0.058,-0.725,angry
5.08,3532,3903,3751,3271,907,0,0,0,0,7,0,0,0,0,0,0,3.891,2.777,9.012,1.78,-0.171,0.234,0.781,-19.613,-9.95,-3.305,1.512,-0.961,angry
5.09,3598,3891,3759,3291,544,0,0,0,0,0,0,0,0,0,0,0,4.017,2.447,9.17,2.433,-0.451,0.244,-0.543,-3.917,19.613,-1.32,2.435,-0.25,angry
5.1,3646,3849,3754,3303,135,0,0,0,0,0,0,0,0,9,0,875,4.951,2.251,9.067,3.181,-0.654,0.094,-0.797,10.561,15.275,-2.624,-0.595,-0.843,angry
5.11,3683,3756,3718,3250,0,0,0,0,0,0,0,0,0,0,0,2025,2.942,1.106,9.239,3.972,-0.402,0.073,-8.928,2.99,8.916,-4.801,-0.693,0.193,angry
5.12,3710,3415,3621,3070,0,0,0,0,0,0,0,0,0,0,235,2888,5.689,0.84,9.627,4.911,-0.921,-0.299,-7.228,-14.444,19.331,-3.569,-0.04,1.014,angry
5.13,3717,3118,2958,2448,0,0,0,0,51,0,5,0,16,0,1431,3397,4.247,3.615,12.395,6.41,-0.643,-2.361,2.32,-4.391,13.343,-3.463,-0.492,0.749,angry
5.14,3435,2553,1823,1363,0,0,0,0,0,157,2,20,120,0,2726,3556,11.066,5.689,14.655,8.731,-2.203,-3.849,-1.12,-14.269,18.17,-1.526,1.48,0.806,angry
5.15,1767,1344,0,122,0,0,0,0,0,253,17,10,1315,0,3031,3787,9.067,11.542,15.644,7.373,-0.146,-5.088,5.128,-5.301,9.263,-0.42,1.869,0.996,angry
5.16,0,359,0,0,0,0,0,438,0,483,12,895,1741,0,3079,3823,4.017,8.887,19.613,2.025,-2.259,-5.13,-1.35,-4.654,15.174,-0.451,1.214,0.744,angry
5.17,0,396,0,0,0,0,0,385,3,588,1379,1849,2011,4,3221,3862,19.613,-1.494,19.613,-2.553,-0.844,-3.619,0.005,-3.227,10.733,-0.47,0.403,0.42,angry
5.18,0,376,0,0,0,0,0,342,4,537,1051,2404,2204,3,3279,3820,11.186,-5.531,3.802,-3.747,1.877,-1.183,1.86,-3.632,9.699,-0.257,0.312,0.355,angry
5.19,0,118,0,0,0,0,0,336,1,521,1364,2476,2313,0,3245,3784,8.921,-3.991,4.858,-2.589,-0.184,0.863,2.081,-3.522,9.606,-0.28,0.392,0.364,angry
5.2,0,69,0,0,0,0,0,389,0,751,1620,2823,2228,0,3059,3675,6.359,-0.311,10.187,-3.391,-1.792,2.446,0.433,-2.854,9.972,-0.471,0.322,0.476,angry
5.21,0,0,0,0,0,0,0,327,7,1039,1783,3089,1815,12,2789,3512,0.283,1.233,9.515,-4.015,-2.105,2.942,1.228,-4.384,9.917,-0.331,0.184,0.375,angry
5.22,0,0,0,0,0,0,0,283,28,1081,1837,3223,1471,27,2567,3449,-3.977,2.263,11.188,-4.607,-2.187,2.374,1.513,-2.94,9.776,-0.106,0.249,0.283,angry
5.23,0,0,0,0,0,0,0,261,307,1209,1988,3343,1449,48,1975,3191,-3.56,6.594,13.985,-5.064,-2.816,1.293,1.393,-3.828,9.373,-0.108,0.157,0.121,angry
5.24,0,0,0,0,0,0,0,228,631,1189,2106,3453,1164,51,1197,2863,-0.074,10.417,13.925,-5.439,-2.714,0.424,1.355,-3.838,9.357,-0.148,0.13,0.064,angry
5.25,0,0,0,0,0,0,0,177,883,1293,2075,3468,1207,48,879,2669,3.742,11.655,14.303,-6.02,-2.097,0.009,1.343,-3.697,9.419,-0.178,0.112,0.058,angry
5.26,0,0,0,0,0,0,0,89,1403,1353,2101,3606,1117,43,255,2173,4.453,13.573,13.817,-5.383,-1.768,0.426,1.343,-3.797,9.108,-0.204,0.011,0.025,angry
5.27,0,0,0,0,0,0,0,0,1971,1591,2142,3663,1075,31,111,1157,1.686,18.287,13.434,-3.975,-1.799,0.778,1.396,-4.005,9.469,-0.212,0.023,0.037,angry
5.28,0,0,0,0,0,0,0,0,1958,1643,2160,3704,1189,9,0,858,1.623,19.613,13.992,-3.006,-2.361,1.527,1.434,-3.958,9.357,-0.204,0.005,0.045,angry
5.29,0,0,0,0,0,0,0,0,2248,1643,2170,3723,998,0,4,649,1.616,19.613,11.308,-1.586,-3.113,3.032,1.226,-3.333,9.024,-0.297,-0.011,-0.006,angry
5.3,29,0,0,0,0,0,0,0,2483,1768,2190,3759,766,5,4,507,-8.387,19.613,5.047,-0.909,-0.856,3.426,1.281,-3.895,9.428,-0.239,-0.061,0.062,angry
5.31,31,0,0,0,0,0,0,0,2663,1883,2195,3771,605,37,3,325,-9.974,19.613,-3.347,-0.608,0.876,2.902,1.061,-4.401,9.201,-0.388,0.073,-0.075,angry
5.32,0,0,0,0,0,0,0,992,2957,1949,2206,3915,152,4,0,119,-10.592,19.613,-16.216,3.276,3.592,0.205,1.128,-4.432,9.524,-0.545,0.186,-0.171,angry
5.33,0,0,0,0,0,0,175,2214,3237,1803,2231,3930,0,0,0,21,3.328,-9.558,19.613,1.453,-3.095,-2.761,1.525,-3.223,9.287,-1.338,0.397,-0.196,angry
5.34,0,0,0,0,704,0,1626,3139,3345,1595,2085,3944,0,0,0,132,-6.481,3.206,4.152,1.95,2.455,-3.122,1.748,-3.728,9.986,-1.752,0.351,-0.177,angry
5.35,233,1853,0,0,1999,0,2326,3399,3487,1461,2329,3898,0,0,1,0,-2.401,5.375,4.017,-2.772,4.394,-2.627,1.353,-2.442,10.319,-3.451,0.249,-0.122,angry
5.36,779,2640,942,95,2394,0,2384,3504,3383,733,2339,3561,0,0,0,1,6.388,6.282,-0.654,2.698,0.444,-0.783,1.626,-4.077,14.846,-5.674,1.258,-0.007,angry
5.37,1632,2922,2469,1419,2664,0,2525,3533,3199,151,2119,3087,3,0,0,0,3.436,3.845,12.926,1.269,0.187,-0.14,3.17,-5.986,16.989,-6.444,0.833,0.494,angry
5.38,2269,3066,2738,1956,2820,0,2621,3559,1464,105,2,1966,0,0,0,0,2.641,2.559,9.237,0.742,0.23,0.264,5.586,-8.107,19.613,-6.633,0.45,2.077,angry
5.39,2631,3163,2964,2329,2895,0,2649,3570,0,0,0,357,0,0,0,8,3.551,2.241,8.619,0.241,0.165,0.022,3.402,-6.653,19.613,-2.298,0.384,1.924,angry
5.4,2850,3210,3131,2516,3029,0,2735,3559,0,0,2,0,0,0,0,0,3.244,3.103,9.493,0.1,0.105,-0.007,2.583,-4.08,17.77,0,0.908,2.679,angry
5.41,2919,3246,3194,2559,3068,0,2736,3535,0,1,0,107,0,0,0,0,3.069,3.06,9.175,0.147,0.082,-0.026,7.405,8.593,14.765,1.377,1.305,2.103,angry
5.42,2957,3296,3178,2630,3053,0,2695,3463,0,0,0,0,0,0,0,0,3.086,2.981,9.062,0.115,-0.013,-0.014,8.511,1.53,9.127,2.318,1.746,0.743,angry
5.43,3008,3332,3278,2638,3107,0,2685,3389,0,0,0,0,0,0,0,0,3.39,2.887,9.045,0.086,-0.032,-0.02,9.78,0.867,7.314,2.784,1.279,-0.399,angry
5.44,3008,3347,3293,2623,3056,0,2621,3289,0,0,0,0,0,0,0,0,3.481,3.014,9.017,0.104,-0.036,-0.035,8.411,0.747,6.45,3.028,0.755,-1.576,angry
5.45,3017,3361,3297,2608,3039,0,2522,3167,0,0,0,0,0,0,0,0,3.318,3.043,8.995,0.129,-0.075,-0.019,6.646,-0.785,5.473,3.143,0.269,-2.637,angry
5.46,3024,3391,3312,2544,3030,0,2374,2967,0,0,0,0,0,0,0,0,3.443,2.887,8.971,0.048,-0.029,-0.043,3.881,-2.684,6.402,3.301,-0.003,-3.799,angry
5.47,3054,3415,3326,2501,3057,0,2288,2803,0,0,0,0,0,0,0,3,3.517,2.933,8.892,0.079,-0.013,-0.075,2.993,-3.757,7.24,3.436,0.357,-3.856,angry
5.48,3059,3312,3309,2293,3071,0,2233,2544,0,0,7,0,0,0,0,0,3.347,2.966,8.885,0.078,-0.051,-0.068,5.641,-5.578,8.667,3.752,0.867,-4.11,angry
5.49,3165,3456,3348,2559,3129,0,2310,2736,0,3,0,0,9,1,0,0,3.141,2.947,8.983,0.023,-0.031,-0.09,10.657,-8.078,8.954,3.435,1.205,-5.684,angry
5.5,3215,3479,3363,2614,3170,0,2368,2754,25,0,0,0,0,0,0,0,3.342,3.01,9.038,0.003,-0.038,-0.107,15.277,-11.885,9.22,3.083,1.792,-6.711,angry
5.51,3261,3508,3391,2641,3221,0,2416,2769,0,0,23,0,21,0,0,1,3.352,2.99,8.959,-0.014,-0.048,-0.126,18.809,-19.613,5.179,2.057,3.438,-8.731,angry
5.52,3311,3538,3405,2686,3269,0,2451,2786,0,0,0,0,0,0,18,0,3.189,2.919,9.069,0.016,-0.063,-0.139,12.371,-19.613,0.16,0.783,3.13,-8.434,angry
5.53,3366,3567,3433,2693,3307,0,2441,2710,0,0,120,0,0,0,0,0,3.251,2.875,9.084,0.024,-0.126,-0.153,10.989,-19.613,0.189,0.266,1.923,-7.437,angry
5.54,3408,3610,3439,2655,3341,0,2293,2475,0,0,0,0,0,0,0,2,3.34,2.902,8.978,0.03,-0.175,-0.181,18.629,-19.613,-3.309,-0.073,0.124,-4.284,angry
5.55,3427,3635,3438,2475,3352,0,1786,1474,0,0,10,22,0,0,23,5,3.613,2.926,8.93,0.135,-0.251,-0.166,3.551,-15.792,-10.637,-1.698,-1.739,-0.774,angry
5.56,3427,3643,3376,2064,3303,0,1167,1040,0,0,0,0,0,0,47,0,3.536,3.338,9.301,0.03,-0.288,-0.105,18.356,-14.449,-1.654,-1.633,-0.057,-0.197,angry
5.57,3339,3582,3115,1318,3024,0,473,783,0,0,7,0,381,0,2027,2677,3.462,2.988,9.278,0.204,-0.56,-0.107,1.769,0.448,11.095,-0.994,0.939,1.239,angry
5.58,3031,3396,2765,250,2386,0,255,498,0,41,12,481,981,0,2535,3095,4.128,3.816,10.259,-0.042,-0.695,-0.108,-0.51,-2.447,10.975,-0.718,0.754,0.55,angry
5.59,2458,2918,2143,0,1996,0,307,622,0,215,33,555,1469,0,2790,3244,-1.939,1.796,13.443,-1.123,-0.318,-1.022,6.835,-4.503,6.819,-0.836,0.78,0.655,angry
5.6,1301,2430,0,0,1360,0,172,567,24,571,1783,2027,2065,6,3051,3453,-4.305,1.975,16.798,-1.638,-1.32,-3.356,1.954,-5.392,10.484,-0.37,0.221,0.344,angry
5.61,845,1504,0,0,144,0,0,96,77,1123,1822,2407,2393,25,3197,3560,1.039,6.773,10.226,-2.842,-3.058,-5.003,1.458,-4.187,10.094,-0.147,-0.033,0.111,angry
5.62,717,0,0,0,0,0,0,219,105,1191,1865,2397,2535,27,3227,3548,-6.498,19.613,13.841,-2.296,-4.376,-6.957,2.133,-3.694,9.629,0.003,0.13,0.072,angry
5.63,738,0,0,0,0,0,0,46,117,1357,1881,2405,2651,29,3260,3563,0.967,19.613,-1.911,-5.419,-1.782,-7.93,1.987,-3.014,8.88,-0.08,0.062,0.039,angry
5.64,561,0,0,0,0,0,0,0,181,1334,1896,2571,2665,41,3273,3590,10.633,16.611,-5.409,-6.93,-1.18,-8.505,1.638,-3.457,9.448,-0.158,0.025,0.001,angry
5.65,347,0,0,0,0,0,0,32,181,1333,1891,2651,2597,39,3213,3610,9.187,13.159,-5.279,-3.035,-2.598,-7.191,1.607,-3.563,9.328,-0.124,0.094,0.033,angry
5.66,227,0,0,0,0,0,0,0,212,1339,1863,2747,2483,43,3155,3607,8.526,8.191,0.52,-4.104,-0.019,-5.937,1.556,-3.572,9.349,-0.095,0.155,0.03,angry
5.67,165,0,0,0,0,0,0,0,263,1209,1855,2841,2360,46,3117,3627,5.136,5.926,6.076,-1.028,-0.948,-4.921,1.379,-3.472,9.39,-0.084,0.139,0.039,angry
5.68,147,0,0,0,0,0,0,38,245,1255,1855,2871,2335,43,3160,3644,2.89,4.824,8.942,0.345,-1.327,-3.086,1.523,-3.4,9.321,-0.107,0.131,0.05,angry
5.69,66,0,0,0,0,0,0,35,219,1257,1868,2975,2231,44,3101,3565,3.069,3.103,9.67,0.326,-1.524,-2.758,1.413,-3.67,9.409,-0.093,0.19,0.074,angry
5.7,0,0,0,0,0,0,0,11,217,1183,1850,3077,2194,44,3036,3679,4.228,2.028,10.242,-0.412,-1.062,-3.049,1.429,-3.752,9.397,0.001,0.181,0.018,angry
5.71,39,0,0,0,0,0,0,62,145,1081,1852,3103,2065,35,3048,3695,5.004,0.527,10.345,-1.399,-0.095,-3.679,1.42,-3.725,9.479,0.054,0.187,0.003,angry
5.72,0,0,0,0,0,0,0,57,191,895,1852,3130,1821,39,3029,3711,5.789,1.235,10.168,-1.923,0.067,-3.928,1.307,-3.615,9.462,0.145,0.211,0.002,angry
5.73,0,0,0,0,0,0,0,0,101,699,1819,3161,1619,27,2979,3743,6.079,1.851,9.859,-2.029,-0.164,-3.835,1.216,-3.378,9.397,0.076,0.224,0.033,angry
5.74,0,0,0,0,0,0,0,0,45,534,1957,3177,1644,8,2951,3763,5.964,2.363,9.421,-1.869,-0.641,-3.692,1.348,-3.433,9.404,0.042,0.234,0.067,angry
5.75,0,0,0,0,0,0,0,0,7,662,1822,3197,1497,5,2911,3839,5.976,2.911,8.803,-1.687,-1.09,-3.536,1.269,-3.433,9.366,0.001,0.235,0.087,angry
5.76,0,0,0,0,0,0,0,0,2,654,1794,3247,1395,4,2877,3784,6.115,3.237,7.57,-1.558,-1.165,-3.373,1.302,-3.191,9.361,-0.027,0.242,0.099,angry
5.77,4,0,0,0,0,0,0,0,6,599,1709,3272,1175,3,2773,3832,6.345,3.891,8.212,-1.594,-1.34,-3.36,1.257,-3.503,9.333,-0.072,0.21,0.072,angry
5.78,18,0,0,0,0,0,0,0,3,645,1666,3295,969,5,2702,3804,6.718,4.683,7.001,-1.761,-1.377,-3.421,1.336,-3.682,9.428,-0.068,0.205,0.054,angry
5.79,0,0,0,0,0,0,0,0,5,565,1773,3287,729,2,2600,3807,6.864,4.355,6.606,-1.912,-1.137,-3.564,1.204,-3.563,9.34,-0.085,0.213,0.05,angry
5.8,0,0,0,0,0,0,0,0,3,502,1609,3337,495,0,2568,3805,7.262,4.262,6.043,-1.948,-0.96,-3.59,1.058,-3.723,9.553,-0.054,0.214,0.054,angry
5.81,0,0,0,0,0,0,0,0,1,521,1661,3349,413,1,2584,3813,8.389,4.583,5.459,-1.76,-0.907,-3.495,1.08,-3.752,9.603,-0.035,0.191,0.041,angry
5.82,0,0,0,0,0,0,0,38,0,488,1553,3352,307,2,2619,3819,9.024,3.814,4.405,-1.792,-0.602,-3.216,1.161,-3.847,9.543,-0.046,0.17,0.01,angry
5.83,0,0,0,0,0,0,0,695,1,405,1525,3355,453,1,2484,3827,13.06,6.349,2.002,-0.39,-0.876,-2.949,1.087,-3.749,9.419,-0.005,0.14,0.011,angry
5.84,0,0,0,0,0,0,0,1318,0,140,1415,3343,371,1,2387,3833,14.624,3.273,8.31,-0.545,-0.787,-2.438,1.109,-3.783,9.5,0.049,0.173,0.017,angry
5.85,0,0,0,0,0,0,0,2032,2,149,977,3335,123,3,2223,3846,19.613,1.022,7.446,1.684,-1.577,-0.329,1.463,-3.833,9.45,0.111,0.208,0.03,angry
5.86,0,325,0,0,0,0,139,2278,0,209,557,3307,0,0,2009,3831,5.406,0.8,4.372,-2.14,1.913,-0.865,1.434,-3.958,9.716,0.159,0.237,0.021,angry
5.87,0,931,0,0,219,0,528,2550,0,28,238,3272,0,0,2015,3810,-1.317,5.272,18.701,0.548,-0.63,0.212,1.211,-3.551,9.586,0.255,0.329,0.038,angry
5.88,37,1763,0,0,946,0,1168,3005,0,87,99,3212,0,1,1711,3773,3.086,4.061,9.357,0.361,-0.157,0.531,1.444,-4.044,9.747,0.345,0.404,0.075,angry
5.89,47,2259,437,0,1408,0,1671,3056,0,0,0,2601,0,0,1139,3644,5.49,2.739,7.772,-0.029,0.337,0.379,1.741,-4.518,10.139,0.881,0.766,0.084,angry
5.9,91,2480,1269,359,1872,0,2421,3242,0,0,20,1566,0,0,347,2997,3.809,2.617,9.043,0.109,0.037,0.208,7.08,-6.859,10.597,1.66,1.971,0.098,angry
5.91,80,2886,1921,745,2448,0,2725,3547,0,1,0,1227,0,0,264,2449,3.546,2.598,9.108,-0.112,0.138,0.009,13.987,-8.641,14.739,2.12,2.95,-0.369,angry
5.92,131,3062,2299,1023,2736,0,2975,3610,0,0,25,589,0,0,0,1401,3.302,3.031,8.633,-0.218,0.164,-0.02,19.613,-9.249,3.259,0.739,3.586,-6.596,angry
5.93,178,3203,2480,1211,2903,0,3067,3642,5,0,0,73,0,0,0,277,3.321,2.677,9,0.189,0.004,-0.087,5.806,-16.35,1.465,-0.748,4.047,-8.228,angry
5.94,232,3267,2667,1449,2984,0,3123,3639,0,0,61,47,0,0,0,233,3.304,2.662,9.469,0.019,0.006,-0.062,0.017,-13.568,9.165,-0.973,2.246,-7.636,angry
5.95,268,3264,2679,1465,3036,0,3120,3536,0,0,0,73,0,0,0,234,3.333,2.612,9.203,-0.042,-0.013,-0.018,1.243,-6.876,8.878,-1.746,1.629,-6.061,angry
5.96,282,3149,2771,1331,3139,0,3150,3419,0,0,102,78,0,0,0,151,2.998,2.605,9.237,-0.087,-0.042,-0.017,2.526,-1.425,12.467,-0.993,0.554,-3.977,angry
5.97,197,3136,2709,989,2995,0,3071,3387,0,0,0,91,0,0,0,109,3.436,2.655,9.098,0.043,-0.137,-0.014,4.015,0.857,12.732,-0.597,0.618,-3.153,angry
5.98,84,3135,2613,768,2989,0,2878,3351,0,0,0,121,0,0,0,75,3.443,2.363,8.787,0.048,-0.08,-0.061,7.326,2.401,12.967,0.331,0.115,-2.337,angry
5.99,94,3184,2736,688,3167,0,3010,3339,0,0,0,59,0,0,0,0,3.472,2.401,9.139,0.009,-0.057,-0.156,8.456,0.939,10.721,1.114,-0.334,-2.458,angry
6,67,3383,2723,627,3248,0,2874,3507,0,0,0,0,0,0,0,25,3.498,2.478,9.014,-0.005,-0.049,-0.15,7.863,-0.613,10.508,1.259,-0.82,-2.72,angry
6.01,50,3385,2750,587,3282,0,2867,3443,0,0,0,0,0,0,0,8,3.455,2.246,8.813,0.003,0.003,-0.233,6.663,-2.318,11.011,1.342,-1.166,-3.066,angry
6.02,113,3415,2617,699,3294,0,2697,3389,0,0,140,0,0,0,0,0,3.397,2.358,8.77,0.015,0.033,-0.25,5.586,-4.01,11.207,1.403,-1.338,-3.273,angry
6.03,151,3510,2947,1057,3365,0,2693,3203,0,0,43,0,0,0,0,0,3.517,2.507,8.861,0.023,0.045,-0.325,2.471,-3.953,8.131,1.066,-0.762,-3.215,angry
6.04,364,3438,3125,1442,3363,0,2620,2729,0,0,0,0,0,0,0,0,3.531,2.377,8.873,0.082,0.081,-0.43,1.642,-6.936,12.735,0.833,-0.007,-2.807,angry
6.05,744,3726,3270,1826,3498,0,2495,2765,0,0,0,0,0,0,0,0,3.45,3.706,9.819,0.02,0.06,-0.37,0.266,-8.614,14.753,1.161,0.156,-2.596,angry
6.06,998,3751,3335,1967,3525,0,2384,2581,0,0,25,0,0,0,0,0,3.213,2.473,8.926,0.052,0.114,-0.34,-1.36,-8.854,15.457,1.343,-0.537,-2.539,angry
6.07,1567,3810,3437,2145,3545,0,2128,2160,0,0,0,0,0,0,0,0,3.036,2.677,9.412,0.11,-0.003,-0.309,-0.005,-10.458,12.586,1.805,-2.083,-2.639,angry
6.08,2064,3655,3531,2249,3383,0,1585,568,0,0,0,0,0,0,0,0,3.342,3.203,9.354,0.325,0.007,-0.346,-2.105,-11.368,8.648,1.735,-1.583,-2.56,angry
6.09,2406,3879,3575,2479,2891,0,450,0,2,0,0,0,0,0,0,0,3.165,2.741,9.096,0.33,-0.062,-0.42,-3.953,-12.419,6.249,1.525,-1.347,-2.281,angry
6.1,2595,3897,3614,2559,2591,0,462,0,0,0,120,0,0,0,0,0,3.357,0.898,8.538,0.746,-0.079,-0.397,-4.626,-13.671,3.747,1.174,-0.994,-1.944,angry
6.11,2820,3911,3667,2666,2207,0,528,0,0,0,0,0,0,0,0,0,3.17,2.346,8.566,0.934,-0.1,-0.027,-5.358,-16.498,2.107,0.389,-0.897,-1.677,angry
6.12,2983,3927,3685,2705,1823,0,396,0,0,0,0,0,0,0,0,0,2.835,3.16,8.985,1.236,-0.22,0.027,-2.933,-16.178,-0.081,-0.262,-0.761,-1.935,angry
6.13,3199,3765,3711,2608,1277,0,121,0,0,0,130,0,0,0,0,0,3.606,2.658,9.134,1.745,-0.412,0.034,-5.885,-16.982,-11.942,-3.371,1.545,-2.124,angry
6.14,3368,3917,3696,2670,1120,0,0,0,0,0,0,9,0,0,0,159,3.73,2.081,9.227,2.593,-0.649,0.073,0.496,-8.521,19.613,-2.474,1.903,-2.119,angry
6.15,3445,3857,3664,2542,943,0,0,0,0,0,0,1,0,0,0,1263,3.335,2.488,8.698,3.35,-0.702,0.285,-11.401,15.344,16.812,-2.475,1.057,-0.497,angry
6.16,3481,3856,3600,2334,678,0,0,0,0,0,0,0,0,3,25,2204,5.169,1.781,10.048,4.563,-1.537,0.335,-19.613,2.478,10.539,-4.089,0.884,1.225,angry
6.17,3513,3579,3435,1813,431,0,0,0,0,0,0,0,0,7,271,2964,3.953,3.134,9.783,5.059,-1.694,-0.08,-0.39,-17.267,19.613,-3.435,0.633,1.346,angry
6.18,3456,2949,2642,1003,0,0,0,0,0,0,0,0,0,0,1989,3595,6.366,6.761,15.289,6.387,-0.803,-1.342,2.253,-3.821,11.926,-2.475,0.636,0.727,angry
6.19,3261,2640,1584,190,0,0,0,0,0,0,0,0,0,0,2427,3687,5.49,6.917,12.828,6.696,-1.065,-2.219,3.68,-12.775,9.28,-1.719,1.808,1.037,angry
6.2,2695,2102,0,0,0,0,0,0,0,0,2,0,281,0,2829,3747,6.483,5.344,19.168,6.754,-1.435,-3.294,-1.48,-4.063,12.878,-1.107,2.536,1.243,angry
6.21,1966,1117,0,0,0,0,0,0,0,0,2,5,581,0,2799,3670,8.504,10.226,19.613,6.909,-1.679,-4.434,-1.377,-5.006,16.247,-1.128,1.845,1.241,angry
6.22,1059,316,0,0,0,0,0,239,0,228,7,1099,520,2,2916,3837,6.072,19.613,19.613,6.177,-0.619,-4.409,0.292,-4.87,11.224,-0.898,1.367,0.911,angry
6.23,0,0,0,0,0,0,0,245,25,555,926,2507,723,83,2995,3881,17.049,-10.944,19.613,-1.029,-2.412,-4.364,1.82,-5.267,11.317,-0.672,0.184,0.363,angry
6.24,0,178,0,0,0,0,0,232,45,747,752,2789,630,487,3021,3889,9.445,-7.377,1.985,-1.339,2.836,-2.141,0.86,-4.755,10.288,-0.357,0.086,0.203,angry
6.25,0,64,0,0,0,0,0,176,85,457,611,3091,686,526,3062,3804,9.864,-6.115,11.617,-2.119,-0.173,-0.848,1.302,-3.78,9.38,-0.102,0.199,0.072,angry
6.26,0,0,0,0,0,0,0,112,33,549,1568,3245,535,5,2877,3693,6.4,-1.587,14.099,-2.46,-0.14,1.571,1.235,-3.838,9.409,-0.039,0.126,0.022,angry
6.27,0,0,0,0,0,0,0,134,48,583,1737,3285,521,39,2665,3695,0.065,-1.24,9.893,-3.991,-1.475,2.086,1.255,-3.926,9.601,0.017,0.134,0.033,angry
6.28,0,0,0,0,0,0,0,105,56,541,1817,3325,395,28,2457,3625,-0.239,1.037,10.027,-5.003,-1.683,1.354,1.226,-3.9,9.541,0.06,0.156,0.033,angry
6.29,0,0,0,0,0,0,0,80,160,467,1852,3349,232,30,1565,3463,0.479,3.055,10.12,-4.387,-1.492,1.822,1.094,-3.771,9.366,0.087,0.087,0.01,angry
6.3,0,0,0,0,0,0,0,68,173,507,1906,3372,172,25,1415,3385,2.349,4.211,11.581,-4.603,-1.055,1.516,1.159,-3.836,9.419,0.141,0.105,0.013,angry
6.31,0,0,0,0,0,0,0,65,349,585,1991,3379,97,25,1229,3289,5.267,5.502,10.989,-5.072,-0.416,1.491,1.161,-3.773,9.347,0.185,0.117,0.019,angry
6.32,0,0,0,0,0,0,0,48,315,510,2034,3433,93,27,1149,3197,6.855,6.189,10.575,-5.355,0.186,1.734,1.082,-3.749,9.29,0.147,0.108,0.001,angry
6.33,0,0,0,0,0,0,0,32,366,649,2070,3454,135,11,968,3091,7.638,6.864,11.768,-5.411,0.422,2.183,1.049,-3.639,9.38,0.116,0.071,-0.002,angry
6.34,0,0,0,0,0,0,0,32,594,677,2106,3497,201,43,831,2953,6.491,8.157,15.457,-5.451,0.397,2.569,0.917,-3.608,9.347,0.06,0.039,0.002,angry
6.35,0,0,0,0,0,0,0,16,885,829,2098,3557,283,47,924,2853,6.06,10.393,18.189,-5.198,-0.142,2.887,1.013,-3.484,9.395,0.027,0.003,0.005,angry
6.36,0,0,0,0,0,0,0,0,1134,969,2106,3568,501,47,685,2727,7.362,13.594,19.613,-4.893,-0.284,3.124,1.073,-3.493,9.388,-0.027,0.006,-0.002,angry
6.37,0,0,0,0,0,0,0,0,1640,1061,2152,3677,823,47,401,2093,6.275,19.613,19.613,-4.743,0.42,3.053,1.065,-3.646,9.373,-0.175,-0.111,-0.01,angry
6.38,0,0,0,0,0,0,0,0,2053,1179,2188,3661,1081,50,559,1707,4.29,19.613,9.055,-4.137,0.583,2.6,1.176,-3.12,9.076,-0.25,-0.177,-0.046,angry
6.39,15,0,0,0,0,0,0,0,2487,1893,2203,3783,1559,43,198,948,-3.376,19.613,-3.785,0.661,0.773,3.058,0.314,-3.505,9.467,-0.278,-0.337,-0.068,angry
6.4,46,0,0,0,0,0,0,0,2997,2343,2224,3829,1487,12,0,222,-3.132,19.613,-7.889,0.523,-0.898,0.698,1.425,-1.753,9.383,-0.518,0.083,-0.068,angry
6.41,28,0,0,0,0,0,0,626,3213,2463,2231,3853,1005,5,2,187,-0.268,19.613,-15.34,1.84,-0.159,-2.037,1.707,-4.164,9.809,-0.628,0.179,-0.09,angry
6.42,0,0,0,0,0,0,0,2064,3447,2439,2236,3910,266,0,3,77,13.266,-11.334,19.613,0.213,-0.009,-2.203,0.874,-2.911,9.821,-1.288,0.321,-0.248,angry
6.43,0,0,0,0,0,0,799,2995,3693,2086,2265,3929,0,4,0,0,-8.586,14.157,-0.534,4.455,4.038,-3.271,1.434,-1.992,9.893,-2.616,0.578,-0.345,angry
6.44,0,0,0,0,0,0,1391,3185,3747,1630,2331,3923,0,0,0,0,-3.275,6.1,19.613,6.917,0.226,-1.89,3.735,-3.069,10.388,-3.429,0.892,-0.432,angry
6.45,0,801,0,0,1247,0,2351,3503,3769,1203,2349,3876,0,0,0,1,19.613,15.864,19.613,5.334,-1.486,-0.222,5.279,-2.931,11.928,-4.268,1.14,-0.423,angry
6.46,227,2446,0,0,2326,0,2624,3603,3637,84,2234,3359,0,0,0,0,-1.018,6.194,19.613,1.457,1.127,-0.302,2.753,-3.68,17.363,-6.222,1.83,0.915,angry
6.47,657,2849,1342,109,2523,0,2861,3408,1782,104,33,2389,0,0,0,0,5.14,3.79,12.625,2.22,-0.478,-0.2,2.928,-8.724,19.613,-7.797,0.343,3.795,angry
6.48,903,3265,2326,625,2841,0,2993,3669,1384,0,0,1365,0,0,0,0,2.576,3.115,10.379,0.052,0.124,-0.106,2.351,-5.54,18.536,-7.929,0.117,4.873,angry
6.49,1008,3353,2627,849,2989,0,3070,3665,0,0,0,0,0,0,0,0,3.644,3.031,8.686,0.165,0.033,-0.078,6.06,-2.346,19.613,-1.035,-1.438,5.664,angry
6.5,1135,3467,2813,1216,3139,0,3091,3669,0,0,0,0,0,0,0,0,3.436,2.686,9.907,0.115,0.04,-0.141,16.051,3.747,8.813,1.796,0.184,2.549,angry
6.51,1127,3300,2926,1392,3055,0,3057,3409,0,0,0,0,0,0,47,0,3.103,2.732,9.857,0.079,0.024,-0.112,10.491,3.639,11.542,2.027,-0.661,1.122,angry
6.52,1170,3541,3035,1591,3263,0,2931,3446,46,0,0,7,0,0,0,0,3.038,2.729,9.143,-0.025,0.005,-0.099,12.096,2.593,10.01,2.445,-1.699,-0.265,angry
6.53,1237,3616,3159,1649,3311,0,2782,3363,0,0,0,0,0,0,45,0,3.292,2.444,9.067,0.21,0.027,-0.066,3.986,1.374,9.732,3.277,-1.713,-1.954,angry
6.54,1286,3491,3243,1713,3227,0,2602,2851,0,0,0,0,0,0,0,0,3.249,2.794,9.043,0.078,-0.013,-0.111,-2.775,-0.187,9.21,3.892,-2.55,-1.639,angry
6.55,1289,3474,3085,1666,3111,0,2129,2425,0,0,0,0,0,0,0,0,3.079,2.933,9.282,0.084,0.011,-0.131,-2.461,-1.709,10.29,4.207,-2.295,-1.152,angry
6.56,1481,3725,3345,1910,3311,0,1994,2228,0,0,7,0,0,0,0,0,3.031,2.899,9.062,0.116,0.031,-0.171,-0.927,-3.855,11.234,4.694,-2.392,-0.918,angry
6.57,1481,3573,3412,1984,3319,0,1709,1751,0,0,0,0,0,0,0,0,3.067,2.897,9.246,0.066,0.078,-0.176,-0.045,-5.799,13.542,4.807,-2.503,-1.415,angry
6.58,1626,3797,3466,2107,3327,0,1335,1388,0,0,0,0,0,0,0,0,3.158,2.981,8.914,0.072,0.046,-0.155,-0.464,-6.218,15.416,4.862,-2.496,-1.679,angry
6.59,1827,3823,3531,2384,3317,0,1216,717,0,0,0,0,0,0,0,47,2.813,3.048,8.971,0.021,0.115,-0.204,-1.932,-7.98,19.613,5.243,-2.363,-1.773,angry
6.6,2137,3786,3575,2365,3170,0,880,0,0,0,0,0,0,0,0,0,2.931,2.887,9.129,0.09,0.116,-0.197,-2.995,-13.647,19.613,5.507,-1.553,-1.366,angry
6.61,2369,3683,3632,2666,2902,0,566,0,0,0,74,1,0,0,0,0,3.014,3.024,9.201,0.194,0.14,-0.166,-6.948,-17.767,19.613,5.201,-1.75,-1.224,angry
6.62,2645,3906,3685,2893,2593,0,151,0,0,0,0,0,0,0,0,0,3.182,2.198,9.11,0.351,0.033,-0.21,-5.497,-19.613,12.744,4.533,-1.446,-1.097,angry
6.63,2819,3919,3712,2999,2384,0,130,0,0,0,0,0,0,0,0,0,2.715,3.68,9.278,0.727,0.093,-0.005,-9.591,-19.613,1.942,3.406,-1.178,-1.219,angry
6.64,2974,3934,3728,3093,2112,0,103,0,0,0,0,0,0,0,0,0,2.832,3.27,9.05,1.067,0.075,0.054,-14.471,-19.613,-4.879,2.085,-1.096,-1.104,angry
6.65,3098,3935,3753,3174,1853,0,0,0,0,0,0,0,0,0,0,0,3,2.844,8.432,1.448,-0.005,0.18,-14.327,-19.613,-6.096,0.922,-0.339,-1.155,angry
6.66,3229,3940,3767,3232,1376,0,0,0,0,0,84,0,0,0,0,0,3.194,2.701,9.246,1.682,-0.02,0.157,-14.061,-19.613,-5.753,-0.226,1.099,-1.042,angry
6.67,3350,3931,3778,3295,871,0,0,0,0,0,115,0,0,0,0,0,3.888,1.755,9.718,2.123,-0.334,0.173,-16.254,-19.613,-12.85,-1.745,2.21,-0.331,angry
6.68,3533,3843,3768,3345,11,0,0,0,0,0,0,0,0,0,0,653,4.104,2.746,8.454,3.865,-0.601,0.35,-0.699,18.529,19.613,-1.981,-0.078,1.072,angry
6.69,3609,3504,3741,3329,0,0,0,0,0,11,0,0,0,0,0,2015,3.397,0.9,9.984,4.522,-0.143,0.078,5.562,-0.024,-2.037,-3.741,0.323,0.672,angry
6.7,3655,3404,3606,3197,0,0,0,0,0,0,0,0,0,0,0,2758,8.373,2.028,10.968,5.236,-0.505,-0.141,-8.55,-13.894,19.613,-3.536,-0.331,0.156,angry
6.71,3632,3207,3033,2760,0,0,0,0,0,0,0,5,0,0,429,3451,8.928,6.685,15.505,5.941,-0.393,-1.058,-5.035,-3.867,15.512,-3.143,-0.587,-0.137,angry
6.72,3607,2358,2034,1858,0,0,0,0,0,0,0,0,0,0,1812,3771,6.385,6.428,19.613,6.596,0.002,-3.995,3.795,-5.057,9.388,-2.64,-0.58,0.048,angry
6.73,2864,1929,777,1178,0,0,0,0,0,0,0,0,0,0,2441,3867,9.538,8.353,15.174,7.033,-0.473,-5.191,0.984,-13.25,19.613,-2.191,-0.063,0.072,angry
6.74,1148,474,0,0,0,0,0,0,0,270,0,0,282,0,2796,3927,10.769,12.562,13.91,7.229,1.06,-5.975,1.219,-1.93,11.332,-1.464,0.538,0.252,angry
6.75,0,143,0,0,0,0,0,242,0,107,0,4,591,0,2923,3960,11.77,14.234,19.613,0.138,2.098,-4.929,1.453,-4.31,11.372,-1.337,0.31,0.208,angry
6.76,0,0,0,0,0,0,0,255,24,157,7,485,857,0,3075,3982,17.569,3.496,19.613,1.693,-1.413,-2.499,1.07,-3.531,11.423,-1.089,0.11,0.126,angry
6.77,0,93,0,0,0,0,0,129,0,280,7,925,1349,0,3172,3991,19.613,-7.192,19.613,-1.014,0.027,-0.937,1.755,-3.725,10.52,-0.568,0.158,0.199,angry
6.78,0,0,0,0,0,0,0,154,0,277,7,1211,1572,0,3260,3987,14.715,-5.052,4.094,-2.575,2.305,0.418,1.293,-2.54,9.728,-0.195,0.189,0.192,angry
6.79,0,0,0,0,0,0,0,130,0,185,0,1459,1807,0,3303,3963,5.866,-5.818,7.417,-2.223,1.705,1.508,1.982,-3.306,9.833,-0.138,0.188,0.191,angry
6.8,0,0,0,0,0,0,0,156,1,249,404,1693,1974,2,3301,3900,7.487,-0.297,9.05,-2.72,0.125,1.978,1.963,-3.048,9.613,-0.06,0.303,0.199,angry
6.81,0,0,0,0,0,0,0,177,2,201,1138,1876,2044,3,3241,3867,6.354,-1.221,12.131,-2.876,-0.655,2.744,2.279,-2.545,8.966,-0.133,0.364,0.194,angry
6.82,0,0,0,0,0,0,0,186,3,348,1653,2251,2073,5,2961,3725,2.219,0.117,8.727,-3.35,-1.224,3.334,1.781,-2.753,9.371,-0.306,0.404,0.243,angry
6.83,0,0,0,0,0,0,0,116,3,288,1758,2461,1978,4,2741,3637,0.814,2.097,9.337,-4.331,-0.512,3.06,1.678,-2.873,9.491,-0.314,0.418,0.28,angry
6.84,0,0,0,0,0,0,0,144,12,316,1840,2590,1779,17,2467,3541,1.101,2.921,9.05,-4.553,-1.274,2.9,1.494,-3.27,9.867,-0.286,0.338,0.275,angry
6.85,0,0,0,0,0,0,0,64,7,549,1924,2839,1531,6,2215,3230,2.753,5.341,10.795,-4.579,-1.305,2.353,1.58,-3.031,9.476,-0.348,0.185,0.344,angry
6.86,0,0,0,0,0,0,0,75,31,681,1952,2957,1447,10,1951,2984,4.322,6.845,12.596,-4.949,-0.967,2.206,1.128,-2.72,9.22,-0.406,0.122,0.38,angry
6.87,0,0,0,0,0,0,0,128,137,853,2270,3101,1479,31,1919,2743,5.737,9.136,14.521,-6.011,0.21,2.244,1.118,-3.321,9.783,-0.438,0.044,0.365,angry
6.88,0,0,0,0,0,0,0,95,869,1079,2085,3282,1780,48,1517,2454,8.313,10.484,15.953,-5.687,-0.312,2.633,1.384,-3.168,9.483,-0.305,-0.031,0.094,angry
6.89,0,0,0,0,0,0,0,0,1400,1251,2147,3388,2073,48,1035,2123,7.796,12.926,19.472,-5.469,-0.313,2.956,1.245,-3.369,9.536,-0.366,-0.074,0.024,angry
6.9,0,0,0,0,0,0,0,0,1699,1580,2162,3429,2196,43,553,1723,8.684,19.613,19.613,-4.809,-1.079,3.122,1.544,-3.34,9.299,-0.358,-0.006,0.023,angry
6.91,9,0,0,0,0,0,0,0,2279,2103,2183,3542,2300,48,263,1112,4.918,19.613,6.524,-3.682,-0.615,3.433,1.006,-4.015,9.318,-0.256,-0.051,0.078,angry
6.92,115,0,0,0,0,0,0,0,2700,2441,2236,3663,2027,3,0,398,-6.014,19.613,-6.697,-1.905,1.659,3.062,1.468,-3.522,9.457,-0.374,0.172,0.114,angry
6.93,186,0,0,0,0,0,0,0,2871,2420,2221,3725,1547,5,3,355,-2.957,19.613,-11.181,-0.302,0.137,1.302,1.405,-3.431,9.864,-0.831,0.375,-0.115,angry
6.94,143,0,0,0,0,0,0,0,3276,2365,2106,3833,533,4,4,172,2.219,19.613,0.163,1.099,-3.141,-1.42,1.58,-4.963,9.189,-0.701,0.266,-0.192,angry
6.95,139,0,0,0,0,0,0,623,3423,2329,2242,3880,455,5,45,139,9.761,11.892,0.189,3.192,-0.581,-1.047,2.191,-3.438,10.166,-1.077,0.285,-0.172,angry
6.96,73,0,0,0,0,0,217,2448,3657,1898,2203,3917,120,9,0,181,-9.78,-18.804,6.871,3.522,1.202,-0.993,1.899,-1.901,9.828,-2.859,0.626,-0.307,angry
6.97,0,0,0,0,0,0,1423,3473,3731,1429,2316,3929,0,1,0,108,-9.596,17.617,19.613,2.909,-0.222,-2.576,3.934,-1.575,10.726,-3.906,0.786,-0.262,angry
6.98,0,563,0,0,1452,0,2653,3637,3723,565,2398,3733,0,0,0,0,19.613,2.591,19.613,4.387,-1.713,-2.442,5.14,-2.729,14.502,-5.905,1.971,0.284,angry
6.99,162,2096,0,0,2432,0,2895,3442,3179,9,5,3133,0,0,0,0,-2.655,3.912,18.086,4.021,0.941,-0.257,1.432,-13.372,19.613,-8.288,0.216,2.554,angry
7,658,3011,1318,0,2806,0,2999,3711,1493,47,7,2204,0,0,0,0,0.826,2.569,11.128,0.598,0.362,-1.242,5.416,-6.943,19.613,-8.219,-0.241,3.933,angry
7.01,1117,3299,2624,929,3022,0,3065,3690,0,0,0,457,0,0,0,0,2.267,2.837,10.223,0.619,0.534,-0.512,1.573,-8.353,19.613,-2.898,0.974,4.853,angry
7.02,1554,3467,2998,1615,3099,0,3086,3665,0,0,0,344,0,0,0,0,3.366,4.353,10.721,0.34,0.166,-0.122,17.047,9.371,19.613,1.979,-0.097,4.098,angry
7.03,1915,3534,3168,2172,3086,0,2959,3565,0,0,0,136,0,0,0,0,3.153,3.407,9.127,0.335,0.048,-0.05,17.308,3.728,7.096,2.339,0.056,2.04,angry
7.04,2178,3579,3283,2375,3030,0,2717,3382,0,0,7,119,0,1,0,0,3.613,3.546,8.868,0.182,0.198,-0.073,10.628,1.697,9.651,3.341,-1.491,-1.239,angry
7.05,2380,3403,3344,2416,2797,0,2332,2777,0,0,0,163,22,0,0,9,3.342,3.124,8.985,0.183,0.138,-0.088,-4.111,1.386,9.244,4.169,-2.132,-1.686,angry
7.06,2538,3625,3381,2509,2617,0,1839,2507,0,0,0,69,0,0,0,0,3.213,3.144,9.031,0.16,0.098,-0.09,-5.274,0.048,10.862,5.017,-2.122,-0.803,angry
7.07,2628,3637,3429,2579,2226,0,1121,2370,0,0,0,0,0,0,0,0,3.23,3.361,8.899,0.08,0.09,-0.065,-4.135,-2.028,10.563,4.973,-1.797,0.145,angry
7.08,2702,3456,3458,2610,2052,0,673,1831,0,0,0,0,0,0,0,0,3.16,3.105,8.954,0.178,0.093,-0.076,0.785,-4.65,12.079,5.219,-2.098,-0.185,angry
7.09,2800,3659,3501,2815,1888,0,283,1619,0,0,0,3,0,0,0,0,3.108,3.11,8.969,0.133,0.127,-0.136,0.572,-5.473,14.011,5.309,-2.305,-0.831,angry
7.1,2870,3689,3531,2939,1806,0,108,1013,0,11,0,0,0,0,0,0,3.223,3.115,8.887,0.128,0.146,-0.14,-2.952,-6.005,18.194,5.438,-2.564,-1.483,angry
7.11,3038,3519,3574,2973,1811,0,0,425,0,0,0,0,0,0,0,0,3.045,3.127,9.045,0.123,0.135,-0.162,-3.931,-10.937,19.613,5.659,-2.451,-1.043,angry
7.12,3123,3550,3607,2987,1917,0,0,0,0,1,0,29,0,0,0,0,3.021,3.443,9.203,0.148,0.12,-0.17,-5.44,-14.257,19.613,5.665,-2.574,-1.124,angry
7.13,3200,3555,3633,3139,1808,0,0,0,0,0,0,0,0,0,0,0,2.983,3.498,9.1,0.187,0.08,-0.158,-4.597,-17.518,17.25,5.271,-2.424,-1.122,angry
7.14,3309,3561,3664,3205,1597,0,0,0,0,0,0,0,0,0,0,0,2.804,3.783,10.364,0.233,-0.134,0.116,-4.448,-19.613,9.843,4.377,-1.773,-1.134,angry
7.15,3312,3514,3600,3234,1429,0,0,0,0,0,0,0,0,0,0,0,3,2.643,9,0.473,0.001,0.008,-8.622,-19.613,4.094,3.164,-1.401,-1.184,angry
7.16,3476,3559,3703,3321,1399,0,0,0,0,0,0,0,0,0,0,0,2.995,3.048,9.139,0.677,-0.001,0.075,-11.442,-19.613,0.096,1.981,-1.311,-1.041,angry
7.17,3550,3577,3723,3353,1106,0,0,0,0,0,0,0,0,0,0,0,3.302,3.026,8.756,0.834,-0.051,0.169,-11.317,-19.613,-1.283,0.781,-1.001,-1.049,angry
7.18,3632,3551,3728,3392,767,0,0,0,0,25,0,0,0,0,0,0,3.294,2.964,8.837,1.131,-0.154,0.234,-11.085,-19.613,0.163,-0.063,-0.293,-1.09,angry
7.19,3674,3503,3744,3386,273,0,0,0,0,0,12,0,0,0,0,0,3.737,2.322,8.337,1.596,-0.308,0.283,-11.272,-19.613,-8.471,-1.905,0.818,-0.432,angry
7.2,3712,3379,3743,3466,0,0,0,0,0,0,0,17,0,0,0,0,3.907,2.533,9.562,1.906,-0.453,0.187,-5.526,-18.835,4.068,-2.509,2.098,0.339,angry
7.21,3741,3409,3731,3483,0,0,0,0,0,0,23,0,0,0,0,539,4.693,2.265,7.276,2.537,-0.319,0.141,2.765,14.741,19.613,-1.56,1.02,0.686,angry
7.22,3732,3386,3580,3461,0,0,0,0,0,0,0,0,0,0,0,1895,4.841,2.26,8.538,3.388,-0.221,0.11,2.749,6.258,2.401,-5.015,-0.675,0.436,angry
7.23,3782,3248,3443,3446,0,0,0,0,0,0,0,0,0,1,0,2763,4.436,4.635,8.143,4.125,-0.074,-0.07,-1.616,-13.748,19.613,-4.826,-0.846,-0.151,angry
7.24,3798,3046,3130,3307,0,0,0,0,0,0,0,0,0,0,266,3301,4.681,6.342,9.661,5.332,-0.021,-0.501,-0.962,-6.122,17.526,-4.146,-0.568,-0.472,angry
7.25,3782,2839,2464,2397,0,0,0,0,0,0,0,0,0,0,776,3515,5.514,5.313,12.957,5.431,0.888,-2.515,2.265,-1.295,12.574,-3.095,0.026,0.435,angry
7.26,3727,2625,1892,2128,0,0,0,0,0,0,33,0,0,0,1453,3631,4.094,3.725,7.451,6.587,0.879,-4.404,4.949,-5.222,9.962,-2.976,-0.271,0.312,angry
7.27,3413,2067,1156,1422,0,0,0,0,0,8,0,0,0,0,1990,3721,5.684,3.373,18.512,6.889,-0.63,-5.321,0.024,-12.311,16.688,-3.148,2.396,0.408,angry
7.28,1225,510,0,59,0,0,0,0,0,213,0,612,245,0,2577,3831,7.197,3.105,15.682,5.599,0.995,-6.751,1.396,-6.007,13.812,-1.226,1.216,0.632,angry
7.29,439,38,0,0,0,0,0,369,0,74,2,1311,327,0,2760,3869,5.26,11.09,19.613,0.772,2.771,-5.757,0.591,-4.458,11.988,-0.962,0.917,0.54,angry
7.3,0,0,0,0,0,0,0,314,0,94,2,1912,427,0,2871,3891,18.996,1.506,19.613,-0.392,-1.597,-4.137,1.856,-2.626,10.013,-0.827,0.907,0.623,angry
7.31,0,0,0,0,0,0,0,239,0,187,161,2349,619,1,2851,3909,19.613,-7.195,19.24,-2.092,-1.066,-1.171,1.465,-3.247,9.993,-0.777,0.735,0.599,angry
7.32,0,0,0,0,0,0,0,159,2,286,1446,2760,533,2,2905,3932,8.456,-5.667,6.337,-2.083,1.629,1.358,1.76,-4.096,10.013,-0.532,0.335,0.528,angry
7.33,0,0,0,0,0,0,0,162,1,239,1755,2941,469,1,2877,3880,8.504,-4.353,8.399,-2.351,0.367,1.661,1.085,-4.068,10.008,-0.411,0.371,0.406,angry
7.34,0,0,0,0,0,0,0,183,20,295,1814,3093,343,11,2782,3852,9.558,1.86,9.436,-2.577,-0.418,2.78,1.281,-3.424,9.586,-0.295,0.34,0.351,angry
7.35,0,0,0,0,0,0,0,278,8,277,1863,3177,349,5,2633,3807,2.33,-0.402,15.354,-2.796,-2.653,2.846,1.178,-3.677,9.68,-0.196,0.312,0.272,angry
7.36,0,0,0,0,0,0,0,251,9,185,1891,3245,245,1,2399,3759,0.438,0.692,10.075,-2.616,-2.787,3.32,1.238,-3.373,9.634,-0.173,0.266,0.244,angry
7.37,0,0,0,0,0,0,0,167,51,232,1911,3309,107,3,1975,3711,-1.501,1.324,9.821,-3.612,-1.876,3.18,1.152,-3.543,9.67,-0.16,0.234,0.184,angry
7.38,0,0,0,0,0,0,0,115,244,348,1945,3371,20,8,1507,3655,-1.891,2.248,10.233,-3.954,-2.122,2.896,1.109,-3.531,9.665,-0.101,0.233,0.122,angry
7.39,0,0,0,0,0,0,0,178,204,395,1937,3406,45,11,1208,3593,0.486,4.108,12.39,-4.27,-1.587,2.02,1.08,-3.481,9.452,-0.107,0.218,0.101,angry
7.4,0,0,0,0,0,0,0,170,680,356,1799,3491,39,13,523,3427,2.284,7.288,13.594,-5.811,-0.835,1.364,1.058,-3.39,9.493,-0.127,0.128,0.043,angry
7.41,0,0,0,0,0,0,0,142,841,539,1942,3526,57,22,377,3338,4.063,9.337,14.099,-6.038,-0.857,1.378,1.006,-3.452,9.345,-0.161,0.073,0.024,angry
7.42,0,0,0,0,0,0,0,101,919,534,2024,3557,47,16,296,3166,6.325,10.08,14.976,-6.02,-0.897,1.409,1.106,-3.311,9.335,-0.16,0.012,0.01,angry
7.43,0,0,0,0,0,0,0,59,1326,902,2106,3630,158,31,181,2765,4.298,11.662,16.384,-5.684,-1.514,1.718,0.874,-3.596,9.357,-0.26,-0.083,-0.027,angry
7.44,0,0,0,0,0,0,0,11,1651,1084,2178,3669,226,31,115,2479,8.485,16.096,17.557,-4.644,-2.012,2.192,1.149,-3.335,9.483,-0.168,-0.02,-0.029,angry
7.45,0,0,0,0,0,0,0,0,2059,1286,2149,3845,431,18,75,1325,9.591,19.515,10.482,-3.489,-1.212,3.315,1.695,-3.903,9.316,-0.314,-0.045,0.031,angry
7.46,0,0,0,0,0,0,0,0,2581,1525,2167,3790,884,3,1,691,5.284,19.613,3.764,-1.831,0.041,4.306,1.056,-3.5,9.527,-0.403,-0.218,-0.001,angry
7.47,32,0,0,0,0,0,0,0,2769,1757,2180,3817,885,4,3,572,-6.788,19.613,1.894,-1.454,1.053,4.438,1.164,-4.027,9.263,-0.459,-0.118,-0.013,angry
7.48,32,0,0,0,0,0,0,0,3064,1935,2190,3832,579,0,3,398,-9.093,19.613,-1.525,1.694,1.239,6.118,1.259,-3.601,9.661,-0.531,0.015,-0.048,angry
7.49,19,0,0,0,0,0,0,0,3191,1976,1988,3885,296,4,4,226,-8.025,19.613,-8.253,-0.341,1.027,2.693,1.29,-3.663,9.515,-0.543,0.04,-0.08,angry
7.5,48,5,0,0,0,0,0,0,3371,1975,2272,3909,219,5,24,174,-4.487,19.613,2.282,1.486,-1.57,1.324,1.089,-3.677,9.349,-0.649,0.058,-0.129,angry
7.51,57,0,0,0,0,0,0,0,3534,2040,2203,3944,40,1,1,189,0.555,15.378,2.195,1.561,-3.965,-0.288,1.31,-3.776,9.445,-0.811,0.121,-0.159,angry
7.52,0,0,0,0,0,0,0,816,3673,2015,2203,3961,23,1,1,179,10.106,12.04,-0.062,2.844,-0.175,-1.007,1.425,-3.596,9.325,-1.194,0.112,-0.19,angry
7.53,0,0,0,0,0,0,64,2413,3775,1935,2224,3963,0,1,0,299,-0.069,-8.411,11.717,3.474,1.508,-0.21,1.31,-3.553,8.894,-1.761,0.204,-0.216,angry
7.54,0,0,0,0,0,0,719,3071,3924,1599,2352,3964,0,0,0,87,-15.493,8.138,19.613,4.283,1.16,-2.641,1.884,-2.734,9.656,-3.191,0.621,-0.361,angry
7.55,176,0,0,0,987,0,2195,3310,3951,1240,2321,3771,7,0,0,77,18.526,4.532,12.428,0.962,-2.294,0.207,4.712,-4.896,11.552,-4.438,1.646,-0.011,angry
7.56,335,1499,0,0,2181,0,2631,3583,3895,973,1916,3357,5,0,0,3,-4.403,3.594,15.172,1.483,2.227,-0.57,3.282,-3.069,12.409,-5.734,1.97,0.783,angry
7.57,780,2595,0,0,2682,0,2851,3650,3229,374,0,2732,0,0,0,17,4.93,4.918,16.668,1.855,1.06,-0.937,0.795,-13.604,19.613,-7.309,0.486,3.347,angry
7.58,1043,2947,1749,171,2825,0,2950,3457,1211,0,0,1303,0,0,0,0,3.484,3.539,8.792,0.663,0.505,-0.438,4.02,-11.724,15.062,-6.933,1.005,4.808,angry
7.59,1307,3326,2667,1011,3042,0,3002,3679,0,0,2,655,0,0,0,2,3.472,3.089,9.412,0.557,0.085,-0.191,-1.235,-8.399,19.613,-3.49,0.679,4.758,angry
7.6,1706,3443,2957,1628,3179,0,3036,3639,0,0,0,37,0,0,0,0,3.29,2.851,9.565,0.287,0.07,-0.08,19.541,-0.582,19.613,1.963,-0.434,3.563,angry
7.61,2015,3542,3143,1941,3264,0,3002,3555,0,0,0,77,0,0,0,0,3.402,3.172,9.28,0.189,0.044,-0.084,13.566,1.329,9.661,2.4,-0.49,-0.211,angry
7.62,2211,3626,3245,2125,3328,0,2807,3339,0,0,0,43,0,0,0,0,3.359,2.988,9.21,0.128,-0.015,-0.085,12.644,-0.742,10.664,2.9,-1.12,-1.847,angry
7.63,2341,3678,3328,2224,3344,0,2593,2948,0,0,0,61,0,0,0,0,3.654,2.959,8.997,0.096,0.006,-0.105,-1.688,0.172,8.147,4.001,-1.455,-2.755,angry
7.64,2477,3511,3385,2246,3202,0,2243,2329,0,3,5,56,12,0,0,0,3.503,3.033,9.038,0.18,0.019,-0.09,-4.132,-1.211,8.681,4.348,-1.596,-1.08,angry
7.65,2640,3721,3415,2386,3206,0,1833,2283,0,0,43,24,0,0,0,3,3.522,2.969,8.914,0.121,0.102,-0.112,-2.789,-3.067,10.144,4.548,-1.258,-0.391,angry
7.66,2768,3748,3472,2501,3070,0,1302,1997,2,0,0,0,0,0,0,0,3.275,2.938,8.964,0.131,0.13,-0.059,1.908,-4.503,10.683,4.8,-1.731,-0.613,angry
7.67,2909,3563,3515,2583,2810,0,932,1516,0,13,0,0,0,0,0,0,3.306,2.995,8.983,0.123,0.165,-0.075,0.972,-6.292,13.381,4.987,-2.192,-1.618,angry
7.68,3023,3774,3547,2799,2776,0,815,1132,0,0,89,0,0,0,0,0,3.146,3.081,8.926,0.053,0.165,-0.102,-1.111,-6.055,14.602,4.941,-2.403,-1.778,angry
7.69,3071,3753,3551,2896,2651,0,449,445,0,0,0,3,0,0,0,0,2.844,2.799,9.366,0.038,0.155,-0.097,-0.67,-8.988,19.357,5.046,-2.077,-1.204,angry
7.7,3268,3629,3649,2978,2579,0,90,0,0,0,17,0,25,0,0,0,3.22,2.995,8.95,0.098,0.109,-0.164,0.01,-15.907,19.613,4.718,-2.063,-1.384,angry
7.71,3337,3633,3677,3042,2422,0,64,0,0,0,0,0,16,0,0,0,3.306,2.61,8.985,0.234,0.053,-0.211,-1.877,-18.711,16.984,4.427,-2.682,-1.65,angry
7.72,3395,3653,3686,3085,2311,0,0,0,0,0,0,0,0,0,0,0,3.117,2.205,8.801,0.266,0.019,-0.108,-0.934,-19.613,8.344,3.496,-2.638,-1.854,angry
7.73,3473,3664,3728,3105,2175,0,0,0,0,0,0,0,0,0,0,0,2.713,2.871,8.988,0.409,0.007,-0.081,-3.345,-19.613,1.817,2.224,-2.436,-2.113,angry
7.74,3526,3724,3729,3087,2218,0,0,0,0,0,0,0,0,0,0,0,2.808,2.856,8.971,0.506,-0.022,-0.032,-6.953,-19.613,1.767,1.195,-2.372,-2.188,angry
7.75,3583,3678,3753,3184,1796,0,0,0,0,0,0,0,0,0,0,0,2.962,2.978,9.258,0.721,-0.045,0.048,-8.011,-19.613,1.518,0.776,-1.737,-1.995,angry
7.76,3637,3702,3761,3187,1619,0,0,0,0,0,0,0,0,0,0,0,3.232,2.84,9.165,0.933,-0.087,0.091,-10.345,-19.613,-2.291,0.044,-0.707,-1.699,angry
7.77,3679,3719,3769,3201,1525,0,0,0,0,0,0,0,0,37,0,0,3.4,2.84,9.081,1.177,-0.167,0.106,-9.366,-19.613,-3.024,-0.999,-0.01,-1.199,angry
7.78,3712,3712,3780,3227,1177,0,0,0,0,0,0,41,0,0,0,0,3.385,2.732,8.971,1.584,-0.3,0.16,-2.083,-18.78,-5.701,-2.813,1.316,-1.17,angry
7.79,3747,3748,3778,3177,613,0,0,0,39,0,0,0,0,0,0,0,3.845,2.717,8.825,2.018,-0.5,0.207,0.505,-8.928,19.613,-1.702,2.17,-1.253,angry
7.8,3773,3671,3770,3220,158,0,0,0,0,0,0,0,16,47,0,393,4.298,1.827,9.108,2.471,-0.546,0.05,1.271,11.861,13.977,-2.074,0.243,-1.135,angry
7.81,3797,3561,3733,3141,0,0,0,0,0,0,0,0,0,0,0,1623,3.771,2.207,8.471,3.022,-0.183,0.06,-10.353,5.885,8.255,-3.956,-0.203,0.106,angry
7.82,3792,3473,3658,3034,0,0,0,0,0,0,0,0,0,0,90,2543,4.489,2.701,9.39,4.088,-0.678,-0.262,-9.086,-10.355,19.613,-4.405,-0.42,0.486,angry
7.83,3819,3161,3475,2448,0,0,0,0,0,0,0,0,0,0,675,3163,3.383,1.87,8.356,4.791,-0.627,-0.244,1.844,-6.436,12.763,-3.451,-0.094,0.609,angry
7.84,3812,2992,3079,2153,0,0,0,0,0,0,0,0,0,0,1641,3439,7.396,5.684,14.703,5.77,-1.247,-1.158,8.071,-3.4,10.566,-2.997,0.143,0.685,angry
7.85,3789,2688,2352,1771,0,0,0,0,0,0,0,0,0,0,2219,3576,5.265,6.187,13.913,6.185,-0.819,-2.443,-6.06,-15.313,19.613,-2.385,1.298,1.269,angry
7.86,3278,2221,395,464,0,0,0,0,0,7,0,0,23,0,2551,3683,7.051,7.266,15.572,7.133,-1.759,-3.964,0.108,-6.862,14.372,-2.008,1.463,0.774,angry
7.87,2402,1264,0,48,0,0,0,0,20,319,0,0,328,15,2857,3743,7.027,7.966,12.838,6.696,-0.289,-4.964,1.856,-4.786,11.696,-1.352,1.761,1.005,angry
7.88,1002,246,0,0,0,0,0,349,2,165,5,606,1413,0,3026,3835,0.871,13.824,19.613,5.561,-0.123,-5.136,2.416,-3.926,10.625,-1.042,0.79,0.632,angry
7.89,0,0,0,0,0,0,0,133,9,457,839,2027,1912,4,3111,3867,19.613,-6.172,19.613,-0.795,-2.585,-3.914,1.171,-4.099,10.305,-0.636,0.238,0.377,angry
7.9,0,0,0,0,0,0,0,138,2,459,1369,2365,2021,1,3165,3869,9.124,-6.553,3,-2.29,1.636,-0.974,1.032,-4.195,10.266,-0.41,0.152,0.226,angry
7.91,33,0,0,0,0,0,0,123,35,717,1627,2687,2231,12,3229,3830,5.748,-4.271,8.813,-2.206,-1.193,0.223,1.8,-4.077,9.713,-0.166,0.189,0.153,angry
7.92,39,0,0,0,0,0,0,48,69,776,1845,2917,2219,21,3087,3750,8.775,-1.013,11.653,-3.964,-1.067,1.895,1.448,-3.596,9.462,-0.173,0.16,0.063,angry
7.93,35,0,0,0,0,0,0,81,215,851,1863,3001,1931,43,2983,3682,-2.021,0.658,9.756,-4.523,-1.192,2.383,1.463,-3.565,9.445,-0.141,0.175,0.05,angry
7.94,21,0,0,0,0,0,0,11,199,975,1942,3119,1787,44,2686,3545,-1.654,2.55,9.043,-4.822,-1.055,2.182,1.41,-3.649,9.424,-0.081,0.115,0.021,angry
7.95,0,0,0,0,0,0,0,0,395,1140,2024,3261,1699,41,2079,3337,1.073,4.994,12.148,-4.622,-1.937,1.993,1.283,-3.428,9.361,-0.07,0.102,0.024,angry
7.96,0,0,0,0,0,0,0,0,581,1211,2065,3305,1701,37,1775,3217,5.392,7.168,12.153,-4.901,-0.505,2.322,1.405,-3.642,9.297,-0.095,0.092,0.023,angry
7.97,0,0,0,0,0,0,0,0,683,1289,2088,3449,1597,51,1385,2983,3.587,8.928,15.203,-5.201,0.528,2.948,1.3,-3.646,9.328,-0.056,0.095,0.035,angry
7.98,0,0,0,0,0,0,0,0,1161,1350,2101,3479,1652,47,920,2701,8.765,11.945,15.218,-4.548,0.736,3.45,1.302,-3.646,9.325,-0.067,0.115,0.041,angry
7.99,0,0,0,0,0,0,0,0,1293,1402,2106,3500,1682,47,891,2527,10.013,16.273,15.763,-4.138,2.26,3.919,1.326,-3.603,9.357,-0.059,0.124,0.046,angry
8,0,0,0,0,0,0,0,0,1637,1503,2149,3577,1579,39,221,2147,9.335,19.613,11.569,-3.354,2.445,3.524,1.25,-3.534,9.378,-0.095,0.11,0.034,angry
8.01,49,0,0,0,0,0,0,0,2019,1721,2203,3647,1188,31,119,1279,2.258,19.613,0.237,-2.595,0.798,3.657,1.171,-3.888,9.766,-0.1,0.121,0.032,angry
8.02,86,0,0,0,0,0,0,0,2215,1703,2190,3677,1045,0,4,600,1.528,19.613,-3.306,2.608,-1.574,4.013,1.331,-3.828,9.546,-0.067,0.149,0.007,angry
8.03,102,0,0,0,0,0,0,0,2351,1766,2193,3743,787,4,3,506,-0.603,19.613,-5.772,0.36,-1.363,2.265,1.166,-2.523,9.857,-0.141,0.196,-0.041,angry
8.04,129,0,0,0,0,0,0,206,2711,1819,2203,3835,335,1,0,59,-0.46,17.921,-12.582,1.744,1.196,-1.125,1.482,-3.508,9.419,-0.444,0.251,-0.148,angry
8.05,0,0,0,0,0,0,0,1535,2897,1399,2218,3872,0,0,0,0,8.997,-6.955,19.613,-2.341,-1.785,-2.081,1.446,-3.792,9.352,-0.639,0.361,-0.177,angry
8.06,0,0,0,0,0,0,27,2670,2938,1098,2218,3898,0,0,0,0,-6.874,-11.114,-2.392,3.67,-1.03,-3.186,1.812,-3.582,9.23,-0.93,0.335,-0.217,angry
8.07,0,0,0,0,0,0,935,3409,3013,985,2014,3897,0,0,0,0,-0.675,10.072,19.613,4.756,-2.095,-0.561,1.726,-3.948,9.622,-1.233,0.384,-0.345,angry
8.08,35,5,0,0,208,0,1881,3523,3026,775,2234,3915,0,0,0,0,7.705,6.196,11.957,2.175,-2.093,-1.049,3.836,-3.244,11.097,-1.834,0.633,-0.529,angry
8.09,132,1973,0,0,2115,0,2559,3618,2935,0,2259,3827,0,0,0,0,6.268,1.372,9.981,0.848,1.3,-0.219,4.508,-3.982,11.375,-3.298,1.401,-0.118,angry
8.1,464,2700,0,0,2593,0,2829,3407,2205,0,0,3059,0,0,0,0,2.705,0.419,10.568,0.509,0.382,-0.79,0.828,-3.622,19.496,-4.7,2.027,2.628,angry
8.11,750,3295,1851,156,2947,0,2978,3661,1661,0,0,2615,0,0,0,0,3.972,2.67,9.153,1.178,-0.832,-0.276,4.154,-9.467,19.022,-4.4,1.56,4.422,angry
8.12,945,3469,2623,560,3107,0,3048,3639,319,37,0,830,0,0,0,0,3.84,2.397,9.531,0.568,0.059,-0.36,-7.049,-3.867,19.613,-2.255,0.365,5.291,angry
8.13,1232,3395,2932,1021,3089,0,3090,3371,0,0,115,72,0,0,0,0,4.594,3.218,8.509,0.294,0.167,-0.31,12.105,1.966,7.798,0.208,-0.702,5.255,angry
8.14,1471,3669,3070,1424,3264,0,2996,3456,0,0,0,187,0,0,0,0,3.57,3.543,9.625,0.281,0.124,-0.196,14.121,0.045,9.534,0.463,-1.226,3.616,angry
8.15,1619,3697,3174,1635,3291,0,2827,3271,0,0,0,71,0,0,0,0,3.512,3.187,9.038,0.208,0.208,-0.167,8.169,1.848,7.049,0.859,-2.423,0.349,angry
8.16,1663,3717,3223,1760,3298,0,2735,3111,0,2657,0,87,0,0,0,3609,3.824,3.306,8.964,0.266,0.091,-0.109,1.755,2.045,8.049,1.214,-2.56,0.08,angry
8.17,1902,3542,3301,1919,3202,0,2587,2551,0,0,0,104,0,0,7,0,3.225,2.94,9.069,0.149,0.124,-0.125,-3.637,1.561,8.712,1.901,-2.697,0.959,angry
8.18,2096,3760,3347,2111,3251,0,2391,2640,0,0,0,69,0,0,0,0,3.318,3.096,8.947,0.118,0.096,-0.071,-4.415,1.183,7.815,2.098,-2.721,1.521,angry
8.19,2160,3772,3399,2214,3205,0,2189,2549,0,52,0,123,0,0,0,0,3.349,2.957,8.873,0.11,0.107,-0.079,-5.423,-0.622,9.134,2.17,-2.932,2.611,angry
8.2,2224,3609,3442,2227,3118,0,2002,2199,29,0,0,101,0,0,0,0,3.187,2.99,8.844,0.117,0.143,-0.071,-7.408,-3.457,13.008,2.471,-3.861,3.49,angry
8.21,2359,3822,3472,2459,3065,0,1779,2223,0,0,0,75,0,0,0,0,3.12,2.95,8.847,0.2,0.126,-0.055,-9.481,-4.118,12.78,2.649,-4.508,3.997,angry
8.22,2512,3803,3517,2608,2978,0,1501,1839,0,0,0,33,0,0,0,0,3.187,3.057,9.033,0.238,0.134,-0.06,-8.71,-5.792,9.759,2.355,-4.72,5.112,angry
8.23,2677,3613,3558,2747,2758,0,1102,1110,0,0,0,41,0,17,0,0,3.151,3.002,8.933,0.265,0.145,-0.064,-8.849,-6.709,9.665,1.864,-4.565,5.599,angry
8.24,2811,3819,3508,2977,2582,0,575,469,0,0,0,25,0,0,0,0,3.151,2.849,8.794,0.387,0.155,-0.042,-10.293,-6.57,8.906,1.522,-4.339,5.74,angry
8.25,2989,3826,3633,3088,2288,0,80,0,0,0,0,22,0,0,0,0,2.938,2.811,8.875,0.557,0.094,-0.01,-12.318,-5.349,8.114,0.966,-3.193,6.033,angry
8.26,3091,3837,3651,3171,2012,0,0,0,75,0,0,42,0,0,0,0,2.84,2.65,9.196,0.853,0.087,0.19,-10.918,-4.511,8.181,0.704,-2.356,5.697,angry
8.27,3182,3843,3664,3219,1781,0,0,0,0,0,0,50,0,9,0,0,3.132,3.096,9.297,1.063,-0.094,0.165,-5.971,-3.986,8.748,0.411,-1.293,4.654,angry
8.28,3261,3835,3675,3264,1477,0,0,0,0,0,0,0,0,0,0,3,2.564,2.729,9.242,1.335,-0.091,0.306,-15.577,13.757,16.293,1.017,1.919,3.685,angry
8.29,3344,3836,3685,3310,1077,0,0,0,0,0,0,0,45,0,0,0,3.814,3.349,8.66,1.264,0.045,0.216,-2.042,-2.052,11.1,0.722,1.966,1.411,angry
8.3,3427,3824,3696,3335,570,0,0,0,0,0,0,22,0,0,0,0,3.129,3.366,9.325,1.568,0.014,0.379,-1.695,-2.045,13.843,0.698,1.672,0.219,angry
8.31,3504,3792,3701,3351,468,0,0,0,0,0,0,395,0,0,12,0,4.025,3.223,10.788,1.835,-0.504,0.205,0.831,0.776,4.365,-0.077,0.347,0.516,angry
8.32,3546,3708,3710,3346,0,0,0,0,0,1,43,1043,41,0,205,949,5.162,2.2,9.651,2.621,-0.662,0.098,0.56,-3.721,9.019,-0.474,-0.007,0.32,angry
8.33,3662,3069,3623,3116,0,0,0,0,0,425,0,1879,39,0,525,1715,4.551,2.176,10.065,3.923,-0.507,-0.121,1.736,-4.283,10.178,-1.194,0.046,0.379,angry
8.34,3664,2731,2871,2156,0,0,0,0,0,567,580,2227,67,1,579,2217,5.617,3.311,15.826,4.957,0.212,-0.799,0.33,-5.389,9.912,-0.671,-0.092,0.165,angry
8.35,3457,1616,818,1595,0,0,0,0,3,600,1256,2443,239,3,1835,3031,7.86,3.345,19.613,6.481,1.904,-2.267,2.076,-3.282,9.57,0.273,0.113,0.151,angry
8.36,1878,209,0,0,0,0,0,0,4,245,1348,2461,357,3,2455,3475,10.903,7.331,9.112,5.667,6.87,-2.153,0.515,-2.526,9.697,0.103,0.226,0.1,angry
8.37,1088,120,0,0,0,0,0,213,1,5,1356,2397,363,201,2541,3571,0.56,11.025,7.293,2.124,8.731,-0.985,0.625,-3.108,9.948,0.096,0.2,0.058,angry
8.38,0,69,0,0,0,0,0,287,3,9,1328,2438,309,117,2707,3673,11.121,-6.761,10.465,-0.971,5.577,2.14,0.596,-2.954,9.62,0.087,0.033,0.016,angry
8.39,8,75,0,0,0,0,0,0,0,0,1420,2391,294,0,2731,3743,8.394,-4.693,12.565,-1.469,4.363,2.772,0.697,-2.761,9.584,0.047,-0.064,0.019,angry
8.4,0,0,0,0,0,0,0,250,18,0,1282,2391,219,0,2789,3787,4.41,-2.672,9.333,-1.188,3.564,3.15,0.816,-3.041,9.859,0.039,-0.034,0.052,angry
8.41,0,0,0,0,0,0,0,272,0,27,836,2467,170,0,2781,3816,10.187,-3.783,7.314,-1.17,2.249,3.099,0.821,-3.103,9.742,0.096,-0.01,0.063,angry
8.42,0,0,0,0,0,0,0,252,0,5,102,2299,169,0,2769,3809,14.322,-1.853,6.934,-1.968,3.76,2.801,0.824,-3.05,9.823,0.109,-0.04,0.045,angry
8.43,0,0,0,0,0,0,0,246,0,6,194,2132,236,0,2735,3837,15.581,-0.034,6.974,-2.31,3.343,2.952,0.962,-2.904,9.574,0.118,-0.075,0.037,angry
8.44,0,0,0,0,0,0,0,245,0,0,7,1951,149,0,2758,3839,18.17,1.669,5.921,-2.911,3.482,3.219,1.142,-2.825,9.5,0.081,-0.061,0.049,angry
8.45,0,0,0,0,0,0,0,247,0,0,92,1787,199,0,2731,3835,19.269,2.966,5.392,-3.397,3.566,3.678,1.204,-2.873,9.531,0.033,-0.06,0.055,angry
8.46,0,0,0,0,0,0,0,218,11,0,23,1627,254,0,2744,3833,19.613,4.252,3.122,-3.589,3.473,4.02,1.384,-2.828,9.426,-0.002,-0.039,0.051,angry
8.47,0,0,0,0,0,0,0,203,0,0,0,1627,375,0,2746,3817,19.515,5.301,4.422,-3.29,2.896,4.436,1.511,-2.758,9.34,0.003,-0.016,0.079,angry
8.48,0,0,0,0,0,0,0,195,0,3,7,1611,349,0,2771,3804,19.613,7.226,6.012,-3.158,2.589,4.979,1.707,-2.708,9.21,-0.06,0.006,0.124,angry
8.49,0,0,0,0,0,0,0,189,12,0,79,1621,504,0,2747,3785,19.613,9.026,7.784,-3.025,2.142,5.502,1.496,-2.921,9.318,-0.099,0.001,0.129,angry
8.5,0,0,0,0,0,0,0,201,19,0,7,1597,587,13,2780,3770,19.613,10.171,7.891,-2.717,1.537,5.962,1.46,-2.873,9.455,-0.116,0.029,0.128,angry
8.51,0,0,0,0,0,0,0,188,26,0,181,1725,677,5,2813,3759,19.613,11.217,7.35,-2.636,1.588,6.475,1.271,-3.141,9.574,-0.168,0.049,0.153,angry
8.52,0,0,0,0,0,0,0,179,27,3,555,1817,748,53,2868,3751,19.613,11.916,7.192,-2.483,1.34,6.917,1.437,-3.211,9.768,-0.148,0.018,0.115,angry
8.53,0,0,0,0,0,0,0,156,75,1,614,1879,839,1,2873,3751,19.613,13.245,7.137,-2.278,0.96,7.218,1.228,-3.06,9.637,-0.151,0.009,0.115,angry
8.54,0,0,0,0,0,0,0,128,81,21,726,1983,919,3,2905,3747,18.538,13.937,6.206,-1.717,0.379,7.47,1.341,-3.098,9.512,-0.159,0,0.122,angry
8.55,0,0,0,0,0,0,0,48,46,9,596,2159,1087,6,2967,3741,14.777,14.36,5.701,-1.276,0.342,7.442,1.341,-3.024,9.493,-0.185,-0.021,0.128,angry
8.56,0,0,0,0,0,0,0,0,167,10,703,2254,1193,0,3035,3743,13.355,16.599,5.578,-0.915,0.379,7.195,1.365,-3.522,9.603,-0.191,-0.036,0.106,angry
8.57,0,0,0,0,0,0,0,0,171,24,964,2409,1237,9,3101,3741,12.73,18.203,6.378,-0.6,0.356,6.674,1.228,-3.194,9.51,-0.156,-0.028,0.098,angry
8.58,0,0,0,0,0,0,0,0,217,117,1359,2431,1433,27,3087,3738,3.065,19.182,4.719,-1.146,0.965,5.918,1.135,-3.79,9.491,0.052,0.121,0.12,angry
8.59,0,0,0,0,0,0,0,0,366,231,1707,2522,1619,45,3133,3725,1.776,19.613,7.75,2.376,-1.207,6.697,1.353,-2.969,8.667,-0.206,-0.144,0.057,angry
8.6,0,0,0,0,0,0,0,338,639,441,1819,2682,1991,51,3171,3711,0.369,19.613,-4.319,2.522,-0.24,4.035,1.183,-3.235,9.349,-0.054,-0.041,0.015,angry
8.61,0,0,0,0,0,0,0,807,810,521,1878,2695,2264,51,3127,3685,0.517,19.613,-3.081,2.876,1.038,2.3,1.487,-3.424,9.792,0.027,-0.006,0.041,angry
8.62,0,0,0,0,0,0,0,1429,696,531,1870,2665,2363,51,3004,3640,-1.918,19.613,0.508,1.903,-0.032,1.837,1.398,-3.323,9.704,0.026,-0.091,0.025,angry
