timestamp,L1,L2,L3,L4,L5,L6,L7,L8,R1,R2,R3,R4,R5,R6,R7,R8,acc_x_left,acc_y_left,acc_z_left,gyro_x_left,gyro_y_left,gyro_z_left,acc_x_right,acc_y_right,acc_z_right,gyro_x_right,gyro_y_right,gyro_z_right,mood
0,1665,2356,2843,2077,1019,0,82,0,2507,1654,0,3095,462,3,1404,3285,3.158,4.104,8.554,0.014,-0.005,0.013,0.876,-3.512,9.522,0.023,0.009,0.023,angry
0.01,1693,2311,2769,2006,935,0,22,0,2507,1727,2,3059,627,5,1653,3332,3.141,4.472,8.803,-0.028,-0.033,0.054,1.176,-3.589,9.28,0.05,-0.116,-0.014,angry
0.02,1657,2019,2479,1535,815,0,0,0,2555,1791,7,3048,947,5,1851,3354,2.99,4.183,8.918,-0.092,-0.033,0.081,1.065,-3.666,9.304,0.11,-0.272,-0.035,angry
0.03,1498,1648,1915,606,537,0,0,0,2536,1885,5,2952,1623,3,2347,3435,2.806,4.48,9.313,-0.149,-0.017,0.189,1.317,-3.589,9.692,0.206,-0.373,-0.068,angry
0.04,1296,1183,476,184,278,0,0,0,2381,1911,7,2725,1963,5,2701,3499,2.72,4.231,8.741,-0.025,0.051,0.398,1.618,-4.283,10.106,0.313,-0.234,-0.086,angry
0.05,1131,865,0,0,202,0,0,0,2120,1779,2,2373,2019,25,2837,3557,0.706,4.453,9.052,0.218,0.029,0.388,1.389,-4.286,9.759,0.48,-0.259,-0.132,angry
0.06,987,560,0,0,139,0,0,0,933,935,2,665,1685,1,3026,3645,1.496,3.68,8.382,0.506,0.024,0.022,0.812,-2.093,8.279,0.485,-0.054,-0.106,angry
0.07,925,357,0,0,129,0,0,0,1112,923,0,653,1682,0,3061,3785,2.71,3.043,9.321,0.71,0.127,-0.049,2.239,-0.46,8.689,-0.087,0.124,0.116,angry
0.08,832,111,0,0,122,0,0,0,1423,939,48,1357,1753,3,3096,3687,3.682,1.712,11.229,0.894,0.128,-0.005,1.353,-3.311,9.416,-0.092,0.345,0.215,angry
0.09,449,0,0,0,75,0,0,0,1341,633,0,1591,1767,16,3117,3717,2.418,-1.106,11.832,0.741,-0.036,-0.135,1.147,-3.543,9.591,-0.044,0.164,0.189,angry
0.1,333,0,0,0,14,0,0,0,647,309,23,1725,1669,4,3143,3705,2.988,-1.707,14.667,0.233,0.002,-0.482,1.185,-3.328,9.634,0.133,0.147,0.168,angry
0.11,326,0,0,0,5,0,0,0,395,0,0,1582,1527,0,3156,3710,3.285,-3.452,13.757,-0.247,-0.011,-0.514,1.3,-3.373,9.486,0.145,0.176,0.137,angry
0.12,339,0,0,0,0,0,0,0,219,0,0,1287,1362,0,3174,3721,3.33,-4.334,12.51,-0.539,-0.044,-0.601,1.252,-3.879,10.013,0.181,0.113,0.06,angry
0.13,321,0,0,0,0,0,0,0,121,0,0,788,944,0,3151,3737,4.228,-4.379,12.158,-0.778,-0.088,-0.632,0.472,-3.721,9.895,0.3,0.121,-0.005,angry
0.14,300,0,0,0,20,0,0,0,81,0,0,581,487,0,3117,3748,4.226,-3.725,12.876,-1.002,-0.249,-0.557,-1.288,-3.335,9.227,0.373,0.147,0.012,angry
0.15,272,0,0,0,16,0,0,0,27,0,0,355,243,0,3029,3671,4.647,-2.528,13.431,-1.253,-0.459,-0.459,0.362,-2.995,9.215,0.408,0.113,0.029,angry
0.16,240,0,0,0,1,0,0,0,27,0,0,399,173,0,2921,3819,4.633,-1.568,12.682,-1.558,-0.497,-0.33,1.362,-2.82,9.618,0.416,0.158,0.074,angry
0.17,230,0,0,0,0,0,0,0,0,0,0,333,132,0,2785,3764,4.492,-0.438,12.086,-1.737,-0.471,-0.237,2.298,-3.405,9.325,0.404,0.28,0.062,angry
0.18,240,0,0,0,0,0,0,0,0,0,0,335,88,0,2493,3785,4.276,0.816,11.368,-1.866,-0.434,-0.174,1.729,-2.38,8.995,0.36,0.307,0.079,angry
0.19,238,0,0,0,0,0,0,0,0,0,0,274,98,38,2351,3789,3.816,1.616,10.228,-1.879,-0.412,-0.188,1.726,-2.55,9.292,0.257,0.256,0.056,angry
0.2,240,0,0,0,0,0,0,0,0,0,33,326,101,0,2359,3795,3.764,2.617,9.23,-1.8,-0.413,-0.256,1.709,-1.812,9.438,0.108,0.169,0.042,angry
0.21,223,0,0,0,0,0,0,0,0,0,0,459,47,0,2318,3800,3.718,3.359,8.147,-1.666,-0.423,-0.328,0.692,-1.745,9.067,0.062,0.142,0.145,angry
0.22,196,0,0,0,0,0,0,0,0,0,0,718,55,0,2407,3797,3.677,3.831,7.389,-1.478,-0.483,-0.405,1.044,-1.199,8.102,0.02,0.207,0.297,angry
0.23,208,0,0,0,0,0,0,0,7,0,0,973,102,0,2373,3799,3.333,4.295,7.405,-1.306,-0.578,-0.479,0.673,-2.325,9.926,-0.317,0.246,0.457,angry
0.24,189,0,0,0,0,0,0,0,29,0,130,1205,173,0,2379,3791,2.789,5.009,7.755,-1.223,-0.764,-0.58,-0.256,-2.047,10.295,-0.33,0.338,0.47,angry
0.25,91,0,0,0,0,0,0,0,95,0,0,1656,230,0,2357,3775,2.109,6.065,7.405,-1.199,-0.983,-0.731,2.239,-5.322,9.333,-0.285,0.255,0.351,angry
0.26,29,0,0,0,0,0,0,0,220,0,2,2059,348,0,2263,3763,1.322,7.429,6.393,-1.126,-1.107,-0.888,0.73,-3.079,9.725,-0.329,0.168,0.132,angry
0.27,2,0,0,0,67,0,0,0,345,0,0,2261,536,8,2265,3735,1.587,11.832,4.372,-0.857,-1.17,-1.054,0.788,-3.093,9.752,-0.317,0.094,0.057,angry
0.28,0,0,0,0,48,0,0,0,567,219,23,2278,687,3,2281,3691,0.436,14.152,3.191,-0.672,-0.749,-1.332,0.534,-3.048,9.79,-0.244,0.138,0.084,angry
0.29,0,0,0,0,92,0,0,0,811,526,2,2439,913,10,2155,3624,0.9,15.081,0.553,-0.341,-0.464,-1.523,0.9,-3.031,9.543,-0.236,0.165,0.101,angry
0.3,0,0,0,0,3,0,0,128,973,691,2,2527,1109,9,1875,3517,3.979,17.279,-1.073,0.323,-0.111,-1.344,0.898,-3.211,9.443,-0.26,0.134,0.09,angry
0.31,0,0,0,0,11,0,304,1156,1305,951,0,2663,1321,4,1626,3384,7.384,19.613,-4.623,1.53,-0.002,-0.316,0.474,-3.261,9.462,-0.186,0.035,0.102,angry
0.32,0,0,0,0,401,0,862,2774,1495,1483,12,2807,1299,3,583,2601,-3.132,0.754,17.133,0.762,0.608,0.453,-0.479,-2.976,10.144,-0.218,-0.112,0.195,angry
0.33,0,0,0,0,591,0,1898,3344,1575,1509,0,2843,661,0,13,1067,5.521,4.559,10.953,1.812,-0.426,-0.704,1.015,-0.067,11.31,-1.222,-0.002,0.079,angry
0.34,0,0,0,0,839,0,2832,3604,1971,861,0,3006,11,0,0,470,-1.93,9.977,15.213,0.412,0.149,-0.074,6.577,-7.922,12.821,-2.255,-0.845,1.042,angry
0.35,0,210,0,0,1457,0,3175,3716,2019,19,0,2974,0,0,0,155,6.718,5.294,11.071,0.304,0.541,-0.306,14.301,-6.512,11.325,-2.969,2.398,1.923,angry
0.36,0,596,0,1,1747,0,3350,3789,692,0,61,1682,0,0,0,55,3.745,4.005,9.843,0.24,0.433,-0.269,19.613,-3.235,7.57,-3.799,5.004,3.553,angry
0.37,80,802,64,65,1870,0,3423,3818,87,0,0,711,0,0,0,36,2.72,3.041,9.876,0.274,0.222,-0.238,19.613,-19.613,19.613,-5.199,5.756,5.988,angry
0.38,204,963,643,289,1862,0,3469,3821,0,23,0,91,0,0,0,11,3.11,2.986,9.187,0.264,0.056,-0.206,19.613,-7.762,14.447,-3.376,6.308,-1.286,angry
0.39,220,1425,1579,649,2132,0,3506,3792,0,0,0,0,0,0,3,75,3.682,2.816,8.315,0.371,0.09,-0.295,6.021,-5.406,14.557,-3.459,0.503,-8.731,angry
0.4,319,1953,2481,1049,2226,0,3472,3712,0,0,0,0,0,0,3,30,3.97,4.104,8.789,0.407,0.157,-0.401,-8.911,11.842,19.613,-0.359,-2.93,-3.125,angry
0.41,351,2180,2864,1502,2342,0,3329,3562,0,0,0,0,0,0,0,13,3.361,3.855,9.203,0.288,0.135,-0.292,-4.982,11.768,19.613,2.224,-1.635,-0.82,angry
0.42,407,2406,3067,1920,2407,0,3087,3344,0,0,0,0,0,0,0,45,3.28,2.734,8.784,0.327,0.049,-0.321,2.638,6.912,15.237,4.084,-1.694,0.927,angry
0.43,416,2518,3184,2147,2380,0,2869,3183,0,0,0,0,0,0,0,27,3.304,3.311,8.526,0.402,0.041,-0.407,5.373,4.729,13.836,4.336,-1.952,0.145,angry
0.44,526,2637,3291,2342,2341,0,2559,2963,0,0,0,0,0,0,0,39,3.349,3.855,8.665,0.427,0.03,-0.42,4.266,2.105,13.077,4.297,-2.454,-1.057,angry
0.45,675,2813,3462,2703,2304,0,2103,2320,8,6,38,6,5,3,6,13,3.179,4.338,8.72,0.423,0.042,-0.363,0.85,-2.284,16.374,4.29,-2.082,-2.576,angry
0.46,1152,3053,3632,3003,2273,0,1424,403,4,17,7,23,21,24,14,21,3.323,3.768,8.741,0.485,0.005,-0.354,-1.666,-3.639,18.165,4.549,-1.844,-2.651,angry
0.47,1903,3311,3765,3206,2114,0,848,0,0,0,0,0,0,0,0,0,3.211,4.18,8.586,0.5,0.002,-0.294,1.415,-7.156,17.456,4.744,-1.094,-2.648,angry
0.48,2177,3467,3817,3310,1711,0,548,0,0,0,0,0,0,0,0,9,2.986,4.312,9.146,0.566,0.003,-0.283,1.575,-10.515,18.663,4.524,-0.827,-3.133,angry
0.49,2484,3578,3862,3383,1491,0,612,0,0,0,0,0,0,0,0,6,2.962,4.336,8.835,0.8,0.027,-0.207,-1.087,-16.53,18.565,4.118,-0.768,-3.456,angry
0.5,2684,3683,3915,3436,1359,0,593,0,0,0,0,0,0,0,0,0,2.95,3.924,8.521,0.957,0.064,-0.19,-0.936,-19.613,11.935,3.416,-0.55,-3.408,angry
0.51,2832,3755,3943,3483,1219,0,554,0,0,0,0,0,0,0,0,0,2.998,3.44,8.736,1.22,-0.011,-0.16,-3.261,-19.613,7.544,2.709,-0.638,-2.617,angry
0.52,2961,3799,3972,3526,1056,0,626,0,0,0,0,0,0,0,0,0,3.182,4.214,9.424,1.514,-0.07,-0.147,-10.281,-19.613,3.165,2.292,-2.034,-1.653,angry
0.53,3150,3845,3983,3575,932,0,495,0,7,3,10,0,1,3,1,6,3.112,3.883,8.545,2.091,-0.059,-0.177,-4.618,-19.613,-9.433,-0.36,-2.291,-0.784,angry
0.54,3370,3745,3981,3583,529,0,350,0,10,10,28,10,9,10,9,133,4.427,3.381,8.871,2.895,0.164,-0.277,-7.058,-19.613,-11.119,-2.017,0.463,-0.964,angry
0.55,3488,2894,3902,3478,270,0,26,0,0,0,0,0,0,0,5,1702,6.333,4.345,7.784,3.995,0.74,-0.764,-2.887,14.078,19.613,-3.106,0.632,0.438,angry
0.56,3533,2163,3671,3101,0,0,0,0,0,0,0,0,0,0,249,2601,5.588,4.487,9.342,4.918,0.999,-1.308,-1.798,-5.835,11.451,-4.297,0.981,1.528,angry
0.57,3515,1762,2900,2176,0,0,0,0,0,0,0,0,0,0,909,3112,5.83,0.67,18.1,5.453,0.127,-2.269,1.958,-19.309,19.613,-2.977,1.35,0.72,angry
0.58,3259,1104,2346,1815,0,0,0,0,0,0,0,0,0,0,1575,3463,8.598,5.478,19.613,6.107,-0.595,-3.238,-2.897,-0.074,10.264,-2.269,1.215,0.968,angry
0.59,1239,16,0,240,0,0,0,0,3,0,0,37,39,0,2659,3963,10.379,6.608,19.613,6.198,-0.845,-4.802,5.306,-6.323,13.566,-1.781,0.56,0.894,angry
0.6,242,0,0,0,0,0,0,0,0,0,0,4,122,0,2886,3943,19.613,4.118,19.613,1.819,0.016,-3.966,6.479,-5.344,10.139,-1.003,1.605,0.608,angry
0.61,0,0,0,0,0,0,0,0,0,0,0,0,240,0,3061,3967,19.613,-8.432,12.938,-0.135,1.213,-2.966,-1.597,-3.642,13.795,-0.788,1.686,0.855,angry
0.62,0,0,0,0,0,0,0,0,0,0,0,0,311,0,3193,3992,19.613,-8.289,19.613,-1.495,1.465,-1.304,3.129,-2.82,9.062,-0.337,1.555,0.653,angry
0.63,0,0,0,0,0,0,0,0,0,1,0,3,463,0,3288,4005,15.414,-10.381,13.862,-2.255,0.8,-0.42,0.984,-3.024,12.143,-0.342,1.579,0.743,angry
0.64,0,0,0,0,0,0,0,0,1,0,2,0,611,0,3311,3997,10.068,-8.274,15.615,-2.672,-0.545,0.06,0.232,-1.235,8.837,-0.375,1.461,0.81,angry
0.65,0,0,0,0,0,0,0,0,0,0,0,0,671,0,3240,3897,10.104,-5.016,13.024,-3.024,-1.841,0.685,2.33,-2.921,9.685,-0.443,1.483,0.879,angry
0.66,0,0,0,0,0,0,0,0,0,23,0,18,813,0,3197,3883,10.58,-2.033,10.769,-3.272,-2.356,1.504,2.016,-3.029,9.993,-0.389,1.365,0.783,angry
0.67,0,0,0,0,0,0,0,0,0,0,0,8,927,0,3129,3857,8.693,0.005,10.57,-3.518,-2.139,2.222,1.815,-2.801,9.213,-0.397,1.089,0.606,angry
0.68,0,0,0,0,0,0,0,0,5,0,0,415,983,0,3047,3813,6.325,2.382,11.631,-3.693,-1.881,2.648,1.743,-3.065,9.503,-0.375,0.968,0.472,angry
0.69,0,0,0,0,0,0,0,0,12,0,0,743,874,0,2919,3755,4.934,3.405,12.371,-3.84,-1.577,2.92,2.009,-4.003,10.221,-0.25,0.65,0.264,angry
0.7,0,0,0,0,0,0,0,0,0,0,0,1191,774,0,2747,3692,4.386,4.994,13.647,-4.033,-1.279,3.079,2.248,-4.767,10.556,-0.182,0.429,0.195,angry
0.71,0,0,0,0,0,0,0,0,3,3,5,1660,574,3,2547,3656,4.231,6.057,13.915,-4.179,-1.053,3.191,1.583,-3.39,9.929,-0.143,0.272,0.159,angry
0.72,0,0,0,0,0,0,0,0,3,2,7,1768,441,3,2099,3558,4.183,6.692,13.515,-4.233,-0.86,3.251,0.74,-3.46,9.804,-0.168,0.15,0.145,angry
0.73,0,0,0,0,0,0,0,0,1,1,5,1919,431,3,1866,3495,4.446,7.501,14.729,-4.129,-0.98,3.276,0.716,-3.306,10.156,-0.225,0.018,0.196,angry
0.74,0,0,0,0,0,0,0,0,43,0,2,2140,503,1,1786,3439,5.042,8.246,14.43,-3.941,-1.014,3.402,1.247,-2.492,9.256,-0.257,0.079,0.298,angry
0.75,0,0,0,0,0,0,0,0,2,299,5,2239,573,1,1737,3399,4.618,7.819,13.455,-3.556,-0.827,3.424,1.123,-2.72,9.993,-0.301,0.224,0.434,angry
0.76,0,0,0,0,0,0,0,0,88,362,7,2462,806,5,1658,3388,4.348,9.505,13.846,-2.985,-0.554,3.389,1.389,-3.62,9.637,-0.277,0.253,0.4,angry
0.77,0,0,0,0,0,0,0,0,211,455,0,2622,927,0,1627,3263,0.632,19.613,2.495,-1.973,1.469,2.858,1.817,-3.508,9.388,-0.215,0.233,0.323,angry
0.78,0,0,0,0,0,0,0,0,504,489,17,2787,1333,12,1445,3132,-6.46,19.613,14.384,-1.935,2.166,1.726,1.7,-4.128,9.699,-0.006,0.166,0.207,angry
0.79,0,0,0,0,0,0,0,0,841,660,250,2987,1515,11,1179,2927,-0.089,19.613,19.613,-2.711,0.954,1.468,0.962,-3.752,9.864,0.019,-0.042,0.187,angry
0.8,0,0,0,0,0,0,0,0,1305,943,33,3054,1676,9,645,2577,-6.4,19.613,8.009,-3.743,-1.66,1.396,1.453,-3.23,9.098,-0.202,-0.079,0.119,angry
0.81,0,0,0,0,0,0,0,0,1753,1381,17,3154,1749,10,447,1893,-7.954,19.613,-9.16,-3.097,-1.764,0.78,1.657,-4.061,9.957,-0.287,-0.1,0.069,angry
0.82,0,0,0,0,0,0,0,0,2445,1929,10,3305,2001,7,5,1207,-4.58,19.613,-10.939,-0.629,0.137,-0.059,0.467,-3.577,10.192,-0.508,-0.149,0.036,angry
0.83,0,0,0,0,0,0,0,310,2794,2131,7,3454,1434,4,0,541,-4.791,19.613,-4.12,1.178,-0.11,-0.466,1.786,-3.543,9.792,-0.78,-0.012,-0.183,angry
0.84,0,0,0,0,0,0,662,2903,2924,2121,7,3504,647,5,4,485,9.488,13.204,-7.017,4.62,-1.325,-1.393,1.913,-3.16,9.151,-1.153,-0.114,-0.411,angry
0.85,0,0,0,0,494,0,2233,3562,3187,1659,0,3574,176,1,0,376,3.127,9.395,13.563,3.322,-0.57,-1.5,4.942,-1.731,10.271,-3.963,0.176,-0.463,angry
0.86,0,75,0,0,928,0,3091,3703,3340,5,0,3307,0,0,0,329,12.871,16.486,19.613,1.417,2.194,-2.208,8.43,-0.754,15.012,-8.174,3.164,1.631,angry
0.87,0,483,0,0,1567,0,3307,3751,3055,0,0,2659,10,0,0,281,4.836,7.853,10.652,0.792,2.264,-1.152,11.344,5.514,19.613,-8.731,2.744,4.509,angry
0.88,0,1576,18,0,2112,0,3489,3824,2630,0,0,1213,0,0,8,93,3.622,5.052,14.384,0.747,1.517,-0.999,8.471,1.065,19.613,-8.731,2.516,6.797,angry
0.89,127,1952,1114,398,2285,0,3527,3844,759,0,12,269,0,0,0,0,3.555,2.612,10.965,0.662,1.074,-0.814,1.183,-7.614,19.613,-7.861,1.811,7.226,angry
0.9,440,2365,2288,863,2341,0,3549,3817,0,0,0,0,0,0,0,0,3.625,4.527,9.986,0.402,0.489,-0.407,19.613,-0.644,19.609,0.163,-0.327,1.289,angry
0.91,401,2522,2641,1195,2371,0,3518,3781,0,0,0,0,0,0,0,0,3.407,3.328,9.139,0.415,0.389,-0.363,15.749,9.993,12.603,1.45,0.284,0.303,angry
0.92,546,2633,2833,1509,2394,0,3440,3707,0,0,0,0,0,0,0,0,3.745,3.529,8.588,0.423,0.387,-0.353,10.523,5.775,13.721,2.168,-1.096,-0.857,angry
0.93,583,2755,3042,1898,2237,0,3216,3458,0,0,0,0,0,0,0,0,3.61,3.467,8.916,0.434,0.326,-0.354,2.33,3.467,11.38,3.315,-2.277,-1.44,angry
0.94,695,2837,3138,2130,2107,0,3008,3258,0,0,0,0,0,0,0,3,3.632,3.773,8.854,0.442,0.254,-0.376,-0.752,1.247,11.923,3.975,-2.722,-1.306,angry
0.95,780,2903,3264,2442,1732,0,2592,2749,0,0,0,0,0,0,0,97,3.218,4.044,8.825,0.388,0.02,-0.298,-1.377,-0.577,11.03,4.543,-2.819,-1.062,angry
0.96,965,2964,3373,2681,1462,0,2039,2030,0,0,0,0,0,0,9,0,2.942,3.603,8.825,0.311,0.024,-0.233,0.194,-1.786,10.745,4.765,-2.558,-0.895,angry
0.97,1195,3020,3502,2919,1387,0,1249,939,0,0,0,0,0,0,0,0,3.156,4.341,8.566,0.373,0.024,-0.249,-0.05,-3.491,14.612,4.998,-2.722,-1.656,angry
0.98,1645,3088,3611,3127,1346,0,866,390,0,0,0,0,0,0,0,0,3.091,4.305,8.684,0.277,0.064,-0.204,-1.238,-4.077,16.36,5.135,-2.745,-1.85,angry
0.99,2234,3250,3727,3298,1493,0,528,0,0,36,0,0,0,0,0,0,3.019,4.233,8.76,0.268,-0.023,-0.188,-0.515,-5.382,19.613,5.115,-2.645,-2.086,angry
1,2631,3376,3787,3424,1395,0,336,0,0,0,0,0,0,0,0,10,3.16,4.286,8.607,0.303,-0.009,-0.18,-2.751,-10.283,19.613,5.334,-2.251,-2.474,angry
1.01,2963,3530,3858,3531,1185,0,203,0,0,0,0,0,0,0,0,0,2.933,4.032,8.758,0.461,-0.002,-0.132,-5.674,-19.613,17.492,4.246,-2.505,-3.302,angry
1.02,3223,3681,3922,3615,927,0,277,0,0,0,0,0,0,0,0,0,3.017,3.864,8.619,0.831,0.001,-0.151,1.927,-19.613,15.814,3.98,-0.616,-1.571,angry
1.03,3370,3742,3950,3655,768,0,230,0,0,0,0,0,0,0,0,0,3.112,3.946,8.696,1.091,0.026,-0.137,-13.276,-19.613,-1.372,3.413,-1.39,-0.714,angry
1.04,3478,3782,3961,3678,749,0,80,0,0,0,97,0,0,0,0,0,2.868,4.401,9.143,1.359,0.131,-0.118,-10.178,-19.613,-9.572,1.397,-3.094,0.096,angry
1.05,3577,3799,3969,3695,478,0,0,0,0,0,0,0,0,0,0,0,3.139,3.929,8.732,1.733,0.178,-0.075,-4.499,-19.613,-2.308,0.393,-2.051,-0.705,angry
1.06,3655,3787,3976,3698,281,0,0,0,0,0,0,0,0,0,0,6,3.766,3.812,8.473,2.096,0.317,-0.101,-10.767,-19.613,-6.45,-1.249,0.271,-1.257,angry
1.07,3699,3717,3975,3690,329,0,0,0,0,0,0,0,0,0,37,133,5.425,3.584,8.899,2.589,0.416,-0.176,-7.987,-19.613,-6.491,-2.932,1.803,-0.341,angry
1.08,3749,3302,3953,3653,163,0,0,0,0,0,0,0,0,0,0,695,4.671,2.875,8.066,3.335,0.489,-0.395,-0.103,2.169,19.613,-1.286,2.954,0.53,angry
1.09,3771,2737,3875,3571,7,0,0,0,0,0,0,0,0,0,4,1947,7.104,3.244,8.016,4.22,0.675,-0.769,-3.644,16.855,9.431,-5.742,-0.18,0.176,angry
1.1,3771,2446,3730,3392,0,0,0,0,0,0,0,0,0,0,0,2457,6.323,3.601,9.136,5.015,0.524,-1.438,2.444,-12.04,17.327,-4.48,0.921,0.536,angry
1.11,3725,2064,3290,2896,0,0,0,0,0,0,0,0,21,0,312,3017,4.58,2.346,19.613,5.857,-0.361,-2.465,-4.053,-13.85,19.613,-3.739,1.279,0.08,angry
1.12,2999,496,1482,1328,0,0,0,0,0,0,0,16,0,2,1517,3671,10.676,13.278,19.613,7.191,-0.797,-4.109,8.179,-7.36,13.513,-2.848,0.512,0.703,angry
1.13,511,0,0,98,0,0,0,0,0,0,0,0,0,0,2187,3928,19.613,5.016,19.613,2.321,0.418,-3.587,-0.627,-5.583,15.177,-2.126,0.989,0.803,angry
1.14,0,0,0,0,0,0,0,0,39,0,0,0,0,0,2395,3981,19.613,-14.284,19.245,0.031,0.361,-2.547,4.211,-3.242,16.079,-1.394,0.901,1.041,angry
1.15,0,0,0,0,0,0,0,0,0,0,58,0,6,0,2652,4023,19.613,-5.775,19.613,-1.002,0.567,-0.895,6.041,-7.678,12.989,-0.909,1.114,0.517,angry
1.16,0,0,0,0,0,0,0,0,0,0,0,37,4,0,2813,4051,16.668,-10.633,15.948,-2.229,0.256,-0.154,0.579,-2.631,12.167,-0.396,1.011,0.384,angry
1.17,0,0,0,0,0,0,0,0,0,6,0,0,11,5,2889,4063,13.017,-6.912,14.59,-2.718,-0.683,0.352,1.015,-3.431,10.944,-0.14,0.765,0.308,angry
1.18,0,0,0,0,0,0,0,0,0,0,0,0,1,0,2922,4068,12.39,-4.922,11.018,-3.175,-1.248,0.928,0.362,-2.82,10.783,-0.061,0.686,0.256,angry
1.19,0,0,0,0,0,0,0,0,0,0,0,2,11,0,2847,3975,9.898,-2.131,11.253,-3.513,-1.507,1.456,0.85,-2.239,9.61,-0.1,0.584,0.282,angry
1.2,0,0,0,0,0,0,0,0,0,0,0,0,13,0,2764,3956,7.602,-0.393,9.426,-3.806,-1.689,1.876,2.318,-2.325,8.89,-0.166,0.333,0.215,angry
1.21,0,0,0,0,0,0,0,0,0,0,7,0,33,0,2675,3945,6.725,0.862,8.452,-3.949,-1.642,2.13,2.624,-2.514,9.847,-0.264,0.17,0.19,angry
1.22,0,0,0,0,0,0,0,0,17,0,0,0,27,0,2555,3897,6.469,2.605,9.313,-3.988,-1.506,2.422,2.84,-2.804,9.783,-0.266,0.149,0.178,angry
1.23,0,0,0,0,0,0,0,0,0,0,0,0,46,0,2311,3860,6.495,4.243,10.752,-4.033,-1.464,2.731,2.44,-2.883,9.584,-0.106,0.281,0.153,angry
1.24,0,0,0,0,0,0,0,0,23,0,0,85,133,0,2004,3786,6.079,5.358,10.858,-4.011,-1.435,3.025,1.401,-2.705,9.498,-0.041,0.464,0.213,angry
1.25,0,0,0,0,0,0,0,0,0,0,0,299,133,0,1772,3752,6.57,6.182,11.09,-4.003,-1.249,3.247,1.307,-2.428,9.646,-0.062,0.449,0.182,angry
1.26,0,0,0,0,0,0,0,0,0,0,0,507,177,0,1818,3721,7.606,7.156,12.333,-3.921,-0.994,3.447,0.113,-2.282,11.023,-0.281,0.172,0.272,angry
1.27,0,0,0,0,0,0,0,0,0,0,0,875,189,0,1877,3673,8.871,8.21,12.929,-3.79,-0.645,3.661,1.877,-2.468,9.34,-0.274,0.19,0.417,angry
1.28,0,0,0,0,0,0,0,0,0,0,0,1214,246,0,2093,3647,9.129,8.43,12.589,-3.525,-0.323,3.867,1.779,-2.574,9.395,-0.294,0.206,0.452,angry
1.29,0,0,0,0,0,0,0,0,0,0,0,1579,534,0,2185,3601,10.154,10.218,14.624,-3.174,0.113,3.886,1.46,-2.602,9.433,-0.333,0.185,0.474,angry
1.3,0,0,0,0,0,0,0,0,0,0,0,1887,932,0,2200,3603,13.415,14.878,16.388,-3.039,0.933,3.956,1.456,-2.095,9.213,-0.49,0.197,0.591,angry
1.31,0,0,0,0,0,0,0,0,6,5,10,2285,1333,3,2155,3550,4.453,18.972,13.659,-2.675,2.185,3.954,0.668,-2.291,9.651,-0.522,0.216,0.624,angry
1.32,0,0,0,0,0,0,0,0,71,251,17,2479,1805,11,2124,3463,-2.983,19.613,19.613,-3.83,1.322,3.457,0.9,-3.61,10.156,-0.561,0.1,0.495,angry
1.33,0,0,0,0,0,0,0,0,547,531,20,2746,2205,12,2030,3283,-5.55,19.613,19.613,-3.92,-2.077,3.049,1.508,-4.022,10.025,-0.49,-0.007,0.199,angry
1.34,0,0,0,0,8,0,0,0,1497,1385,28,3148,2783,13,1543,2199,-17.025,19.613,-14.607,-2.892,-2.918,1.137,1.01,-3.208,9.51,-0.233,-0.337,0.079,angry
1.35,0,0,0,0,9,0,0,0,2175,1993,15,3299,2783,0,47,1083,-6.656,19.613,-9.407,-0.657,-0.618,-1.076,2.322,-2.868,7.18,-0.252,0.13,0.104,angry
1.36,0,0,0,0,16,0,0,45,2440,2285,12,3379,2333,7,43,1081,3.364,19.613,-8.171,2.195,0.928,-0.797,1.832,-4.468,9.701,-0.882,0.116,-0.115,angry
1.37,0,0,0,0,175,0,762,2962,2807,2361,23,3529,1191,28,3,635,2.346,-0.388,19.613,4.594,0.354,-0.973,1.779,-1.872,9.969,-1.628,-0.603,-0.411,angry
1.38,0,0,0,0,450,0,2146,3570,3055,1387,2,3555,199,0,0,530,0.57,19.613,19.613,4.507,-0.308,-2.405,6.663,-0.85,10.475,-6.026,0.064,0.004,angry
1.39,0,218,0,0,1050,0,3216,3783,3162,728,0,3421,108,2,0,473,13.767,9.814,19.613,1.907,2.482,-2.228,3.364,-2.454,13.585,-8.076,1.754,1,angry
1.4,0,1695,34,0,2000,0,3422,3846,1527,0,0,1515,0,0,78,290,2.387,9.62,18.538,1.034,2.728,-1.5,15.028,2.215,19.613,-8.731,1.231,6.872,angry
1.41,75,2352,2129,995,2332,0,3501,3879,0,0,0,0,0,0,0,125,3.177,4.733,10.681,0.729,0.914,-0.838,19.613,1.314,19.613,-1.081,1.985,5.52,angry
1.42,419,2675,2806,1571,2532,0,3532,3854,0,0,0,37,0,0,1,115,2.856,4.192,10.163,0.39,0.42,-0.357,19.613,-0.67,19.613,-0.582,-0.018,1.868,angry
1.43,478,2861,3056,1965,2559,0,3423,3733,0,0,0,0,0,0,0,121,3.256,3.78,8.995,0.341,0.315,-0.281,14.676,10.781,12.62,2.047,0.479,0.03,angry
1.44,623,2949,3193,2251,2362,0,3086,3427,0,17,0,0,0,0,0,163,3.941,3.326,8.662,0.449,0.343,-0.357,8.533,4.774,12.577,3.731,-1.71,-1.555,angry
1.45,770,3013,3291,2535,1409,0,2501,3002,0,0,0,0,0,0,0,107,2.938,4.451,9.711,0.417,0.237,-0.348,0.725,2.215,11.909,4.416,-2.441,-1.884,angry
1.46,880,3046,3376,2762,971,0,1535,2441,0,0,0,0,0,0,0,83,3.053,3.989,8.722,0.397,0.124,-0.317,-2.042,-0.927,11.499,5.115,-2.802,-1.453,angry
1.47,1069,3039,3452,2931,762,0,802,1485,0,0,0,0,0,0,0,0,2.844,4.453,8.559,0.295,0.088,-0.232,-4.233,-2.847,14.823,5.51,-2.7,-1.004,angry
1.48,1403,3070,3536,3093,829,0,318,537,0,0,0,0,0,0,0,1,3.1,4.264,8.535,0.198,0.067,-0.209,-2.777,-4.008,15.294,5.739,-2.626,-0.921,angry
1.49,1650,3071,3601,3185,843,0,160,128,0,0,76,0,0,0,0,0,2.942,4.154,8.578,0.218,0.044,-0.191,-2.488,-3.725,15.354,5.836,-2.525,-0.957,angry
1.5,2074,3189,3710,3354,1168,0,123,0,0,2,0,0,0,0,0,0,3.278,3.943,8.65,0.266,-0.03,-0.196,0.407,-6.23,19.613,5.878,-2.289,-1.228,angry
1.51,2365,3299,3754,3439,1187,0,134,0,0,0,0,0,0,0,0,0,3.055,4.609,8.842,0.262,-0.08,-0.172,2.09,-7.465,19.613,6.023,-1.792,-1.361,angry
1.52,2587,3382,3807,3504,1111,0,86,0,0,0,0,0,0,0,0,0,2.983,4.231,8.622,0.266,-0.074,-0.142,-1.554,-11.727,19.613,6.141,-1.569,-1.709,angry
1.53,2810,3473,3846,3567,994,0,0,0,0,0,0,0,0,0,0,0,2.909,4.413,8.933,0.348,-0.034,-0.056,-8.82,-17.6,19.613,5.794,-2.293,-1.895,angry
1.54,2993,3571,3890,3630,784,0,0,0,0,0,0,0,0,0,0,0,3.251,3.654,8.818,0.671,-0.037,-0.088,-4.305,-19.613,19.613,5.017,-2.475,-1.81,angry
1.55,3181,3650,3920,3668,847,0,0,0,0,0,0,0,0,0,0,0,3.132,4.01,8.746,0.929,-0.018,-0.095,-4.561,-19.613,8.911,4.173,-1.352,-1.828,angry
1.56,3326,3699,3953,3705,592,0,0,0,0,0,0,0,0,0,0,0,3.474,4.286,8.6,1.215,0.065,-0.066,-13.417,-19.613,-0.594,2.934,-1.385,-1.209,angry
1.57,3467,3734,3967,3743,525,0,0,0,0,0,0,0,0,0,0,0,2.682,3.948,9.033,1.491,0.188,-0.046,-15.23,-19.613,-3.553,1.572,-2.264,-0.445,angry
1.58,3567,3706,3978,3756,434,0,0,0,0,0,0,0,0,0,0,0,3.34,3.996,9.074,1.805,0.382,-0.048,-10.688,-19.613,-5.143,0.292,-1.571,-0.673,angry
1.59,3650,3526,3977,3765,259,0,0,0,0,0,0,0,0,0,0,0,4.199,4.13,8.775,2.23,0.462,-0.08,-14.449,-19.613,-7.01,-1.165,-0.272,-0.525,angry
1.6,3707,3208,3966,3760,68,0,0,0,0,0,0,0,0,0,0,0,4.597,3.721,8.21,2.76,0.567,-0.197,-10.156,-12.067,4.489,-2.321,0.023,0.091,angry
1.61,3753,2959,3929,3727,0,0,0,0,0,0,0,0,0,0,0,179,5.748,4.08,8.562,3.433,0.795,-0.417,7.518,-10.831,13.369,-1.583,2.587,0.171,angry
1.62,3783,2601,3791,3632,0,0,0,0,0,0,0,0,0,0,0,1308,4.384,2.71,8.866,4.085,0.922,-0.77,0.4,19.613,13.403,-4.135,-0.224,0.525,angry
1.63,3781,2187,3297,3399,0,0,0,0,0,0,0,0,0,0,23,2376,7.53,4.733,10.805,4.899,1.425,-1.46,0.402,-6.596,10.084,-6.479,0.82,1.737,angry
1.64,3728,1534,2787,2739,0,0,0,0,0,0,0,0,0,0,717,3283,4.492,4.393,19.613,5.847,0.568,-2.62,-0.833,-19.613,19.613,-4.926,1.025,0.311,angry
1.65,3455,626,2125,2017,0,0,0,0,0,0,0,0,6,0,1351,3568,2.222,15.852,19.613,7.202,-0.69,-3.774,1.817,0.261,15.605,-3.49,1.428,0.341,angry
1.66,2451,379,388,1131,0,0,0,0,0,0,0,0,23,0,1881,3591,10.183,5.49,19.613,7.331,-0.242,-5.35,1.875,-2.624,8.224,-3.63,0.594,0.081,angry
1.67,907,0,0,0,0,0,0,0,3,3,0,0,198,0,2567,4023,17.075,14.593,19.613,7.653,0.414,-6.338,2.006,-19.142,19.613,-3.584,2.482,0.879,angry
1.68,225,0,0,0,0,0,0,0,0,0,0,0,295,0,2787,4067,19.613,12.368,19.613,2.293,0.338,-3.683,4.642,-7.597,9.397,-0.994,2.028,0.827,angry
1.69,187,0,0,0,0,0,0,0,0,8,0,0,740,0,2969,4077,19.613,12.273,19.41,0.485,0.761,-1.656,-1.513,-5.456,16.568,-0.666,1.646,0.665,angry
1.7,331,0,0,0,0,0,0,0,0,0,0,0,1139,0,3119,4078,18.481,-3.836,15.914,-0.102,1.576,-0.656,4.19,-3.553,10.848,-0.334,1.274,0.482,angry
1.71,342,0,0,0,0,0,0,0,9,0,115,140,1612,0,3256,4095,13.362,-5.009,15.455,-0.895,0.555,0.468,0.359,-3.242,11.356,-0.244,0.964,0.371,angry
1.72,295,0,0,0,0,0,0,0,20,252,0,556,1853,0,3301,4095,11.906,-4.274,12.141,-1.237,-0.493,1.098,0.773,-2.612,10.587,-0.356,0.568,0.273,angry
1.73,242,0,0,0,0,0,0,0,11,411,0,905,2101,0,3349,4083,11.21,-1.511,13.683,-2.053,-1.03,1.762,1.269,-2.969,10.688,-0.284,0.385,0.262,angry
1.74,139,0,0,0,0,0,0,0,50,503,0,1204,2312,0,3273,4053,9.488,0.026,11.171,-2.972,-1.063,2.361,1.073,-2.873,10.116,-0.285,0.225,0.202,angry
1.75,137,0,0,0,0,0,0,0,46,683,0,1277,2503,56,3273,4003,6.144,0.716,10.005,-3.674,-0.948,2.635,2.444,-3.522,9.776,-0.247,0.13,0.17,angry
1.76,87,0,0,0,0,0,0,0,57,682,2,1383,2571,1,3131,3901,3.179,0.785,8.926,-4.15,-1.06,2.583,1.956,-2.71,9.586,-0.27,0.082,0.154,angry
1.77,63,0,0,0,0,0,0,0,63,747,0,1507,2636,1,2961,3769,2.181,1.978,9.598,-4.415,-1.348,2.398,2.064,-2.794,9.206,-0.302,0.078,0.143,angry
1.78,48,0,0,0,0,0,0,0,74,856,2,1701,2666,1,2741,3629,3.005,3.699,10.582,-4.751,-1.535,2.277,1.908,-2.538,9.299,-0.349,0.112,0.193,angry
1.79,46,0,0,0,0,0,0,0,62,1052,0,1816,2687,2,2312,3479,4.793,6.309,11.344,-5.081,-1.557,2.363,2.025,-2.674,9.373,-0.406,0.225,0.282,angry
1.8,55,0,0,0,0,0,0,0,101,1042,0,1971,2571,1,2029,3323,5.329,7.523,11.332,-5.304,-1.441,2.575,1.472,-2.962,9.158,-0.414,0.149,0.273,angry
1.81,75,0,0,0,0,0,0,0,215,1083,0,2261,2480,4,1781,3167,5.131,8.157,11.669,-5.263,-1.495,2.852,1.465,-3.115,9.443,-0.359,0.217,0.218,angry
1.82,101,0,0,0,0,0,0,0,455,1055,7,2386,2415,3,1662,2924,5.88,8.961,13.381,-5.056,-1.618,3.193,1.346,-4.003,10.003,-0.345,0.077,0.095,angry
1.83,98,0,0,0,0,0,0,0,842,1320,15,2655,2345,3,1227,2239,10.336,13.427,17.806,-4.81,-1.355,4.104,1.532,-3.428,9.562,-0.332,0.044,0.042,angry
1.84,65,0,0,0,0,0,0,0,1235,1459,2,2799,2267,4,1051,2057,8.612,18.043,17.04,-4.409,-0.162,5.189,1.561,-3.316,9.428,-0.323,-0.012,0.011,angry
1.85,31,0,0,0,0,0,0,0,1775,1718,2,2970,2197,0,216,1589,2.986,19.613,15.541,-3.654,0.138,4.532,1.247,-2.761,9.395,-0.234,0.088,0.072,angry
1.86,16,0,0,0,0,0,0,0,2136,1883,10,3055,2087,7,33,1178,-1.188,19.613,8.574,-3.322,0.285,3.504,1.607,-2.782,9.433,-0.319,0.187,0.022,angry
1.87,51,0,0,0,0,0,0,0,2345,1915,5,3104,1765,11,5,745,-11.502,19.613,1.654,-2.752,-0.82,2.553,1.666,-2.461,9.062,-0.478,0.155,-0.037,angry
1.88,94,0,0,0,15,0,0,0,2557,1977,23,3199,1501,3,3,573,-13.63,19.613,-7.034,-1.677,-2.164,1.593,1.568,-3.761,9.273,-0.397,0.148,-0.042,angry
1.89,141,0,0,0,0,0,0,0,2854,2184,15,3293,1160,5,3,317,-7.166,19.613,-13.714,1.008,-0.386,0.831,1.324,-3.105,9.637,-0.602,0.142,-0.112,angry
1.9,0,0,0,0,0,0,0,580,2969,2207,2,3348,891,3,1,234,-4.942,19.613,-6.175,3.609,0.561,-0.222,2.1,-2.411,9.843,-1.014,0.148,-0.187,angry
1.91,0,0,0,0,172,0,665,2704,3079,2267,2,3391,419,5,3,251,5.497,-3.553,19.113,4.429,-0.037,-1.449,2.799,-2.097,9.486,-1.415,0.193,-0.189,angry
1.92,0,0,0,0,455,0,2380,3517,3389,1651,2,3476,149,1,1,255,2.265,17.231,18.9,4.875,-1.712,-2.556,3.163,-1.295,9.787,-3.34,0.291,-0.313,angry
1.93,0,675,0,0,1339,0,3298,3662,3363,427,0,3282,13,0,0,140,19.613,19.613,1.12,1.358,2.563,-1.681,6.304,-0.184,14.667,-6.019,1.664,0.625,angry
1.94,0,2095,524,208,2167,0,3398,3690,3171,13,0,2933,0,0,0,157,0.144,4.468,17.875,0.922,2.937,-1.564,3.488,0.309,19.613,-7.832,1.856,1.985,angry
1.95,0,2710,2783,1357,2559,0,3449,3698,1497,0,0,1079,0,0,0,0,1.492,4.197,11.126,0.915,0.935,-0.966,5.229,-6.673,19.613,-8.353,1.877,5.47,angry
1.96,206,3010,3234,2115,2723,0,3482,3643,0,0,0,2,0,0,0,0,4.022,5.31,9.919,0.579,0.357,-0.475,12.665,12.258,19.613,-0.015,-0.727,7.198,angry
1.97,547,3199,3412,2413,2889,0,3428,3469,0,0,0,0,0,0,0,0,3.541,3.824,9.222,0.444,0.163,-0.315,19.613,0.599,16.51,0.877,-0.033,4.179,angry
1.98,630,3264,3479,2527,2958,0,3312,3281,0,0,0,0,0,0,0,0,3.697,4.171,8.722,0.461,0.06,-0.32,18.876,3.072,9.407,1.827,-0.443,2.302,angry
1.99,757,3330,3526,2627,2943,0,3139,3055,0,0,0,0,0,0,0,0,3.361,4.044,8.624,0.439,0.048,-0.247,15.615,4.377,10.111,2.507,-1.816,0.066,angry
2,908,3378,3568,2717,2833,0,2905,2793,0,0,0,0,0,0,0,0,3.831,3.812,8.365,0.457,0.023,-0.259,11.918,2.231,8.622,2.761,-2.655,-1.629,angry
2.01,1044,3418,3615,2791,2704,0,2656,2465,0,0,0,0,4,0,0,0,3.321,4.628,8.993,0.426,-0.002,-0.237,1.587,2.77,11.993,3.413,-2.929,-2.256,angry
2.02,1276,3482,3649,2854,2182,0,2073,1271,1,7,12,39,25,43,0,1,3.488,4.166,8.538,0.353,-0.016,-0.23,-7.017,1.369,9.687,4.504,-3.076,-0.989,angry
2.03,1463,3522,3690,2979,1681,0,1178,206,0,0,0,0,0,0,0,0,3.275,4.654,8.38,0.213,0.005,-0.164,-4.808,-1.41,12.373,5.165,-2.604,0.511,angry
2.04,1731,3536,3712,3047,1535,0,715,0,0,0,0,0,0,0,0,0,3.407,4.266,8.315,0.125,0.033,-0.205,-2.931,-2.72,13.319,5.389,-2.866,0.754,angry
2.05,1780,3563,3753,3100,1577,0,580,0,0,0,0,0,0,0,0,0,3.421,4.24,8.243,0.066,0.023,-0.262,-4.7,-3.73,14.775,5.7,-3.273,0.948,angry
2.06,1946,3575,3766,3167,1648,0,385,0,0,0,0,0,0,0,0,0,3.457,4.415,8.332,0.067,0.022,-0.281,-8.267,-4.769,15.275,5.585,-4.086,1.394,angry
2.07,2151,3604,3788,3234,1666,0,279,0,0,0,0,0,0,0,0,0,3.089,4.52,8.464,0.053,-0.002,-0.289,-8.954,-5.784,16.515,5.512,-4.631,2.144,angry
2.08,2316,3628,3815,3301,1681,0,257,0,0,0,0,0,0,0,0,0,3.187,4.441,8.404,0.052,-0.009,-0.244,-10.046,-8.612,19.295,5.533,-4.709,2.886,angry
2.09,2511,3655,3839,3373,1745,0,209,0,0,0,0,0,0,0,0,0,3.124,4.178,8.547,0.179,-0.01,-0.18,-10.027,-11.949,19.613,5.446,-4.497,3.556,angry
2.1,2851,3711,3882,3455,1456,0,147,0,0,9,7,0,1,0,3,2,3.364,4.216,8.459,0.361,0.103,-0.121,-19.613,-17.255,17.2,4.358,-4.917,3.991,angry
2.11,3003,3729,3911,3506,1091,0,0,0,1,0,0,0,0,0,0,0,3.364,4.015,8.514,0.614,0.145,-0.08,-19.352,-19.613,9.512,3.336,-3.901,4.112,angry
2.12,3157,3759,3922,3557,942,0,0,0,0,0,0,0,0,0,0,0,3.553,3.761,8.741,0.888,0.212,-0.1,-15.191,-19.613,4.221,2.139,-2.38,3.339,angry
2.13,3291,3759,3941,3599,625,0,0,0,0,0,0,0,0,0,0,0,3.345,4.238,8.784,1.191,0.301,-0.092,-9.553,-19.613,-1.044,0.695,-0.611,2.205,angry
2.14,3415,3743,3950,3627,304,0,0,0,0,0,23,0,85,0,0,0,2.964,4.089,8.655,1.492,0.412,-0.052,-9.136,-19.613,-0.658,-1.093,0.103,0.59,angry
2.15,3488,3691,3941,3630,487,0,0,0,0,0,0,0,0,0,0,0,2.813,4.432,8.705,1.788,0.591,0.062,-2.559,-18.328,1.228,-1.977,1.864,-1.375,angry
2.16,3536,3568,3917,3583,95,0,0,0,0,0,0,0,0,0,0,149,3.97,4.013,8.897,2.171,0.767,0.053,-14.538,5.339,19.613,-1.422,1.563,-0.997,angry
2.17,3571,3170,3870,3532,0,0,0,0,0,0,130,0,21,0,375,1375,4.719,2.488,9.646,2.971,0.831,-0.121,-1.504,14.449,17.231,-2.643,1.064,0.722,angry
2.18,3568,2226,3583,3054,0,0,0,0,8,0,0,0,216,0,2169,3323,5.818,1.293,10.285,4.769,0.942,-0.929,-0.979,-19.613,19.613,-2.237,4.517,2.676,angry
2.19,3359,790,1776,1194,0,0,0,0,0,731,0,0,757,0,2578,3729,5.203,11.147,19.613,6.109,-0.15,-1.908,2.945,-12.792,19.613,-1.145,2.953,0.189,angry
2.2,1360,0,0,20,0,0,0,0,69,1589,0,0,1670,0,2821,3957,2.638,-0.941,19.613,3.188,2.843,-2.377,0.733,-6.397,16.314,-1.054,2.131,-0.096,angry
2.21,661,0,0,0,0,0,0,0,101,1877,0,135,1785,2,2954,4070,8.08,-8.892,19.613,1.055,2.072,-2.255,0.381,-4.034,11.437,-0.953,1.433,-0.367,angry
2.22,256,0,0,0,0,0,0,0,205,2139,0,1555,2029,2,2844,4006,19.613,-4.843,15.277,-0.632,2.566,0.278,1.113,-3.335,10.044,-0.591,0.629,-0.541,angry
2.23,336,0,0,0,0,0,0,0,347,2233,0,1811,2040,4,2887,4025,13.18,-4.35,8.04,-1.251,1.972,2.89,-0.024,-2.828,10.168,-0.582,0.489,-0.467,angry
2.24,136,0,0,0,0,0,0,0,723,2515,0,2172,2077,0,2813,3998,8.078,-2.284,8.389,-1.855,1.053,3.767,0.089,-3.371,10.082,-0.49,0.242,-0.188,angry
2.25,28,0,0,0,0,0,0,0,1064,2631,0,2358,2212,4,2677,3934,5.94,-0.208,8.911,-2.718,0.872,3.688,0.74,-3.723,9.728,-0.204,0.103,-0.022,angry
2.26,20,0,0,0,0,0,0,0,1169,2662,2,2439,2248,4,2638,3896,4.968,1.204,9.543,-3.274,0.726,3.332,1.681,-3.342,9.608,-0.147,0.093,0.016,angry
2.27,0,0,0,0,0,0,0,0,1257,2667,0,2537,2291,3,2550,3861,5.993,3.184,9.318,-3.759,0.522,2.942,1.743,-3.139,9.452,-0.13,0.112,0.043,angry
2.28,16,0,0,0,0,0,0,0,1307,2639,2,2509,2339,2,2536,3813,10.372,5.923,7.767,-3.973,0.563,2.744,1.836,-3.172,9.309,-0.149,0.156,0.055,angry
2.29,17,0,0,0,0,0,0,0,1372,2635,2,2613,2341,3,2389,3673,17.959,11.238,6.124,-3.811,0.782,3.338,1.899,-3.194,9.282,-0.142,0.152,0.061,angry
2.3,0,0,0,0,0,0,0,0,1389,2642,5,2587,2263,11,2203,3736,19.613,16.293,-0.151,-3.078,1.008,4.883,1.865,-3.273,9.299,-0.155,0.161,0.067,angry
2.31,14,0,0,0,0,0,0,0,1491,2581,2,2591,2182,3,2109,3773,18.842,19.613,-6.038,-0.285,1.129,7.536,1.863,-3.426,9.213,-0.163,0.131,0.071,angry
2.32,0,0,0,0,0,0,0,0,1651,2534,5,2573,1900,0,2065,3631,6.993,19.613,-2.873,2.041,1.258,8.731,1.674,-3.316,9.23,-0.135,0.093,0.077,angry
2.33,0,0,0,0,33,0,0,0,1717,2507,2,2533,1789,2,2063,3624,1.211,19.613,-4.659,3.174,1.059,7.995,1.621,-3.196,9.256,-0.151,0.066,0.076,angry
2.34,0,0,0,0,31,0,0,0,1780,2489,2,2504,1695,3,1929,3623,0.946,19.613,-10.704,4.108,1.812,6.865,1.798,-3.457,9.34,-0.196,0.063,0.08,angry
2.35,0,0,0,0,253,0,0,0,1865,2373,2,2523,1683,3,1843,3627,19.613,19.613,-19.613,3.792,5.385,4.444,1.784,-3.649,9.469,-0.164,0.048,0.094,angry
2.36,1,1010,0,0,511,0,0,0,2063,2095,46,2504,1494,4,2037,3683,-9.929,19.613,18.794,1.788,3.039,2.607,1.305,-3.967,9.833,0.142,-0.064,0.1,angry
2.37,400,2191,1370,259,997,0,385,0,2071,1897,2,2440,1481,5,2149,3710,15.093,-0.685,-0.354,-0.008,1.112,0.87,1.24,-3.68,9.529,0.261,-0.043,0.089,angry
2.38,897,2559,2368,848,1667,0,2057,1488,1710,1349,140,2261,1227,3,1926,3860,6.416,6.249,6.469,1.463,-0.408,-1.254,0.833,-2.873,9.747,0.349,-0.122,0.299,angry
2.39,1414,2768,2831,1597,1975,0,2737,2658,735,612,2,985,477,0,1061,3863,1.889,4.875,10.192,0.262,-0.243,-0.35,-3.946,-0.512,12.481,0.551,-0.451,1.299,angry
2.4,1857,2830,3012,1891,2231,0,2971,2953,333,218,5,319,175,0,978,3795,2.677,4.149,9.342,0.047,-0.084,-0.23,-7.542,0.239,12.503,0.76,-0.6,2.569,angry
2.41,2125,2986,3120,2079,2458,0,3166,3122,0,0,0,0,0,0,29,3422,3.943,4.384,8.478,0.011,-0.072,-0.134,-4.326,-10.597,13.843,1.61,-1.517,4.575,angry
2.42,2297,3107,3183,2219,2548,0,3225,3211,0,0,0,0,2,0,83,2468,3.994,4.178,8.483,0.046,0,-0.072,-1.535,-12.833,9.491,3.394,-2.36,5.446,angry
2.43,2465,3155,3248,2389,2639,0,3225,3254,0,0,0,0,0,0,0,2233,4.118,4.329,8.313,0.071,0.119,-0.039,-6.009,-12.493,5.04,3.058,-2.337,6.192,angry
2.44,2557,3228,3287,2510,2611,0,3190,3267,1,0,0,0,0,0,0,1575,3.828,4.226,8.337,0.134,0.156,0.026,-4.913,-15.914,2.492,2.354,-2.374,7.572,angry
2.45,2649,3274,3327,2603,2629,0,3103,3234,0,1,2,0,13,0,0,1072,3.634,4.037,8.329,0.213,0.266,0.132,-4.7,-10.851,3.555,0.763,-0.587,6.562,angry
2.46,2722,3294,3350,2683,2524,0,2922,3175,0,0,0,0,0,0,0,665,3.005,4.022,8.775,0.235,0.34,0.25,-4.345,-8.997,7.745,0.229,-0.21,6.234,angry
2.47,2806,3310,3355,2767,2439,0,2722,3132,0,0,0,0,0,0,0,614,2.895,3.926,8.89,0.249,0.349,0.369,-2.665,-4.168,10.918,-0.03,0.303,5.429,angry
2.48,2851,3299,3342,2831,2339,0,2603,3109,0,0,0,0,0,0,0,405,2.614,4.051,8.667,0.214,0.363,0.457,0.582,-0.158,10.862,0.145,0.637,4.648,angry
2.49,2930,3277,3328,2863,2118,0,2530,3117,0,0,0,0,0,0,0,263,3.144,4.161,8.547,0.175,0.37,0.439,1.513,0.266,11.55,0.397,0.456,4.187,angry
2.5,2954,3262,3337,2895,1865,0,2525,3119,0,0,0,0,5,0,0,243,3.124,4.118,8.526,0.133,0.337,0.39,2.037,0.192,11.258,0.663,0.302,3.779,angry
2.51,2977,3246,3338,2928,1813,0,2505,3127,0,0,0,0,0,0,0,213,3.378,4.132,8.392,0.108,0.309,0.334,1.602,-0.522,11.171,0.888,0.158,3.493,angry
2.52,3023,3247,3374,2972,1909,0,2559,3138,0,0,0,0,0,0,0,185,3.184,4.008,8.595,0.09,0.258,0.284,0.831,-3.39,10.063,1.147,0.019,3.58,angry
2.53,3031,3228,3395,3024,1835,0,2559,3137,0,0,12,0,0,0,0,117,3.105,3.797,8.624,0.153,0.294,0.286,1.104,-6.56,8.775,1.305,-0.259,4.344,angry
2.54,3105,3216,3429,3093,1851,0,2448,3107,0,0,0,0,0,0,0,88,3.012,3.982,8.595,0.203,0.258,0.306,3.34,-9.11,8.373,1.391,-0.313,4.646,angry
2.55,3119,3205,3441,3118,1924,0,2377,3053,5,0,0,0,0,0,0,69,3.134,3.855,8.576,0.26,0.268,0.354,6.088,-11.123,6.294,1.428,-0.458,4.703,angry
2.56,3132,3202,3472,3174,1593,0,1986,2847,5,21,0,0,0,0,3,122,2.66,3.79,9.081,0.341,0.287,0.422,2.847,-13.163,0.323,0.61,-1.055,3.611,angry
2.57,3101,3174,3515,3184,1255,0,1343,2192,12,6,28,5,20,9,0,1255,2.492,3.45,8.959,0.394,0.249,0.496,11.49,-4.257,13.424,-0.229,-1.244,0.539,angry
2.58,3060,3125,3487,3124,542,0,368,0,0,0,0,0,0,0,0,2283,3.864,2.82,8.665,0.804,0.603,0.343,11.313,4.329,13.403,-0.543,-0.939,0.208,angry
2.59,2837,2933,3434,3046,237,0,30,0,0,0,0,0,0,0,697,2847,4.228,3.56,8.871,0.998,0.719,0.089,6.974,4.525,14.301,-1.003,-0.729,-0.119,angry
2.6,2683,2496,3307,3043,0,0,0,0,0,0,0,0,0,0,1339,3128,5.818,6.144,8.598,0.832,0.834,-0.573,0.661,0.314,6.337,-1.197,-0.155,0.098,angry
2.61,2653,1789,3138,3088,0,0,0,0,0,0,0,0,7,0,1574,3303,8.665,6.472,7.472,0.429,1.295,-1.192,-15.641,6.946,19.613,-2.655,-1.75,0.503,angry
2.62,2517,848,2638,3017,0,0,0,0,0,1,0,0,7,0,1897,3433,6.014,6.766,8.674,-0.647,1.714,-1.93,8.619,-9.12,13.441,-0.881,-0.923,0.124,angry
2.63,2133,361,1225,2619,0,0,0,0,0,0,0,3,0,0,2247,3549,13.477,11.873,4.884,-1.644,2.808,-2.987,3.23,-0.603,12.637,-0.488,-0.785,0.28,angry
2.64,689,0,0,647,0,0,0,0,0,0,0,559,357,0,2711,3731,19.613,19.613,3.642,-1.053,5.513,-4.838,0.536,-2.78,11.128,-0.264,0.305,0.406,angry
2.65,503,0,0,9,0,0,0,0,5,6,23,565,333,8,2813,3774,19.613,19.613,-2.282,0.499,5.05,1.147,0.484,-2.128,9.847,-0.145,0.432,0.373,angry
2.66,410,0,0,0,0,0,0,0,7,7,0,585,443,7,2924,3816,19.613,19.613,-4.329,1.55,3.988,5.785,0.644,-2.43,10.029,-0.189,0.171,0.288,angry
2.67,442,0,0,0,0,0,0,0,9,7,12,731,565,8,3003,3829,12.335,16.961,7.142,2.359,2.376,7.541,0.716,-2.047,9.766,-0.286,-0.138,0.211,angry
2.68,395,0,0,0,0,0,0,0,9,10,135,1149,855,18,3050,3821,-2.883,0.919,12.78,2.012,0.178,6.445,0.778,-2.468,9.934,-0.331,-0.316,0.154,angry
2.69,217,0,0,0,0,0,0,0,1,0,25,1033,867,2,3054,3795,0.292,-1.384,12.62,1.685,-1.422,4.502,1.01,-2.756,9.843,-0.243,-0.212,0.139,angry
2.7,109,0,0,0,0,0,0,0,0,0,0,1366,1005,0,3039,3749,7.678,-1.549,11.588,0.787,-1,3.077,0.857,-2.464,9.668,-0.206,-0.081,0.168,angry
2.71,54,0,0,0,0,0,0,0,5,6,17,1269,1141,0,3035,3699,8.957,-1.508,9.318,0.017,-0.345,2.536,0.982,-2.251,9.407,-0.183,0.022,0.247,angry
2.72,73,0,0,0,0,0,0,0,9,9,43,1358,1133,18,2984,3609,9.342,-0.73,8.425,-0.157,-0.56,2.64,1.046,-2.327,9.783,-0.268,0.112,0.345,angry
2.73,91,0,0,0,0,0,0,0,9,7,23,1481,1067,7,2931,3561,11.234,1.053,7.142,-0.163,-0.713,3.063,0.766,-2.674,9.459,-0.224,0.212,0.423,angry
2.74,63,0,0,0,0,0,0,0,7,7,23,1630,1107,9,2876,3495,11.071,2.433,7.487,-0.208,-0.676,3.613,0.591,-2.689,9.687,-0.273,0.224,0.485,angry
2.75,41,0,0,0,0,0,0,0,24,5,17,1757,1230,6,2681,3417,9.898,3.472,7.93,-0.153,-0.829,4.182,1.714,-3.019,9.203,-0.231,0.119,0.387,angry
2.76,2,0,0,0,0,0,0,0,77,10,17,1946,1294,8,2585,3355,9.768,4.216,8.066,-0.044,-0.855,4.695,0.982,-2.823,9.603,-0.305,0.052,0.369,angry
2.77,35,0,0,0,0,0,0,0,99,11,23,2103,1365,8,2451,3307,9.685,5.128,8.796,0.055,-0.646,5.142,1.061,-3.203,9.467,-0.259,0.058,0.32,angry
2.78,16,0,0,0,0,0,0,0,171,0,28,2293,1419,7,2193,3284,8.926,7.02,10.592,0.099,-0.525,5.558,0.656,-3.086,10.204,-0.184,0.127,0.25,angry
2.79,29,0,0,0,0,0,0,0,219,7,12,2395,1502,6,2148,3220,7.606,7.901,10.087,0.108,-0.372,5.894,0.953,-3.158,9.991,-0.182,0.201,0.256,angry
2.8,42,0,0,0,0,0,0,0,357,9,17,2548,1463,7,2130,3189,5.763,8.047,8.961,0.221,-0.022,6.004,1.736,-5.59,8.839,-0.035,0.42,0.31,angry
2.81,39,0,0,0,0,0,0,0,453,0,17,2683,1435,8,1952,3135,4.702,9.256,9.407,0.305,0.531,5.967,0.881,-2.459,10.293,-0.117,0.26,0.31,angry
2.82,48,0,0,0,0,0,0,0,721,23,23,2740,1647,10,1829,3055,3.637,11.384,11.952,0.151,1.147,5.879,1.403,-3.965,9.553,-0.021,0.11,0.241,angry
2.83,32,0,0,0,0,0,0,0,901,8,94,2943,1800,8,1663,2909,-1.772,13.484,18.292,-0.317,0.935,5.696,1.053,-0.745,9.357,-0.038,-0.095,0.09,angry
2.84,0,0,0,0,0,0,0,0,1086,355,33,3019,1890,14,1327,2502,-5.009,15.811,15.306,-0.452,0.514,5.103,1.135,-1.836,8.815,-0.095,-0.142,0.083,angry
2.85,7,0,0,0,0,0,0,0,1695,563,25,3243,2105,13,457,1822,-8.531,19.613,7.41,-1.014,-0.195,3.594,0.958,-3.033,9.634,-0.023,-0.254,0.103,angry
2.86,13,0,0,0,0,0,0,0,1970,889,0,3387,2201,13,77,1327,-6.318,19.613,-3.5,-0.125,0.207,2.088,0.876,-2.861,10.06,-0.16,-0.285,0.1,angry
2.87,0,0,0,0,0,0,0,0,2335,1365,20,3539,1950,10,9,665,-6.649,19.613,-5.239,1.241,0.576,1.384,0.699,-4.288,8.854,-0.488,-0.436,0.134,angry
2.88,0,0,0,0,0,0,79,770,2581,1573,20,3567,1839,10,9,595,-6.835,19.613,-5.859,2.733,1.015,1.378,0.031,-4.417,9.376,-0.677,-0.469,0.126,angry
2.89,0,0,0,0,314,0,860,3197,2893,1701,0,3636,443,10,7,401,-12.407,2.521,19.613,2.248,1.861,-1.536,1.901,-1.231,9.177,-1.163,-0.752,0.201,angry
2.9,0,0,0,0,432,0,2236,3599,2983,1438,17,3659,299,0,7,315,9.653,9.081,6.541,2.779,-0.176,-1.616,2.808,-1.207,12.9,-2.825,-0.097,-0.215,angry
2.91,0,230,0,0,1223,0,3090,3722,3037,475,0,3485,171,0,0,245,6.237,17.561,15.007,1.064,1.558,-0.929,5.351,-2.023,12.107,-5.544,1.312,0.397,angry
2.92,0,1308,0,0,1884,0,3359,3778,2293,0,0,1912,0,0,9,110,5.696,6.158,11.566,0.538,1.539,-0.721,9.555,-3.251,19.613,-8.731,1.769,3.825,angry
2.93,0,2116,1307,367,2465,0,3475,3793,1640,0,0,879,0,0,0,89,4.839,3.381,8.729,0.614,0.886,-0.624,5.595,0.383,19.613,-8.731,2.206,5.224,angry
2.94,0,2448,2271,864,2689,0,3517,3770,0,0,0,0,0,0,0,39,3.926,4.717,10.005,0.399,0.423,-0.282,12.941,1.35,19.613,-4.313,-0.685,5.364,angry
2.95,42,2559,2608,1174,2821,0,3536,3734,0,0,0,0,0,5,0,20,3.057,3.864,10.022,0.303,0.216,-0.193,19.613,6.448,19.613,-0.124,1.18,4.438,angry
2.96,234,2725,2839,1353,2896,0,3519,3602,0,0,0,0,0,0,0,31,3.637,3.378,8.847,0.274,0.115,-0.122,11.897,7.611,9.792,2.381,-0.838,0.267,angry
2.97,272,2838,2930,1447,2917,0,3469,3486,0,0,0,0,0,0,0,28,3.807,3.486,8.717,0.282,0.114,-0.139,7.604,7.791,9.919,2.649,-1.928,-0.674,angry
2.98,281,2917,3012,1616,2943,0,3396,3345,0,0,0,0,0,0,0,0,3.761,3.907,9.527,0.277,0.025,-0.132,6.596,2.942,9.036,3.264,-2.246,-1.216,angry
2.99,291,2983,3050,1639,2983,0,3310,3200,0,2,0,0,0,0,4,0,3.797,4.053,9.024,0.174,-0.105,-0.055,0.175,2.227,13.08,4.268,-2.284,-1.185,angry
3,267,3035,3105,1535,2990,0,3137,2960,0,0,0,0,0,0,59,0,3.752,3.85,8.878,0.1,-0.172,0.009,-2.952,0.931,12.213,4.572,-2.677,-1.009,angry
3.01,281,3071,3122,1600,2967,0,3014,2786,0,0,0,69,0,0,0,0,3.742,3.565,8.073,0.044,-0.09,0.009,-1.573,-1.839,11.322,4.966,-2.488,-0.654,angry
3.02,236,3122,3166,1723,2987,0,2992,2726,0,0,0,0,0,0,4,0,3.716,3.359,8.198,0.048,0.074,-0.07,-0.225,-3.761,13.633,5.269,-2.344,-0.988,angry
3.03,208,3178,3233,1939,3005,0,2986,2748,0,0,0,25,0,4,0,0,3.254,2.919,8.373,0.139,0.158,-0.146,0.204,-4.676,15.553,5.443,-2.339,-1.335,angry
3.04,378,3249,3355,2128,3057,0,2988,2755,0,0,0,0,0,0,0,0,3.1,3.701,9.191,0.175,0.167,-0.242,-1.085,-6.237,18.792,5.412,-2.531,-1.722,angry
3.05,497,3367,3487,2285,3121,0,2916,2559,0,0,0,0,0,0,0,0,3.426,3.385,8.605,0.375,0.1,-0.326,-1.058,-9.689,19.613,5.698,-1.968,-1.508,angry
3.06,903,3498,3609,2490,3231,0,2646,1699,9,0,0,0,0,0,0,0,3.474,3.879,9.043,0.413,-0.098,-0.355,-4.353,-13.477,19.613,5.273,-2.601,-1.596,angry
3.07,1593,3664,3711,2756,3271,0,2255,0,0,0,0,0,0,0,0,0,3.785,4.271,8.416,0.528,-0.139,-0.296,-2.217,-19.613,13.654,3.926,-2.488,-1.616,angry
3.08,2179,3794,3791,2901,2651,0,1123,0,0,0,0,0,0,0,0,0,3.412,4.235,8.49,0.736,0.064,-0.305,-12.572,-19.613,0.294,1.997,-2.386,-1.749,angry
3.09,2700,3911,3873,3071,1741,0,705,0,0,0,0,0,0,0,0,0,3.694,3.84,8.337,1.246,0.166,-0.216,-13.805,-19.613,-4.997,0.8,-1.856,-1.411,angry
3.1,3049,3951,3923,3195,1072,0,637,0,0,0,0,0,0,0,0,0,3.986,4.154,8.576,1.537,0.348,-0.28,-14.243,-19.613,2.713,-2.508,0.879,-0.866,angry
3.11,3214,3954,3942,3252,771,0,595,0,0,0,0,0,0,0,0,103,4.041,3.895,8.933,1.877,0.285,-0.322,0.56,-12.421,5.88,-1.717,2.57,0.112,angry
3.12,3363,3917,3945,3301,560,0,493,0,16,0,7,0,22,0,0,510,4.659,3.39,8.595,2.416,0.471,-0.419,0.469,13.841,19.613,-1.929,1.758,0.423,angry
3.13,3475,3824,3926,3332,511,0,419,0,0,0,0,0,0,0,0,1517,4.81,2.03,8.571,3.348,0.647,-0.538,2.66,9.359,1.712,-4.817,-0.009,0.343,angry
3.14,3539,3540,3873,3303,223,0,163,0,0,0,2,0,0,0,0,2218,5.447,2.593,7.92,4.379,0.903,-0.989,-1.293,-12.668,19.613,-2.835,1.714,1.137,angry
3.15,3551,2090,3431,2782,0,0,0,0,0,0,0,0,0,0,891,3051,9.299,8.097,15.421,5.839,0.485,-2.54,-1.882,2.89,11.447,-2.696,0.889,0.768,angry
3.16,3379,1429,2745,1892,0,0,0,0,0,0,0,0,0,0,1306,3359,6.713,7.326,19.613,7.089,-0.608,-3.93,4.039,-4.714,10.546,-2.563,0.4,0.579,angry
3.17,2651,583,1363,1215,0,0,0,0,0,0,0,0,0,0,2191,3813,18.119,10.341,19.613,7.46,-0.504,-5.332,1.214,-3.754,14.049,-2.211,0.46,0.51,angry
3.18,570,0,0,107,0,0,0,0,0,0,0,0,205,0,2599,3895,16.455,10.453,19.613,4.691,0.126,-6.108,2.059,-9.141,15.419,-2.194,1.067,0.5,angry
3.19,0,0,0,0,0,0,0,0,0,0,0,0,415,0,2900,3943,19.613,-2.512,19.613,0.869,0.225,-4.489,-2.942,-0.948,14.995,-1.34,0.871,0.322,angry
3.2,0,0,0,0,0,0,0,0,0,0,2,0,913,0,3119,4008,19.613,1.082,10.372,0.059,0.674,-1.406,4.13,-4.515,11.289,-0.854,0.547,0.365,angry
3.21,0,0,0,0,0,0,0,0,0,0,0,0,1385,0,3160,3805,16.398,-5.222,11.868,-0.245,0.927,-0.224,0.189,-1.326,11.301,-0.523,0.367,0.352,angry
3.22,0,0,0,0,0,0,0,0,0,0,0,0,1740,0,3286,3977,12.922,-3.124,11.945,-0.817,0.286,0.814,2.143,-2.342,10.087,-0.392,0.277,0.326,angry
3.23,0,0,0,0,0,0,0,0,11,0,0,33,2077,0,3363,3965,11.849,-3.141,11.408,-1.244,-0.485,1.607,1.441,-2.794,10.965,-0.428,0.159,0.187,angry
3.24,0,0,0,0,0,0,0,0,0,0,0,205,2315,0,3383,3943,9.938,-1.128,11.638,-2.067,-0.403,2.308,1.743,-2.476,10.036,-0.402,0.042,0.126,angry
3.25,0,0,0,0,0,0,0,0,0,0,0,181,2553,0,3388,3898,6.625,0.364,11.152,-2.836,-0.385,2.832,1.887,-2.504,9.895,-0.324,-0.027,0.09,angry
3.26,0,0,0,0,0,0,0,0,0,0,0,211,2647,0,3314,3823,3.23,0.388,9.524,-3.421,-0.449,3.064,2.047,-2.557,9.644,-0.26,-0.022,0.064,angry
3.27,0,0,0,0,0,0,0,0,0,0,0,213,2668,0,3192,3640,2.004,1.216,8.346,-3.716,-0.581,3.101,1.81,-2.373,9.476,-0.272,0.035,0.075,angry
3.28,0,0,0,0,0,0,0,0,0,0,0,306,2730,0,3077,3509,2.497,2.43,9.438,-4.019,-0.565,3.095,1.958,-2.509,9.483,-0.236,0.132,0.097,angry
3.29,0,0,0,0,0,0,0,0,0,0,0,317,2911,0,2815,3417,3.795,4.18,10.113,-4.392,-0.418,3.139,2.071,-2.389,9.562,-0.233,0.171,0.099,angry
3.3,0,0,0,0,0,0,0,0,0,108,28,411,2872,0,2553,3311,4.901,5.887,11.114,-4.712,-0.329,3.217,2.298,-2.413,9.5,-0.205,0.225,0.156,angry
3.31,0,0,0,0,0,0,0,0,0,271,0,617,2922,0,2403,3197,5.801,7.606,11.751,-4.956,-0.403,3.358,1.954,-2.456,9.565,-0.247,0.185,0.18,angry
3.32,0,0,0,0,0,0,0,0,0,373,17,916,2923,0,2325,3103,6.292,8.976,12.673,-5.146,-0.513,3.508,1.429,-2.136,9.764,-0.253,0.185,0.269,angry
3.33,0,0,0,0,0,0,0,0,0,357,0,1049,2934,56,2228,3026,7.207,10.537,14.169,-5.286,-0.662,3.628,1.432,-2.061,9.148,-0.371,0.14,0.374,angry
3.34,0,0,0,0,0,0,0,0,0,317,7,1312,2943,0,2231,2967,8.114,11.923,16.367,-5.355,-0.768,3.71,1.566,-1.776,9.05,-0.475,0.18,0.536,angry
3.35,0,0,0,0,0,0,0,0,4,479,0,1596,2971,1,2275,2900,8.387,13.149,19.003,-5.342,-0.971,3.726,2.042,-2.763,9.129,-0.627,0.111,0.645,angry
3.36,0,0,0,0,0,0,0,0,111,507,2,1809,3047,11,2423,2833,10.575,15.811,19.613,-5.33,-1.15,3.628,1.307,-2.751,9.869,-0.465,0.131,0.579,angry
3.37,0,0,0,0,0,0,0,0,311,960,0,2150,3081,9,2389,2584,5.179,19.613,19.613,-5.319,-1.267,3.648,1.829,-3.601,9.95,-0.234,0.091,0.334,angry
3.38,0,0,0,0,0,0,0,0,474,1291,23,2387,3129,11,2397,2349,0.56,19.613,15.225,-4.392,-2.346,3.01,1.41,-3.824,10.271,-0.225,0.004,0.228,angry
3.39,0,0,0,0,0,0,0,0,1083,1928,294,2597,3420,0,2186,1675,-8.856,19.613,5.703,-4.175,-2.093,1.239,2.061,-3.417,8.674,-0.137,0.314,0.137,angry
3.4,0,0,0,0,0,0,0,0,1971,2283,23,2833,3403,13,981,1245,-13.546,19.613,-12.924,-1.998,-1.229,-0.828,1.75,-2.722,9.407,-0.252,0.256,0.159,angry
3.41,0,0,0,0,0,0,0,0,2249,2381,23,2958,2987,12,181,947,-3.922,19.613,-10.676,1.637,-0.203,-1.176,1.41,-0.472,9.778,-0.62,0.188,0.018,angry
3.42,0,0,0,0,0,0,176,905,2647,2478,99,3077,2554,4,6,547,3.924,12.854,-0.862,2.32,3.418,-0.421,1.211,-2.389,9.601,-0.863,0.128,-0.1,angry
3.43,0,0,0,0,295,0,1039,3200,2980,2395,17,3015,1651,8,6,411,-11.219,-1.427,9.522,6.076,-0.846,-1.539,1.839,-0.685,10.072,-2.516,0.08,-0.259,angry
3.44,0,0,0,0,468,0,2352,3562,3055,2173,0,2974,949,0,0,331,4.336,19.613,19.01,3.001,0.078,-2.069,2.607,-1.073,9.692,-4.219,0.152,-0.244,angry
3.45,0,80,0,0,695,0,3151,3774,3081,607,0,2635,155,0,0,265,18.11,12.526,14.667,1.725,2.418,-2.066,3.759,-1.975,19.613,-7.893,0.456,1.253,angry
3.46,0,955,0,0,1677,0,3390,3791,1835,4,0,939,0,0,0,119,-1.13,3.371,16.903,0.506,2.656,-1.266,12.225,0.898,19.613,-8.731,1.737,4.586,angry
3.47,0,1456,31,0,1904,0,3431,3847,803,0,0,5,0,0,0,1,4.389,6.756,11.394,0.588,2.103,-0.991,6.651,-5.219,19.613,-8.731,2.244,4.988,angry
3.48,0,1838,747,314,2207,0,3457,3858,0,0,0,0,0,0,0,0,1.635,4.707,11.078,0.435,1.203,-0.605,3.615,-6.366,19.613,-5.043,1.632,5.101,angry
3.49,90,2094,1571,816,2385,0,3488,3863,0,47,0,0,0,0,0,8,3.551,4.12,10.135,0.461,0.789,-0.468,19.613,12.507,19.613,0.898,0.885,6.234,angry
3.5,219,2233,2007,1051,2438,0,3511,3849,0,0,0,0,0,0,0,9,2.672,3.235,10.338,0.488,0.501,-0.399,19.613,8.401,19.613,2.62,1.073,3.695,angry
3.51,348,2385,2368,1318,2405,0,3497,3797,0,0,0,0,0,0,0,12,3.419,3.984,9.543,0.429,0.327,-0.297,17.497,2.705,10.702,2.79,1.389,2.233,angry
3.52,402,2530,2629,1498,2441,0,3450,3716,0,0,0,0,0,0,0,24,4.003,3.788,8.854,0.363,0.292,-0.262,11.688,5.377,14.681,3.394,-0.465,0.803,angry
3.53,505,2727,2877,1763,2469,0,3270,3523,0,0,0,0,0,0,0,0,3.979,3.831,8.574,0.349,0.295,-0.343,16.008,1.123,10.882,3.827,-1.861,-0.92,angry
3.54,598,2819,3056,2096,2291,0,2893,3283,0,0,0,0,0,0,0,0,3.342,3.515,8.866,0.382,0.306,-0.355,2.009,-0.508,10.688,4.939,-2.455,-2.716,angry
3.55,573,2913,3216,2423,1938,0,2484,2950,0,0,28,0,0,0,0,0,3.196,3.524,9.043,0.456,0.132,-0.458,-2.559,-2.789,10.484,5.602,-2.734,-1.919,angry
3.56,846,2993,3367,2687,1585,0,1968,2592,41,0,0,0,0,0,0,0,3.778,3.122,8.119,0.277,0.228,-0.387,-3.089,-3.603,12.378,5.849,-2.115,-1.095,angry
3.57,1229,3080,3520,2969,1194,0,1381,1965,0,0,0,0,0,0,0,0,3.105,5.66,9.445,0.318,0.058,-0.253,0.034,-6.306,15.605,6.124,-2.122,-0.308,angry
3.58,1865,3198,3653,3187,1255,0,958,1153,31,0,0,0,0,0,0,0,3.144,3.862,8.686,0.301,0.005,-0.197,3.349,-9.203,19.613,6.053,-2.553,-1.225,angry
3.59,2430,3334,3749,3349,1325,0,379,30,0,0,0,0,0,0,0,0,3.359,3.974,8.655,0.295,-0.072,-0.209,5.619,-11.504,19.613,5.935,-2.934,-1.889,angry
3.6,2805,3465,3822,3474,977,0,179,0,0,0,0,0,0,0,26,0,2.892,4.063,8.803,0.465,-0.051,-0.173,-4.013,-19.613,19.613,5.753,-3.449,-3.061,angry
3.61,3092,3573,3887,3554,814,0,0,0,0,0,0,0,0,0,0,0,3.124,4.032,8.722,0.816,0.037,-0.118,-7.374,-19.613,9.565,4.288,-2.173,-2.658,angry
3.62,3274,3641,3918,3613,917,0,0,0,0,0,0,0,0,0,0,0,3.168,4.305,8.835,1.084,0.064,-0.103,-14.483,-19.613,-1.985,2.805,-2.142,-2.274,angry
3.63,3407,3678,3938,3648,592,0,0,0,2,0,0,0,0,0,0,0,3.361,4.468,8.425,1.288,0.229,-0.115,-14.516,-19.613,-4.029,1.409,-1.95,-1.703,angry
3.64,3526,3705,3949,3666,366,0,0,0,0,0,23,0,0,0,0,0,3.316,4.489,9.11,1.51,0.331,-0.051,-12.787,-19.613,-3.615,0.209,-0.911,-1.638,angry
3.65,3637,3687,3959,3699,308,0,0,0,0,0,0,0,4,0,0,0,3.814,4.034,8.468,1.957,0.457,-0.115,-15.349,-19.613,-2.899,-0.924,-0.197,-0.959,angry
3.66,3703,3539,3958,3696,208,0,0,0,0,0,0,0,0,0,0,0,3.709,4.07,9.17,2.286,0.597,-0.142,-9.256,-19.613,-8.045,-3.091,0.615,-0.509,angry
3.67,3747,2982,3949,3696,64,0,0,0,0,0,0,0,0,0,0,421,4.228,3.9,8.42,3.045,0.709,-0.289,-0.879,3.005,19.613,-2.558,2.599,-0.057,angry
3.68,3760,2705,3889,3653,0,0,0,0,0,5,0,0,0,0,0,1494,5.746,3.996,9.026,3.787,0.924,-0.517,-7.556,19.613,14.88,-5.424,-0.711,0.308,angry
3.69,3803,2235,3703,3488,0,0,0,0,0,0,0,0,0,0,0,2361,6.965,2.914,9.582,4.743,1.18,-1.067,0.299,-9.754,13.132,-6.418,0.378,1.249,angry
3.7,3787,1823,2960,2806,0,0,0,0,0,0,0,0,0,0,403,2862,7.843,4.171,14.387,5.416,1.453,-2.105,-1.731,-19.613,19.613,-4.772,0.533,-0.043,angry
3.71,3505,430,2000,1840,0,0,0,0,0,0,0,0,0,0,1068,3307,6.029,13.774,19.613,6.921,1.357,-4.6,4.015,-1.159,11.914,-3.509,0.75,0.627,angry
3.72,2427,262,176,946,0,0,0,0,0,37,0,0,0,0,1685,3435,8.997,8.918,19.613,6.851,1.473,-6.192,7.276,-7.369,10.053,-3.231,0.193,0.072,angry
3.73,1007,0,0,0,0,0,0,0,0,0,0,0,0,0,2291,3847,2.974,7.42,19.613,4.731,1.823,-6.969,-2.018,-6.776,15.684,-2.519,0.417,0.22,angry
3.74,458,0,0,0,0,0,0,0,0,0,0,0,133,2,2681,3891,15.51,-4.319,19.613,0.348,-1.287,-6.567,-3.498,-7.755,19.613,-1.206,1.556,0.73,angry
3.75,483,0,0,0,0,0,0,0,0,0,0,0,263,0,2897,3965,19.613,-2.471,14.971,-0.05,-0.621,-3.613,1.621,-3,11.914,-0.21,1.426,0.125,angry
3.76,461,0,0,0,0,0,0,0,6,0,0,0,456,0,3038,3989,19.613,-0.362,15.842,-0.833,-0.561,-0.35,1.156,-3.084,12.105,-0.131,0.87,0.152,angry
3.77,493,0,0,0,0,0,0,0,0,19,0,0,596,0,3183,4007,19.355,-3.953,15.445,-1.378,-1.521,1.892,2.059,-2.382,10.918,-0.057,0.877,0.182,angry
3.78,465,0,0,0,0,0,0,0,0,1,0,0,1055,0,3241,4095,8.947,-4.441,15.201,-1.98,-1.949,2.824,0.192,-1.884,10.467,-0.056,0.581,0.142,angry
3.79,415,0,0,0,0,0,0,0,0,0,0,55,1240,0,3243,3995,1.738,-4.058,16.202,-2.827,-2.414,2.704,2.035,-2.784,10.307,-0.249,0.33,0.151,angry
3.8,353,0,0,0,0,0,0,0,0,0,0,30,1471,0,3218,3976,0.977,-2.138,13.491,-3.634,-2.489,2.275,1.844,-2.667,9.871,-0.211,0.276,0.149,angry
3.81,275,0,0,0,0,0,0,0,0,0,0,125,1641,0,3172,3939,0.871,-0.194,11.497,-4.183,-2.303,1.935,2.279,-2.981,9.725,-0.255,0.235,0.137,angry
3.82,234,0,0,0,0,0,0,0,0,0,0,261,1767,0,3095,3835,0.994,1.666,11.138,-4.559,-2.228,1.804,1.743,-2.564,9.996,-0.238,0.218,0.141,angry
3.83,204,0,0,0,0,0,0,0,0,0,0,415,1749,0,2919,3741,2.131,3.333,11.155,-4.723,-2.192,1.865,1.47,-2.43,9.914,-0.202,0.169,0.193,angry
3.84,179,0,0,0,0,0,0,0,0,0,0,556,1757,0,2678,3639,3.112,5.193,11.72,-4.824,-2.053,2.119,1.377,-2.279,9.359,-0.254,0.137,0.242,angry
3.85,188,0,0,0,0,0,0,0,0,0,0,566,1805,0,2319,3531,2.904,6.057,12.512,-4.768,-2.027,2.489,1.705,-2.411,9.278,-0.304,0.13,0.283,angry
3.86,181,0,0,0,0,0,0,0,0,1,0,773,1893,0,2173,3455,2.148,6.187,13.745,-4.702,-2.036,2.784,1.738,-2.444,9.074,-0.332,0.156,0.314,angry
3.87,139,0,0,0,0,0,0,0,0,0,0,985,2012,0,2259,3383,2.586,7.381,15.79,-4.678,-1.922,2.918,1.12,-2.009,9.625,-0.361,0.297,0.408,angry
3.88,149,0,0,0,0,0,0,0,0,3,0,1429,2105,0,2187,3333,3.67,8.712,17.904,-4.805,-1.525,2.965,1.46,-2.966,9.651,-0.386,0.345,0.617,angry
3.89,180,0,0,0,0,0,0,0,35,339,0,1763,2151,4,2019,3275,3.218,9.641,19.391,-4.89,-1.169,2.892,0.881,-2.67,9.579,-0.35,0.367,0.624,angry
3.9,189,0,0,0,0,0,0,0,61,468,23,2181,2121,2,2196,3180,4.887,11.119,19.613,-4.903,-0.902,2.691,1.583,-3.22,9.835,-0.515,0.217,0.656,angry
3.91,196,0,0,0,0,0,0,0,186,459,0,2343,2019,4,1975,3045,6.472,16.266,19.613,-5.036,-0.374,2.647,2.768,-2.816,9.591,-0.374,0.207,0.393,angry
3.92,170,0,0,0,0,0,0,0,441,459,2,2493,2102,7,2011,2843,0.754,19.613,19.613,-5.01,-1,2.805,1.884,-4.391,9.922,-0.149,0.339,0.209,angry
3.93,211,0,0,0,0,0,0,0,889,664,28,2743,2295,12,1643,2596,-4.568,19.613,17.052,-4.557,-2.16,2.855,1.709,-3.778,10.602,-0.235,0.206,0.144,angry
3.94,271,0,0,0,0,0,0,0,1932,1363,17,3061,2323,13,859,1785,-14.734,19.613,-9.991,-2.452,-1.849,1.772,1.654,-4.362,10.946,-0.219,0.101,0.055,angry
3.95,303,0,0,0,0,0,0,0,2699,1747,15,3212,2041,7,6,1236,-14.413,19.613,-4.094,-0.362,-0.41,0.6,0.661,-2.66,9.378,-0.502,0.071,-0.019,angry
3.96,352,0,0,0,0,0,0,0,2931,1845,0,3365,1876,8,6,979,-10.463,19.613,-2.289,1.17,0.418,-0.287,1.106,-3.179,9.369,-0.59,-0.048,-0.081,angry
3.97,208,0,0,0,0,0,0,1022,3307,2165,5,3485,1114,7,5,597,1.506,17.858,1.257,3.044,1.204,-0.699,2.052,-1.851,10.57,-1.196,-0.212,-0.298,angry
3.98,42,0,0,0,0,0,883,3254,3605,1703,0,3524,233,1,0,410,2.705,5.432,10.369,6.597,-1.927,-1.573,1.276,-0.651,10.214,-4.115,0.402,-0.557,angry
3.99,0,0,0,0,297,0,2293,3671,3653,1069,0,3533,119,0,0,341,5.492,17.102,14.866,3.259,-0.151,-1.818,0.639,-3.955,7.786,-5.975,0.838,-0.458,angry
4,0,55,0,0,992,0,3134,3787,3115,89,25,2529,0,0,0,264,14.574,15.857,14.143,1.825,2.589,-2.336,7.12,1.75,19.613,-8.731,1.966,3.384,angry
4.01,0,1020,0,0,1744,0,3371,3827,1941,0,0,379,0,0,0,67,2.875,6.096,16.314,0.68,2.382,-1.244,9.586,-6.823,19.613,-8.731,1.96,5.916,angry
4.02,144,1649,175,51,1962,0,3425,3856,89,0,0,29,0,0,0,27,3.282,6.833,16.668,0.841,1.427,-0.944,-1.334,-13.29,19.613,-5.669,0.721,5.357,angry
4.03,418,2215,2032,1048,2171,0,3472,3856,0,0,0,0,0,0,0,17,3.859,4.743,10.587,0.553,0.844,-0.63,19.613,5.423,19.613,0.173,0.077,5.91,angry
4.04,654,2512,2716,1585,2337,0,3459,3818,0,0,0,0,0,0,0,24,3.314,3.912,9.579,0.419,0.411,-0.382,18.012,2.655,11.358,3.086,0.912,1.865,angry
4.05,737,2623,2911,1903,2382,0,3374,3760,0,0,0,0,0,0,0,25,3.122,3.493,8.926,0.379,0.294,-0.289,13.046,5.133,13.156,3.55,-0.968,0.208,angry
4.06,875,2769,3107,2206,2330,0,3158,3583,0,0,0,0,0,0,0,14,3.582,3.572,8.571,0.398,0.3,-0.277,7.472,-1.267,12.177,4.633,-2.054,-2.064,angry
4.07,976,2874,3233,2470,1955,0,2803,3312,0,0,0,0,0,0,0,0,3.326,3.601,8.564,0.404,0.168,-0.276,-0.558,-2.236,12.012,5.224,-2.77,-2.23,angry
4.08,1157,2978,3358,2735,1285,0,2313,3008,0,0,0,0,0,0,0,0,3.1,3.644,8.806,0.32,0.117,-0.255,-3.8,-3.718,9.091,5.625,-3.177,-0.944,angry
4.09,1341,3039,3453,2901,1132,0,1678,2635,0,0,0,0,0,0,0,0,3.069,4.152,8.803,0.243,0.034,-0.159,-1.037,-6.62,14.229,5.855,-2.807,0.063,angry
4.1,1632,3138,3546,3019,1121,0,1258,2190,0,0,0,0,0,0,0,0,3.033,4.046,8.918,0.224,-0.078,-0.143,2.502,-8.088,15.261,5.881,-3.041,-0.21,angry
4.11,1998,3246,3636,3143,1360,0,901,1072,0,0,56,0,0,0,0,0,3.203,3.996,8.847,0.199,-0.254,-0.17,3.278,-10.242,18.22,5.635,-3.723,-1.642,angry
4.12,2383,3390,3719,3230,1845,0,624,0,0,0,0,0,0,0,0,0,2.902,3.807,8.758,0.208,-0.374,-0.155,0.414,-17.399,19.613,6.187,-4.455,-2.345,angry
4.13,2556,3494,3757,3266,2007,0,471,0,0,0,0,0,0,0,0,0,2.624,3.905,8.715,0.331,-0.29,-0.149,-0.393,-18.081,19.613,5.012,-4.163,-3.045,angry
4.14,2888,3643,3829,3335,1751,0,386,0,0,0,0,0,0,0,0,0,3.359,3.826,8.365,0.562,-0.086,-0.134,-4.966,-19.613,18.941,4.612,-3.925,-3.541,angry
4.15,3159,3767,3897,3404,1146,0,221,0,0,0,0,0,0,0,0,0,3.213,4.149,8.825,0.913,0.017,-0.124,-12.067,-19.613,2.698,2.535,-2.212,-3.377,angry
4.16,3305,3814,3919,3451,1162,0,176,0,0,0,0,0,0,0,0,21,3.527,4.609,8.504,1.118,0.154,-0.096,-17.585,-19.613,-4.396,1.258,-1.845,-2.344,angry
4.17,3487,3854,3945,3502,334,0,17,0,0,0,0,0,0,0,0,0,3.651,4.185,8.78,1.453,0.387,-0.105,-14.313,-19.613,-1.207,-1.047,-0.357,-1.514,angry
4.18,3583,3839,3958,3530,303,0,0,0,0,0,0,0,0,0,0,0,3.883,3.266,8.686,1.82,0.53,-0.159,-14.135,-19.613,0.081,-1.791,0.113,-0.604,angry
4.19,3674,3766,3955,3537,235,0,0,0,0,0,23,0,0,0,0,38,4.453,3.493,8.815,2.473,0.714,-0.283,11.818,-8.021,2.042,-2.608,2.208,-1.135,angry
4.2,3729,3483,3939,3538,109,0,0,0,0,0,0,0,0,1,0,669,4.02,3.349,8.614,3.424,0.949,-0.55,-7.578,19.613,19.613,-2.566,1.381,-0.493,angry
4.21,3746,2718,3843,3434,0,0,0,0,0,0,0,0,0,0,0,1913,7.614,2.097,8.473,4.594,1.24,-0.994,-11.09,11.473,-3.723,-7.103,-0.494,0.488,angry
4.22,3774,2208,3554,3149,0,0,0,0,0,0,0,0,0,0,0,2584,9.026,5.461,10.084,5.423,1.613,-1.704,-4.013,-19.613,19.613,-5.254,1.191,0.697,angry
4.23,3729,1731,2750,2281,0,0,0,0,0,0,0,0,0,0,1000,3240,6.62,3.321,17.341,6.734,0.426,-2.917,-3.402,-5.023,15.541,-4.084,1.405,0.722,angry
4.24,3463,1217,2339,1872,0,0,0,0,0,0,0,0,0,0,1451,3640,6.426,11.741,19.613,7.837,-0.145,-4.176,8.89,-7.563,13.451,-3.613,0.895,0.757,angry
4.25,1059,142,0,240,0,0,0,0,0,0,0,0,0,0,2149,3830,9.627,13.917,19.613,7.339,0.609,-6.118,2.061,-6.493,12.933,-3.272,0.674,0.399,angry
4.26,218,0,0,0,0,0,0,0,0,0,0,0,0,0,2617,4015,14.667,8.794,19.613,1.699,-0.426,-5.476,-10.171,-8.226,19.613,-1.759,2.055,1.802,angry
4.27,39,0,0,0,0,0,0,0,0,0,0,0,159,0,3028,4062,19.613,10.611,12.627,0.088,-0.045,-3.643,3.024,-5.995,10.058,-0.875,1.867,0.791,angry
4.28,127,0,0,0,0,0,0,0,0,0,0,0,407,4,3080,4073,19.613,-3.39,14.686,-1.06,1.1,-1.474,0.85,-5.655,13.427,-0.445,1.462,0.609,angry
4.29,129,0,0,0,0,0,0,0,3,0,0,0,693,0,3153,4077,19.541,-1.417,9.364,-1.385,0.323,0.878,2.528,-4.446,11.281,-0.146,1.303,0.552,angry
4.3,147,0,0,0,0,0,0,0,17,0,0,17,971,0,3177,4089,14.842,-2.162,7.829,-1.729,-0.522,2.461,-1.595,-2.5,12.807,-0.033,0.828,0.361,angry
4.31,154,0,0,0,0,0,0,0,21,0,0,0,1135,0,3195,4089,9.287,-1.223,9.072,-2.15,-0.779,3.293,0.792,-2.744,10.515,-0.09,0.428,0.256,angry
4.32,155,0,0,0,0,0,0,0,27,0,0,0,1252,0,3174,4095,2.464,-1.142,11.157,-2.888,-1.172,3.363,1.523,-2.904,10.125,-0.109,0.188,0.168,angry
4.33,128,0,0,0,0,0,0,0,13,0,0,0,1389,0,3119,4025,-0.29,-1.262,9.862,-3.627,-1.468,2.872,1.621,-2.583,9.749,-0.179,0.115,0.207,angry
4.34,113,0,0,0,0,0,0,0,12,3,0,0,1577,0,3045,3979,-0.606,-0.5,8.775,-4.171,-1.419,2.185,2.327,-2.794,9.165,-0.22,0.216,0.295,angry
4.35,89,0,0,0,0,0,0,0,27,0,0,0,1560,0,2875,3993,-0.031,1.039,9.189,-4.638,-1.292,1.609,2.342,-2.784,9.282,-0.223,0.376,0.43,angry
4.36,125,0,0,0,0,0,0,0,23,0,12,0,1545,0,2613,3776,1.53,2.772,10.455,-4.976,-1.34,1.291,2.437,-2.768,9.292,-0.243,0.398,0.455,angry
4.37,129,0,0,0,0,0,0,0,19,0,0,157,1515,47,2315,3727,4.463,5.011,11.277,-5.212,-1.393,1.318,2.665,-2.701,8.775,-0.258,0.371,0.4,angry
4.38,139,0,0,0,0,0,0,0,23,0,0,278,1581,0,2247,3672,5.03,6.785,12.402,-5.332,-1.539,1.633,2.136,-2.89,8.885,-0.294,0.353,0.386,angry
4.39,176,0,0,0,0,0,0,0,41,1,0,901,1683,0,2277,3613,3.316,7.432,14.133,-5.35,-1.996,1.94,1.528,-3.479,9.543,-0.276,0.249,0.242,angry
4.4,206,0,0,0,0,0,0,0,53,299,2,1302,1836,1,2197,3564,2.064,8.169,15.483,-5.372,-2.454,1.943,0.929,-2.995,10.034,-0.254,0.17,0.294,angry
4.41,289,0,0,0,0,0,0,0,119,413,0,1688,1943,0,2197,3485,2.466,9.981,18.921,-5.461,-2.705,1.649,1.243,-3.282,9.723,-0.108,0.124,0.247,angry
4.42,234,0,0,0,0,0,0,0,175,489,0,1967,2063,9,2164,3417,2.523,12.646,19.613,-5.581,-2.959,1.312,1.314,-2.686,8.72,-0.274,-0.054,0.175,angry
4.43,249,0,0,0,0,0,0,0,652,568,7,2424,2325,6,2024,3209,4.796,16.249,16.982,-5.156,-2.949,0.983,1.535,-2.942,9.527,-0.158,-0.02,0.099,angry
4.44,266,0,0,0,0,0,0,0,1367,1111,17,2654,2577,9,1911,2760,-0.728,19.613,14.518,-4.005,-2.723,1.166,1.822,-3.409,9.855,-0.123,0.004,0.098,angry
4.45,269,0,0,0,0,0,0,0,1639,1467,17,2744,2709,43,1737,2423,-9.783,19.613,5.198,-2.557,-3.045,0.883,1.709,-4.02,9.991,-0.207,-0.092,0.111,angry
4.46,250,0,0,0,0,0,0,0,2301,1850,17,2901,2799,8,895,1785,-12.139,19.613,-4.978,-0.984,-1.139,0.836,2.016,-3.199,9.043,-0.309,-0.021,0.16,angry
4.47,288,0,0,0,0,0,0,0,2739,2231,7,3045,2184,6,13,1195,-14.868,19.613,-3.634,0.789,-0.232,-0.217,1.578,-2.919,9.378,-0.683,0.124,0.044,angry
4.48,47,0,0,0,0,0,0,176,2943,2394,7,3089,1817,7,39,1050,4.901,19.613,4.875,1.973,4.379,-0.069,1.745,-3.783,9.416,-0.706,0.119,-0.003,angry
4.49,34,0,0,0,256,0,530,1841,3143,2443,12,3206,1531,5,4,789,-10.693,-18.407,19.613,1.49,2.533,-0.772,2.255,-2.935,9.505,-1.024,0.142,-0.076,angry
4.5,177,0,0,0,142,0,1038,3298,3479,2138,7,3259,595,5,4,473,-0.546,6.129,10.573,3.019,1.434,-3.212,2.421,-0.283,10.039,-2.985,0.055,-0.013,angry
4.51,96,0,0,0,413,0,2322,3687,3383,1129,0,2843,279,0,11,392,11.844,7.163,12.376,2.474,1.148,-1.237,2.279,2.691,11.04,-6.809,-0.019,0.92,angry
4.52,66,0,0,0,475,0,2928,3801,1573,2553,7,2490,2579,1567,1549,3110,8.313,6.56,7.197,1.86,2.987,-1.617,3.213,5.526,19.613,-8.726,-0.238,1.437,angry
4.53,422,460,0,0,1611,0,3147,3856,1567,2553,0,2493,2588,1670,1557,3115,4.836,5.82,13.434,0.934,2.588,-1.468,3.256,-5.033,19.613,-8.731,0.918,2.834,angry
4.54,870,1648,1756,960,1692,0,3195,3869,1564,2607,0,2543,2620,1699,1607,3167,4.525,6.256,10.388,1.05,1.019,-0.896,11.404,5.782,19.613,-1.122,2.672,2.552,angry
4.55,1377,2122,2787,2096,2006,576,3193,3840,0,0,0,0,0,0,0,16,0.795,2.892,8.147,0.709,0.287,-0.265,13.546,-11.6,12.495,0.733,2.136,1.546,angry
4.56,1934,2448,3088,2467,2101,587,3136,3778,0,0,0,0,0,0,0,3,2.586,4.436,9.589,0.553,0.138,-0.078,9.009,4.59,10.106,2.585,2.352,0.716,angry
4.57,2315,2633,3255,2690,2032,0,2952,3600,0,0,0,0,0,0,0,13,3.419,4.434,8.885,0.472,0.142,-0.062,6.689,3.268,7.137,3.454,0.524,-0.764,angry
4.58,2509,2736,3322,2799,2021,0,2799,3415,0,0,0,0,0,0,0,8,3.417,3.994,8.775,0.427,0.128,-0.06,5.71,0.572,9.029,3.756,-0.71,-1.648,angry
4.59,2640,2819,3378,2889,2004,0,2608,3243,0,0,0,0,0,0,0,0,3.603,4.14,8.612,0.4,0.096,-0.047,5.617,-0.819,8.406,4.208,-1.109,-2.441,angry
4.6,2843,2942,3465,2993,1897,0,2059,2912,0,0,0,1,0,0,0,0,3.34,4.221,8.602,0.375,0.062,-0.017,4.132,-2.167,7.058,4.527,-0.89,-2.987,angry
4.61,2991,3057,3520,3070,1802,0,1666,2417,0,0,0,0,0,0,0,0,3.232,3.907,8.576,0.346,0.041,-0.005,0.508,-3.39,7.714,4.587,-0.704,-2.99,angry
4.62,3095,3137,3577,3147,1718,0,1360,1416,0,0,0,0,0,0,0,0,3.28,4.398,8.504,0.301,0.021,-0.016,6.924,-8.552,10.467,4.492,-0.407,-2.699,angry
4.63,3269,3214,3634,3200,1729,0,885,717,0,0,0,0,0,0,0,0,3.275,4.192,8.363,0.24,-0.054,-0.074,12.773,-14.902,12.194,4.595,0.67,-3.106,angry
4.64,3394,3311,3671,3255,1680,0,597,304,0,0,0,0,0,0,0,0,3.11,3.991,8.435,0.198,-0.114,-0.118,10.836,-19.613,-1.034,3.091,1.942,-5.225,angry
4.65,3513,3388,3715,3222,1692,0,400,0,0,0,0,0,0,0,0,0,3.163,4.197,8.533,0.207,-0.165,-0.135,6.323,-19.613,-0.034,-0.2,3.535,-6.017,angry
4.66,3549,3402,3738,3318,1653,0,362,0,26,0,0,0,0,0,0,0,3.304,4.235,8.624,0.228,-0.196,-0.157,-2.954,-19.613,0.675,-0.795,3.441,-5.561,angry
4.67,3603,3519,3751,3326,1482,0,158,0,12,0,0,0,0,1,0,0,3.618,4.369,8.471,0.179,-0.21,-0.241,1.168,-19.613,-3.56,-0.254,2.108,-5.458,angry
4.68,3712,3583,3787,3290,1138,0,0,0,0,0,0,714,25,0,0,0,3.479,3.95,8.712,0.191,-0.273,-0.473,-1.116,-19.613,4.374,-1.396,1.059,-4.483,angry
4.69,3709,3612,3780,3141,922,0,0,0,43,391,0,1647,148,0,0,0,2.602,3.558,9.44,-0.047,-0.523,-1.079,2.011,-12.196,6.981,0.465,1.104,-2.902,angry
4.7,3728,3575,3731,3133,782,0,0,0,125,523,58,1827,335,0,0,0,2.303,2.952,9.869,-0.652,-1.067,-2.236,1.494,-0.005,9.426,0.224,0.636,-1.874,angry
4.71,3646,3408,3570,3045,454,0,0,0,473,1067,0,2027,615,0,5,0,1.427,3.194,10.364,-1.475,-1.973,-3.662,1.089,-2.813,9.395,-0.2,0.215,-1.02,angry
4.72,3476,2993,3312,2928,395,0,0,0,851,1339,0,2329,1579,3,1210,357,2.856,3.51,9.357,-2.247,-2.544,-4.929,1.403,-1.846,10.197,-0.055,-0.012,-0.284,angry
4.73,3249,2510,2961,2511,142,0,0,0,907,1595,12,2585,1976,2,1363,940,3.857,4.338,8.617,-2.921,-2.673,-5.882,1.568,-3.141,10.307,-0.091,-0.063,-0.387,angry
4.74,2827,1518,2087,1200,132,0,0,0,1291,1991,2,2758,2319,3,1653,1349,3.656,6.816,7.702,-3.396,-2.628,-6.359,0.213,-1.796,10.178,-0.277,0.369,-1.218,angry
4.75,1385,112,0,93,28,0,0,0,1555,2187,40,2809,2501,5,1658,1485,2.339,10.834,7.209,-2.948,-2.312,-6.378,-0.558,-2.818,9.613,-0.393,0.859,-2.419,angry
4.76,861,0,0,0,16,0,0,0,1612,2185,17,2811,2615,1,1758,1501,-6.117,12.919,12.91,-2.926,-4.039,-5.452,-0.405,-2.993,9.919,-0.311,0.954,-2.636,angry
4.77,922,0,0,0,38,0,0,0,1677,2281,2,2835,2808,3,1946,1529,-7.202,12.107,6.457,-3.219,-4.047,-5.432,0.905,-3.261,9.493,-0.383,0.911,-2.706,angry
4.78,782,0,0,0,0,0,0,0,1562,2457,2,2830,2888,3,1993,1253,-4.791,10.695,6.232,-2.967,-3.661,-6.208,2.085,-3.093,9.471,-0.352,0.743,-2.175,angry
4.79,717,0,0,0,0,0,0,0,1525,2507,2,2835,2846,3,1934,1095,-3.029,8.796,6.855,-2.55,-2.204,-6.541,2.131,-3.661,9.031,-0.28,0.733,-1.837,angry
4.8,657,0,0,0,0,0,0,0,1466,2451,0,2859,2713,5,1881,967,4.997,5.167,5.765,-1.887,-1.146,-5.812,2.691,-3.05,9.282,-0.166,0.598,-1.29,angry
4.81,604,0,0,0,0,0,0,0,1389,2532,2,3019,2655,2,1861,760,9.117,1.255,7.918,-1.134,-0.289,-3.89,1.693,-3.29,9.39,-0.241,0.424,-1.134,angry
4.82,602,0,0,0,0,0,0,0,1396,2659,0,3037,2652,3,1721,565,7.199,-0.962,9.807,-0.786,-0.226,-2.181,1.528,-3.203,9.744,-0.275,0.414,-1.146,angry
4.83,596,0,0,0,0,0,0,0,1693,2683,0,3103,2487,4,1141,281,4.231,-1.176,11.025,-0.911,-0.292,-1.443,0.345,-3.445,9.287,-0.282,0.495,-1.27,angry
4.84,567,0,0,0,0,0,0,0,1653,2636,0,3115,2157,2,788,249,2.009,0.136,10.561,-1.132,-0.293,-1.629,0.596,-2.966,9.799,-0.293,0.585,-1.457,angry
4.85,591,0,0,0,0,0,0,0,1651,2616,2,3065,2234,2,651,254,1.645,2.433,10.271,-1.401,-0.344,-2.202,0.713,-3.036,9.531,-0.313,0.604,-1.507,angry
4.86,570,0,0,0,0,0,0,0,1820,2543,0,3092,2094,2,298,151,2.397,3.692,7.982,-1.484,-0.499,-2.855,0.57,-3.225,9.402,-0.236,0.59,-1.46,angry
4.87,578,0,0,0,0,0,0,0,1907,2531,0,3093,2039,2,271,139,3.191,5.028,8.277,-1.497,-0.6,-3.164,0.91,-3.053,9.57,-0.288,0.577,-1.406,angry
4.88,584,0,0,0,0,0,0,0,1983,2535,0,3096,1960,1,171,56,3.965,5.947,7.082,-1.508,-0.708,-3.311,1.322,-2.828,9.538,-0.321,0.598,-1.349,angry
4.89,528,0,0,0,0,0,0,0,2076,2591,0,3129,2044,0,220,19,4.561,6.747,5.739,-1.421,-0.764,-3.396,1.154,-3.072,9.397,-0.322,0.646,-1.261,angry
4.9,529,0,0,0,0,0,0,0,2121,2547,0,3193,1903,1,118,11,6.048,7.796,4.944,-1.298,-0.726,-3.364,1.247,-3.053,10.348,-0.347,0.701,-1.207,angry
4.91,487,0,0,0,0,0,0,0,2236,2586,0,3191,1704,2,108,36,8.777,9.012,3.759,-1.177,-0.565,-3.044,1.638,-3.254,9.622,-0.404,0.731,-1.164,angry
4.92,459,0,0,0,0,0,0,0,2367,2511,0,3211,1565,0,47,8,8.966,9.553,2.04,-0.982,-0.559,-2.409,1.061,-2.782,9.553,-0.56,0.674,-1.174,angry
4.93,416,0,0,0,0,0,0,0,2415,2463,0,3241,1193,0,31,19,9.294,9.565,-1.176,-0.597,-0.664,-1.624,0.891,-3.261,9.426,-0.693,0.607,-1.202,angry
4.94,342,0,0,0,0,0,0,0,2467,2324,0,3245,944,0,7,5,-1.137,2.052,1.252,0.316,-1.29,-0.929,1.015,-2.837,9.357,-0.881,0.588,-1.29,angry
4.95,240,0,0,0,0,0,0,1535,2568,2140,0,3327,844,0,0,7,8.033,1.583,-0.002,1.011,-0.842,0.062,1.314,-3.029,9.488,-1.022,0.523,-1.346,angry
4.96,19,0,0,0,526,0,726,2713,2573,1846,0,3341,332,0,0,7,2.399,0.376,19.613,0.571,0.169,-0.696,1.271,-3.414,9.742,-1.226,0.435,-1.424,angry
4.97,154,0,0,0,460,0,1744,3065,2643,1515,0,3428,204,0,0,0,3.974,0.773,19.613,0.346,-0.373,-0.986,1.192,-2.689,10.664,-1.538,0.406,-1.507,angry
4.98,293,105,0,0,770,0,2379,3285,2639,662,0,3497,21,0,1,0,10.403,11.382,6.512,0.483,-0.302,-0.322,3.266,-3.922,10.877,-3.258,1.122,-1.585,angry
4.99,561,880,374,394,1222,0,2814,3455,2591,479,0,3385,0,0,0,0,3.273,2.83,8.564,0.408,-0.21,-0.407,0.915,-6.328,10.57,-3.261,2.801,-1.162,angry
5,562,1570,1645,699,1771,0,3084,3553,1557,2677,0,2622,2407,1845,1703,3239,3.184,3.201,9.299,0.256,-0.129,-0.262,15.297,-0.831,16.439,-5.995,5.666,1.961,angry
5.01,636,1896,2423,1254,2173,0,3223,3636,1567,2556,0,2501,2585,1643,1513,3119,4.731,3.907,7.288,0.23,0.012,-0.262,19.613,-4.283,17.899,-4.918,7.382,5.369,angry
5.02,822,2142,2755,1654,2441,0,3263,3663,0,4,0,68,0,0,0,0,3.498,3.747,8.942,0.173,0.033,-0.181,19.613,-13.487,19.613,-1.654,8.731,2.305,angry
5.03,867,2320,2890,1869,2558,0,3248,3664,0,0,0,0,0,0,0,0,3.103,3.455,9.117,0.195,-0.006,-0.129,19.613,1.815,7.848,0.721,3.618,-7.088,angry
5.04,911,2370,2960,2001,2624,0,3213,3647,0,0,0,0,0,0,13,0,3.136,3.694,9.043,0.175,-0.021,-0.11,4.894,1.041,14.241,0.549,2.037,-6.96,angry
5.05,939,2485,3035,2102,2667,0,3120,3578,0,7,0,0,0,0,0,0,3.033,3.553,8.938,0.164,-0.074,-0.092,1.111,0.802,19.613,3.057,-0.05,-3.22,angry
5.06,942,2555,3071,2161,2701,0,2975,3407,0,0,0,0,0,0,0,0,3.235,3.692,8.655,0.177,-0.105,-0.105,4.087,-0.11,16.534,4.384,0.279,-1.892,angry
5.07,879,2695,3132,2210,2655,0,2773,2983,0,0,0,0,0,0,0,0,3.242,3.56,8.878,0.193,-0.122,-0.142,7.278,-3.783,8.361,5.418,-0.234,-0.852,angry
5.08,782,2785,3185,2242,2583,0,2501,2555,0,0,0,2,0,0,0,0,3.048,3.675,8.686,0.178,-0.095,-0.193,10.616,-6.931,8.03,5.008,-1.256,-1.65,angry
5.09,816,2859,3281,2412,2589,0,2302,2384,0,0,0,0,0,0,0,5,2.684,3.96,8.976,0.108,-0.076,-0.338,10.64,-8.222,9.685,4.801,-1.812,-2.35,angry
5.1,1008,2973,3411,2641,2603,0,2112,2143,0,0,0,0,0,0,0,0,2.799,3.431,8.782,-0.021,-0.158,-0.667,8.262,-9.167,12.531,4.444,-2.276,-3.332,angry
5.11,1235,3122,3549,2875,2686,0,1872,1627,0,0,0,0,0,0,0,0,2.883,3.603,8.689,-0.134,-0.258,-0.94,8.294,-11.744,16.513,3.957,-2.361,-4.019,angry
5.12,1535,3260,3664,3037,2767,0,1657,682,0,0,0,0,0,0,0,0,3.139,3.888,8.784,-0.203,-0.331,-1.116,7.147,-14.631,16.065,3.752,-2.136,-4.669,angry
5.13,1952,3414,3755,3175,2803,0,1298,0,0,0,0,0,0,0,0,0,3.383,3.907,8.686,-0.132,-0.463,-1.168,-3.349,-19.613,7.733,1.758,-2.08,-5.026,angry
5.14,2313,3574,3824,3275,2227,0,649,0,0,0,0,0,0,0,0,0,4.037,3.797,8.353,0.248,-0.098,-0.8,-4.204,-19.613,12.572,1.908,-1.31,-3.078,angry
5.15,2673,3712,3891,3387,1983,0,511,0,0,0,0,0,0,0,0,5,3.843,4.355,8.361,0.862,0.044,-0.391,-6.998,-19.613,3.117,1.832,-0.636,-1.92,angry
5.16,2889,3771,3930,3443,1834,0,573,0,0,0,0,0,0,0,0,0,3.314,3.67,8.77,1.174,-0.086,-0.271,-11.487,-19.613,-1.286,1.17,-0.895,-0.717,angry
5.17,3234,3824,3961,3487,1572,0,368,0,0,0,0,0,0,0,0,0,2.466,3.089,8.906,1.671,-0.246,-0.207,-1.942,-19.613,-6.421,-1.429,-0.561,-0.047,angry
5.18,3449,3827,3966,3499,1497,0,143,0,0,0,0,0,0,0,0,247,3.412,3.754,8.566,2.437,-0.124,-0.319,-3.716,-8.102,6.12,-2.477,2.723,-0.807,angry
5.19,3630,3738,3915,3415,1188,0,0,0,0,0,2,0,0,0,0,1211,6.495,2.734,7.915,3.628,0.137,-0.525,-13.022,4.628,19.613,-3.349,0.777,-0.92,angry
5.2,3666,3479,3825,3273,752,0,0,0,0,0,0,0,0,0,0,2100,4.245,3.196,7.867,4.527,0.108,-1.107,-16.003,-1.458,17.303,-3.978,-0.267,0.03,angry
5.21,3696,2357,3473,2971,230,0,0,0,79,0,0,0,0,0,459,2581,3.941,4.709,11.325,5.092,0.119,-1.695,-3.263,-10.63,16.079,-3.21,0.421,1.227,angry
5.22,3554,1459,2426,2033,0,0,0,0,0,0,0,0,3,91,2031,3555,7.372,5.825,19.613,7.027,-0.956,-3.34,19.613,3.584,18.002,-3.099,0.933,0.485,angry
5.23,2261,310,29,176,0,0,0,0,0,0,0,0,123,0,2631,3811,9.44,7.195,19.613,7.412,-1.1,-5.315,1.219,-3.792,13.084,-0.49,2.232,0.914,angry
5.24,834,0,0,0,0,0,0,0,0,0,0,0,359,0,2740,3863,12.828,19.285,19.613,6.79,-1.312,-5.473,-1.233,-5.133,14.674,-0.512,1.302,0.539,angry
5.25,288,0,0,0,0,0,0,0,18,0,0,20,355,1,2889,3909,17.997,-5.641,19.613,0.615,-0.864,-5.21,0.95,-4.113,10.92,-0.171,0.682,0.3,angry
5.26,111,0,0,0,0,0,0,0,0,0,0,173,488,0,2972,3939,19.613,3.378,16.745,-1.317,0.252,-3.209,0.721,-3.673,10.767,0.018,0.468,0.218,angry
5.27,176,0,0,0,0,0,0,0,0,0,0,373,572,0,3158,3964,18.402,-8.176,18.095,-2.353,1.332,-1.958,-0.311,-2.095,10.664,-0.068,0.206,0.246,angry
5.28,218,0,0,0,0,0,0,0,0,0,2,617,910,0,3164,3977,16.664,-5.954,12.689,-2.592,-0.438,-0.187,1.58,-2.552,9.627,-0.088,0.398,0.277,angry
5.29,192,0,0,0,0,0,0,0,0,2,0,703,1237,0,3191,3957,15.965,-2.784,12.495,-2.505,-1.853,1.3,1.865,-2.497,9.306,-0.169,0.464,0.42,angry
5.3,155,0,0,0,0,0,0,0,0,0,0,1034,1368,0,3155,3903,12.768,-0.639,12.378,-3.033,-2.037,2.585,2.449,-3.079,9.764,-0.283,0.363,0.459,angry
5.31,121,0,0,0,0,0,0,0,0,0,0,1317,1383,0,3055,3857,6.06,0.072,11.332,-3.476,-2.066,3.269,2.5,-3.127,9.529,-0.423,0.278,0.476,angry
5.32,45,0,0,0,0,0,0,0,0,0,0,1451,1357,3,2915,3805,0.907,1.116,11.969,-3.856,-2.184,3.12,1.645,-3.294,9.847,-0.348,0.31,0.49,angry
5.33,11,0,0,0,0,0,0,0,0,6,12,1619,1163,2,2717,3741,-0.682,1.599,12.225,-4.319,-1.918,2.514,1.587,-2.974,9.476,-0.289,0.35,0.508,angry
5.34,0,0,0,0,0,0,0,0,17,17,17,1801,1065,7,2249,3663,-0.785,2.662,12.493,-4.739,-1.59,1.871,1.247,-3.081,9.986,-0.147,0.442,0.545,angry
5.35,16,0,0,0,0,0,0,0,31,10,17,2155,943,7,1915,3565,0.922,4.695,13.3,-5.049,-1.51,1.435,1.329,-3.168,9.665,-0.181,0.325,0.447,angry
5.36,0,0,0,0,0,0,0,0,93,237,30,2189,697,11,1682,3465,3.986,6.5,12.364,-5.141,-1.545,1.541,1.779,-3.496,8.868,-0.155,0.209,0.385,angry
5.37,0,0,0,0,0,0,0,0,31,263,15,2360,953,2,1583,3365,5.502,6.979,11.705,-5.024,-1.452,1.94,1.322,-3.512,9.558,-0.098,0.083,0.276,angry
5.38,0,0,0,0,0,0,0,0,120,297,48,2505,951,8,1454,3241,6.005,7.642,13.137,-4.697,-1.547,2.433,1.312,-3.031,9.443,-0.074,0.086,0.26,angry
5.39,0,0,0,0,0,0,0,0,111,439,28,2653,988,13,1389,3148,6.122,8.705,14.782,-4.423,-1.533,2.897,1.331,-3.443,9.493,-0.01,0.117,0.2,angry
5.4,0,0,0,0,0,0,0,0,313,701,23,2751,1197,13,1469,3037,5.521,8.464,15.048,-4.227,-1.154,3.029,1.638,-3.393,9.692,-0.017,0.171,0.157,angry
5.41,0,0,0,0,0,0,0,0,557,575,23,2857,1446,31,1415,2901,6.953,10.183,16.309,-3.947,-0.662,2.954,1.135,-2.761,9.697,-0.159,0.1,0.12,angry
5.42,0,0,0,0,0,0,0,0,857,763,23,2982,1594,0,1163,2636,7.118,16.144,19.613,-3.892,-0.017,3.198,1.034,-3.084,8.799,-0.177,0.034,0.116,angry
5.43,0,0,0,0,0,0,0,0,1300,1203,23,3108,1735,11,791,2313,1.551,19.613,19.613,-4.026,-0.154,3.357,1.611,-3.498,9.637,-0.153,-0.021,0.141,angry
5.44,38,0,0,0,0,0,0,0,1799,1436,20,3220,1864,11,227,1941,-6.495,19.613,12.196,-3.899,-1.008,2.845,1.47,-3.558,9.199,-0.215,-0.115,0.118,angry
5.45,55,0,0,0,0,0,0,0,2461,1937,15,3419,2504,7,7,1171,-15.282,19.613,-10.12,-2.305,-2.124,1.221,0.409,-3.852,9.756,-0.246,-0.447,0.069,angry
5.46,92,0,0,0,0,0,0,0,2725,2376,25,3391,2072,53,1,651,-5.435,19.613,-12.052,-0.021,-1.265,0.094,0.833,-3.632,10.053,-0.667,0.141,-0.205,angry
5.47,0,0,0,0,0,0,0,70,2827,2439,12,3350,1814,6,5,583,-0.467,19.613,-9.187,3.228,0.924,-0.189,0.953,-2.416,10.372,-1.283,0.215,-0.389,angry
5.48,0,0,0,0,358,0,347,1936,2951,2473,10,3354,1299,8,7,447,5.377,-4.623,11.973,2.716,1.356,-0.279,2.16,-2.267,10.477,-2.3,0.347,-0.648,angry
5.49,0,0,0,0,321,0,1648,3403,3206,2247,0,3245,361,2,11,307,-5.813,5.318,17.166,5.354,-2.127,-1.506,2.119,-4.053,9.728,-4.313,0.803,-1.315,angry
5.5,0,0,0,0,554,0,2881,3683,3305,661,0,2904,225,0,0,281,11.641,5.502,9.936,2.221,-0.044,-1.715,1.896,-8.006,10.259,-7.756,2.307,0.279,angry
5.51,0,214,0,0,1486,0,3328,3774,3271,338,0,2043,0,0,0,164,6.522,12.232,15.019,1.069,2.324,-1.582,7.863,-3.419,19.613,-8.731,2.037,3.147,angry
5.52,0,1119,0,0,1984,0,3518,3862,1466,0,0,227,1,0,0,0,5.775,3.371,10.673,0.434,2.125,-1.288,8.349,-7.142,19.613,-8.731,1.549,5.906,angry
5.53,0,1603,62,0,2201,0,3549,3887,0,0,0,0,0,0,0,0,4.518,4.616,10.628,0.369,1.762,-0.991,4.858,-5.607,19.613,-5.648,-1.076,5.706,angry
5.54,199,1958,843,219,2289,0,3562,3899,0,0,0,44,0,0,0,0,4.609,3.845,8.861,0.491,1.413,-0.814,19.613,-3.551,19.613,-0.377,0.694,6.084,angry
5.55,289,2179,1713,591,2247,0,3547,3889,0,0,0,0,0,0,0,0,3.091,3.847,10.8,0.561,0.961,-0.667,19.613,12.876,19.613,2.937,1.017,4.283,angry
5.56,414,2304,2245,1073,2313,0,3517,3867,0,0,0,0,0,0,0,1,2.988,4.937,10.412,0.397,0.471,-0.361,19.008,3.244,17.073,3.312,-0.342,2.235,angry
5.57,492,2489,2695,1344,2319,0,3403,3794,0,0,0,0,0,0,0,0,3.512,3.759,8.842,0.31,0.214,-0.153,11.078,1.355,10.81,4.723,-2.614,-0.574,angry
5.58,496,2604,2927,1711,2169,0,3133,3599,0,0,0,0,0,0,0,0,4.056,2.978,8.432,0.407,0.3,-0.309,2.468,1.003,8.724,4.912,-3.277,-1.202,angry
5.59,575,2690,3053,1933,1907,0,2868,3392,0,0,0,0,0,0,0,0,3.869,3.359,8.799,0.467,0.355,-0.407,-1.654,-0.63,9.577,5.046,-4.064,-1.223,angry
5.6,560,2753,3191,2350,1243,0,2180,2850,0,0,0,0,0,0,0,0,2.947,3.342,9.543,0.572,0.16,-0.498,-1.132,-2.169,10.463,5.57,-3.106,-0.784,angry
5.61,816,2747,3343,2711,1081,0,1280,2057,0,0,0,0,0,0,0,0,3.261,4.518,9.043,0.466,0.043,-0.332,1.312,-4.492,13.001,5.533,-2.984,-0.787,angry
5.62,1254,2892,3474,2962,1042,0,623,595,0,0,0,0,0,0,0,0,3.251,4.353,8.763,0.366,-0.01,-0.282,3.323,-5.576,13.649,5.535,-2.772,-1.325,angry
5.63,1725,3013,3605,3153,1213,0,303,0,0,0,0,0,0,0,0,0,3.237,4.276,8.698,0.353,-0.057,-0.236,2.258,-7.458,19.055,5.487,-2.974,-2.414,angry
5.64,2075,3127,3675,3262,1168,0,211,0,0,0,0,0,0,0,0,0,3.091,4.195,8.839,0.351,-0.08,-0.205,1.69,-7.779,19.613,5.4,-3.164,-2.807,angry
5.65,2359,3222,3728,3335,1189,0,167,0,0,0,0,0,0,11,0,0,2.794,4.401,9.088,0.331,-0.166,-0.15,3.019,-10.453,19.613,5.354,-2.936,-3.249,angry
5.66,2688,3394,3792,3411,1155,0,243,0,0,0,0,0,0,0,0,0,3.038,4.027,8.538,0.488,-0.176,-0.084,-7.35,-19.565,19.613,4.782,-3.299,-3.912,angry
5.67,2969,3583,3856,3461,1011,0,272,0,0,0,0,0,0,0,0,0,3.74,3.773,8.126,0.824,0.082,-0.084,-4.219,-19.613,16.048,4.005,-2.408,-3.617,angry
5.68,3152,3696,3900,3501,929,0,265,0,0,0,0,0,0,0,0,0,3.615,3.876,8.571,1.103,0.093,-0.117,-9.776,-19.613,6.258,2.923,-1.491,-3.154,angry
5.69,3318,3757,3937,3537,678,0,107,0,0,0,0,0,0,0,0,0,3.601,4.19,8.396,1.323,0.218,-0.119,-15.481,-19.613,-2.54,1.756,-1.625,-2.105,angry
5.7,3472,3776,3946,3578,639,0,0,0,0,0,0,0,0,0,0,0,3.156,4.537,9.057,1.603,0.299,-0.095,-14.686,-19.613,-5.26,0.454,-2.065,-1.084,angry
5.71,3611,3760,3961,3600,527,0,0,0,0,0,0,0,0,0,0,0,3.735,4.053,8.595,1.928,0.459,-0.124,-11.732,-19.613,-2.476,-0.688,-1.492,-0.717,angry
5.72,3717,3670,3951,3602,297,0,0,0,0,0,7,0,0,0,0,0,4.551,3.589,8.502,2.363,0.501,-0.157,-13.015,-19.613,-1.197,-1.504,-0.421,0.036,angry
5.73,3779,3220,3931,3605,360,0,0,0,0,0,0,0,0,0,0,0,4.211,2.502,8.023,3.01,0.648,-0.261,5.401,-19.613,-3.706,-3.267,1.355,-0.709,angry
5.74,3819,2789,3888,3547,0,0,0,0,0,0,0,0,0,0,0,493,5.66,4.101,9.479,3.756,0.93,-0.539,-2.294,19.333,19.613,-1.488,2.418,0.389,angry
5.75,3839,2394,3721,3378,0,0,0,0,0,0,2,43,0,0,0,1893,6.053,2.99,8.442,4.693,1.156,-0.95,-10.872,19.613,-3.594,-7.084,-0.967,0.452,angry
5.76,3831,1891,3267,3006,0,0,0,0,0,0,0,0,0,0,0,2599,4.051,-0.129,12.22,5.526,1.366,-1.824,2.095,-19.613,19.613,-4.065,1.194,1.865,angry
5.77,3759,1354,2532,2269,0,0,0,0,0,0,0,0,0,0,633,3237,6.919,4.209,18.862,6.702,0.571,-3.272,0.369,-19.613,19.295,-3.926,1.496,0.304,angry
5.78,3300,428,1741,1927,0,0,0,0,0,0,0,11,0,0,1310,3623,7.436,8.006,19.613,7.663,-0.44,-4.78,2.073,-0.697,12.641,-3.277,0.66,0.672,angry
5.79,2096,109,0,604,0,0,0,0,0,0,0,0,0,0,1747,3807,8.052,10.76,19.613,7.647,-0.492,-5.623,5.89,-7.326,13.19,-2.778,0.412,0.47,angry
5.8,560,0,0,0,0,0,0,0,0,0,0,0,0,0,2439,3899,-1.607,6.993,19.613,5.033,-1.208,-5.87,-0.309,-5.291,16.065,-2.141,0.92,0.743,angry
5.81,0,0,0,0,0,0,0,0,0,0,0,0,143,0,2788,4038,19.613,-2.6,19.613,-0.124,-0.322,-6.343,1.504,-11.681,18.553,-1.543,1.072,0.743,angry
5.82,0,0,0,0,0,0,0,0,0,11,110,0,139,0,2875,4059,19.613,3.824,16.297,-1.387,0.533,-3.556,0.915,-1.02,11.614,-0.868,1.185,0.519,angry
5.83,112,0,0,0,0,0,0,0,0,0,0,0,221,0,3000,4058,19.613,-5.294,12.455,-1.911,1.148,-1.738,3.491,-4.638,10.681,-0.414,1.058,0.528,angry
5.84,128,0,0,0,0,0,0,0,0,0,0,0,407,0,3127,4037,19.613,-3.888,13.34,-1.966,-0.397,0.347,0.168,-0.694,10.903,-0.324,1.024,0.432,angry
5.85,131,0,0,0,0,0,0,0,0,0,0,47,552,0,3187,4062,17.866,-2.588,11.351,-1.805,-1.576,1.992,0.709,-2.444,11.478,-0.453,0.75,0.375,angry
5.86,110,0,0,0,0,0,0,0,0,5,0,372,947,0,3196,4021,14.736,1.013,14.423,-2.686,-1.553,3.337,0.958,-2.863,11.035,-0.421,0.469,0.267,angry
5.87,85,0,0,0,0,0,0,0,0,0,0,713,1293,0,3157,3950,8.373,1.573,12.886,-3.48,-1.333,4.1,1.891,-2.863,10.228,-0.355,0.281,0.188,angry
5.88,84,0,0,0,0,0,0,0,0,0,0,904,1509,0,3076,3916,1.322,0.527,10.798,-3.935,-1.57,4.185,1.889,-2.483,9.414,-0.369,0.186,0.178,angry
5.89,38,0,0,0,0,0,0,0,0,0,0,1001,1637,28,2916,3775,0.39,1.413,9.783,-4.171,-1.616,3.835,2.073,-2.801,9.579,-0.382,0.234,0.271,angry
5.9,25,0,0,0,0,0,0,0,0,0,0,1398,1693,0,2616,3640,1.288,3.582,11.406,-4.522,-1.251,3.406,1.528,-2.504,10.192,-0.449,0.264,0.427,angry
5.91,61,0,0,0,0,0,0,0,0,18,0,1557,1699,0,2154,3477,1.501,5.136,12.972,-4.91,-1.04,3.061,2.152,-2.65,9.436,-0.424,0.379,0.519,angry
5.92,36,0,0,0,0,0,0,0,0,25,0,1721,1767,0,1960,3377,2.883,6.438,13.4,-5.152,-1.042,2.855,1.954,-2.863,9.397,-0.433,0.339,0.577,angry
5.93,28,0,0,0,0,0,0,0,17,291,0,1836,1814,0,1977,3197,5.43,8.028,13.333,-5.217,-1.021,2.908,1.348,-2.741,9.175,-0.45,0.131,0.502,angry
5.94,7,0,0,0,0,0,0,0,63,441,2,2105,1897,10,1847,3056,7.448,9.409,14.724,-5.146,-0.95,3.165,1.075,-3.187,9.639,-0.479,-0.044,0.455,angry
5.95,19,0,0,0,0,0,0,0,173,429,2,2283,2025,2,1631,2875,8.248,11.073,16.805,-5.076,-0.909,3.504,1.386,-3.491,9.357,-0.339,-0.108,0.274,angry
5.96,21,0,0,0,0,0,0,0,460,393,0,2470,2137,3,1630,2743,8.753,12.21,18.174,-5.055,-0.676,3.643,1.729,-3.079,10.044,-0.217,-0.097,0.15,angry
5.97,51,0,0,0,0,0,0,0,1113,935,28,2661,2311,13,1503,2258,6.318,18.567,19.613,-5.083,0.06,3.476,1.298,-3.977,10.463,-0.205,-0.036,0.102,angry
5.98,47,0,0,0,0,0,0,0,2077,1518,130,2968,2660,16,1135,1727,-1.65,19.613,19.613,-4.826,-1.625,2.641,2.047,-3.934,9.634,-0.249,0.227,0.107,angry
5.99,117,0,0,0,0,0,0,0,2397,1669,23,3027,2653,0,471,1389,-10.127,19.613,-5.689,-3.329,-2.068,1.961,0.91,-2.358,9.242,-0.408,0.15,0.068,angry
6,167,0,0,0,0,0,0,0,2901,2058,17,3283,2123,8,6,1093,-12.064,19.613,-8.241,-1.187,-1.049,0.539,1.295,-3.673,9.965,-0.71,0.354,-0.116,angry
6.01,219,0,0,0,0,0,0,0,3273,2181,0,3463,1395,9,6,676,-10.681,19.613,-7.24,0.458,0.251,-0.13,1.427,-3.189,9.416,-0.767,0.094,-0.135,angry
6.02,176,0,0,0,0,0,0,0,3403,2171,12,3531,895,0,6,585,-9.598,19.613,-8.921,2.714,0.748,-0.448,1.695,-2.789,9.783,-1.326,-0.032,-0.201,angry
6.03,122,0,0,0,0,0,0,1283,3527,2005,7,3548,457,1,2,467,-1.611,13.001,-1.537,2.783,1.899,-0.655,1.717,-1.769,9.546,-2.411,0.01,-0.217,angry
6.04,0,0,0,0,180,0,982,3382,3609,1717,0,3516,279,2,0,403,-0.517,2.54,8.08,7.135,-2.079,-2.155,1.211,-2.274,8.983,-3.662,0.195,-0.135,angry
6.05,0,0,0,0,309,0,2443,3695,3607,615,0,3003,140,0,0,339,10.262,15.718,11.224,3.01,-0.024,-1.786,7.254,-5.315,10.724,-7.748,1.835,1.176,angry
6.06,0,223,0,0,1292,0,3173,3819,3012,0,0,1467,0,0,23,139,7.743,17.997,19.613,1.991,1.666,-1.852,9.321,-3.718,19.613,-8.731,3.267,6.013,angry
6.07,37,1434,0,0,1965,0,3390,3866,1433,0,0,228,0,0,0,9,3.716,8.758,16.467,0.625,2.287,-1.132,7.123,13.101,19.613,-8.731,4.534,5.923,angry
6.08,295,1955,831,342,2110,0,3426,3888,203,0,0,0,0,0,0,1,2.926,4.46,12.246,0.511,1.347,-0.798,-6.191,-0.431,19.613,-2.511,2.413,6.743,angry
6.09,547,2313,2165,1127,2256,0,3461,3874,0,0,0,0,0,0,0,35,3.694,3.484,9.409,0.544,0.665,-0.535,19.613,12.55,19.613,1.145,0.705,2.935,angry
6.1,591,2543,2780,1645,2335,0,3399,3815,6,0,0,9,0,0,0,68,3.373,4.544,9.378,0.432,0.311,-0.309,19.613,2.911,15.335,3.282,-2.401,-3.264,angry
6.11,690,2704,3024,2022,2345,0,3184,3683,0,0,0,0,0,0,0,28,3.371,3.766,9.029,0.351,0.242,-0.226,4.001,2.552,14.456,4.237,-2.821,-4.258,angry
6.12,768,2798,3158,2281,2010,0,2847,3413,0,0,0,0,0,0,0,4,3.563,3.452,8.854,0.369,0.194,-0.254,-9.55,-0.962,15.021,5.674,-3.511,-1.806,angry
6.13,830,2870,3262,2495,1353,0,2325,3110,0,0,0,0,0,0,0,0,2.784,3.747,9,0.329,0.07,-0.245,-7.242,-3.536,11.55,6.394,-2.415,0.968,angry
6.14,1023,2930,3344,2677,1076,0,1615,2645,0,0,0,0,0,0,20,0,3.158,4.29,8.622,0.305,0.096,-0.216,-3.304,-5.121,12.871,6.419,-2.705,1.481,angry
6.15,1154,2993,3439,2832,1171,0,1035,2155,0,24,0,0,0,0,0,0,2.878,4.202,8.696,0.189,0.048,-0.161,2.607,-7.25,15.419,6.438,-3.232,0.836,angry
6.16,1367,3052,3527,2992,1147,0,734,1188,0,0,0,0,0,1,0,0,3.115,3.615,8.559,0.187,-0.056,-0.192,3.541,-7.693,19.577,5.85,-3.57,-0.713,angry
6.17,1830,3184,3634,3138,1401,0,445,227,2,17,12,0,10,1,1,0,3.4,3.843,8.42,0.227,-0.131,-0.273,4.571,-9.562,19.613,5.647,-3.599,-1.567,angry
6.18,2327,3377,3743,3312,1557,0,356,0,0,0,0,0,0,0,0,0,3.115,3.929,8.732,0.346,-0.121,-0.253,-3.577,-17.377,19.613,4.982,-3.283,-3.552,angry
6.19,2749,3572,3824,3423,1289,0,212,0,0,0,0,0,0,0,0,0,3,4.025,8.643,0.542,-0.104,-0.203,-8.947,-19.613,8.533,2.912,-1.968,-3.883,angry
6.2,2939,3642,3877,3500,1216,0,260,0,0,0,0,0,0,0,0,0,2.904,3.946,8.722,0.854,0.011,-0.167,-16.376,-19.613,2.468,1.661,-2.241,-3.005,angry
6.21,3131,3759,3920,3565,951,0,239,0,0,28,0,0,0,0,0,0,3.002,4.554,8.545,1.118,0.109,-0.133,-16.728,-19.613,1.568,0.887,-2.429,-1.637,angry
6.22,3307,3813,3950,3622,767,0,155,0,0,0,0,0,0,0,0,0,3.476,4.539,8.399,1.257,0.209,-0.095,-13.587,-19.613,0.29,0.013,-1.426,-0.885,angry
6.23,3475,3839,3973,3665,528,0,0,0,0,0,0,0,0,0,0,0,3.572,4.108,8.068,1.565,0.304,-0.126,-14.437,-19.613,0.113,-0.888,-0.028,0.037,angry
6.24,3614,3838,3981,3699,661,0,0,0,0,0,0,0,0,0,0,0,3.986,3.929,8.894,1.876,0.409,-0.168,-11.341,-19.613,2.392,-1.537,0.515,1.183,angry
6.25,3694,3760,3982,3702,331,0,0,0,0,0,25,0,0,0,0,0,3.567,3.699,9.234,2.375,0.392,-0.233,2.425,-3.759,8.461,-2.587,0.687,0.892,angry
6.26,3707,3438,3971,3707,358,0,0,0,0,3,12,3,3,16,3,237,3.843,3.718,8.38,3.112,0.647,-0.491,8.495,0.089,15.543,-0.981,2.618,-0.056,angry
6.27,3790,2799,3914,3647,0,0,0,0,0,0,0,0,0,0,0,1135,6.055,3.469,9.033,4.082,0.831,-0.841,-0.029,19.613,6.105,-5.477,-0.845,-0.299,angry
6.28,3802,2291,3713,3451,0,0,0,0,0,37,0,0,0,0,0,2169,6.993,4.039,9.096,5.32,1.021,-1.572,6.498,-12.462,19.613,-5.213,0.451,1.356,angry
6.29,3791,1845,3002,2882,0,0,0,0,0,0,0,0,0,10,93,2847,4.683,4.451,15.32,6.68,0.898,-2.657,0.874,-19.613,19.613,-4.538,0.71,0.06,angry
6.3,3650,1199,2592,2128,0,0,0,0,0,0,0,0,0,2,858,3350,10.245,11.952,19.613,7.718,0.091,-4.393,-3.728,3.132,18.735,-3.018,1.056,0.668,angry
6.31,2877,343,1605,1681,0,0,0,0,0,0,0,0,0,0,1297,3550,10.889,8.049,19.613,7.681,0.43,-5.786,4.269,-2.461,10.008,-3.004,0.206,0.569,angry
6.32,1321,9,0,210,0,0,0,0,0,0,0,0,0,0,2020,3899,14.696,9.184,19.613,8.292,0.413,-6.59,0.922,-6.112,13.312,-2.523,0.332,0.596,angry
6.33,272,0,0,0,0,0,0,0,0,0,0,0,0,5,2525,3985,16.01,6.73,19.613,2.011,-0.197,-4.831,-0.333,-5.49,15.356,-1.906,0.558,0.982,angry
6.34,0,0,0,0,0,0,0,0,0,0,0,0,115,0,2855,4020,19.613,7.235,19.613,0.138,-0.021,-3.541,6.311,-10.769,14.971,-1.348,1.046,0.532,angry
6.35,42,0,0,0,0,0,0,0,0,0,10,0,167,0,2979,4036,19.613,-9.847,18.629,-1.244,1.267,-1.835,0.642,-1.621,11.044,-0.705,1.302,0.671,angry
6.36,83,0,0,0,0,0,0,0,9,69,23,8,315,13,3110,4043,19.613,-9.895,11.272,-1.439,0.383,0.24,2.66,-3.486,10.506,-0.428,1.306,0.732,angry
6.37,23,0,0,0,0,0,0,0,10,12,30,11,510,12,3187,4045,17.356,-4.645,14.128,-1.792,-0.665,1.82,2.057,-2.155,9.823,-0.423,1.382,0.673,angry
6.38,0,0,0,0,0,0,0,0,4,0,0,95,635,0,3257,4025,13.46,-2.71,13.52,-2.304,-1.109,2.9,2.155,-2.365,9.51,-0.438,1.079,0.54,angry
6.39,0,0,0,0,0,0,0,0,0,0,0,546,885,5,3175,3992,8.684,0.318,16.295,-3.25,-1.399,3.625,1.02,-2.114,10.178,-0.543,0.699,0.423,angry
6.4,0,0,0,0,0,0,0,0,0,0,0,799,1127,0,3049,3898,3.223,0.575,13.934,-4.158,-1.596,3.849,1.398,-2.823,9.931,-0.589,0.569,0.341,angry
6.41,0,0,0,0,0,0,0,0,0,5,0,1071,1117,0,2879,3821,-0.567,0.654,11.815,-4.67,-1.685,3.457,1.401,-2.737,9.967,-0.534,0.557,0.351,angry
6.42,0,0,0,0,0,0,0,0,0,0,2,1371,893,0,2603,3737,-0.915,2.655,12.359,-5.126,-1.627,2.863,1.518,-2.689,9.412,-0.372,0.375,0.459,angry
6.43,0,0,0,0,0,0,0,0,0,0,0,1699,599,5,2103,3599,0.812,4.817,12.881,-5.546,-1.401,2.371,2.042,-2.567,9.491,-0.376,0.337,0.484,angry
6.44,0,0,0,0,0,0,0,0,0,0,0,1849,467,0,1771,3499,3.342,6.888,13.154,-5.839,-1.166,2.154,1.733,-2.447,9.306,-0.366,0.366,0.535,angry
6.45,0,0,0,0,0,0,0,0,7,0,0,2104,351,0,1557,3381,6.091,8.763,13.606,-5.891,-1.082,2.354,1.635,-2.701,9.44,-0.369,0.364,0.529,angry
6.46,17,0,0,0,0,0,0,0,87,4,2,2299,475,2,1584,3239,7.618,9.764,14.083,-5.788,-1.1,2.762,0.893,-3.017,9.852,-0.497,0.246,0.552,angry
6.47,14,0,0,0,0,0,0,0,278,25,5,2551,427,3,1303,3124,9.227,11.368,17.071,-5.586,-1.18,3.221,1.63,-2.99,9.158,-0.429,0.112,0.34,angry
6.48,11,0,0,0,0,0,0,0,629,191,7,2583,551,6,1062,3001,9.912,13.544,19.613,-5.494,-1.329,3.662,1.386,-3.361,9.237,-0.277,-0.047,0.136,angry
6.49,19,0,0,0,0,0,0,0,1204,469,5,2836,714,5,871,2815,12.265,16.118,19.613,-5.44,-0.971,3.893,0.883,-2.816,9.768,-0.298,-0.081,0.045,angry
6.5,32,0,0,0,0,0,0,0,1555,461,7,2956,1037,1,739,2577,10.958,19.613,19.51,-5.175,-0.387,4.105,1.247,-2.65,8.911,-0.345,-0.028,0.019,angry
6.51,31,0,0,0,0,0,0,0,1849,569,43,3103,1243,8,603,2259,-3.505,19.613,17.724,-4.066,-2.131,3.574,1.676,-2.454,8.993,-0.298,0.012,0.061,angry
6.52,43,0,0,0,0,0,0,0,2457,1335,51,3283,1767,8,1,1387,-11.892,19.613,-0.481,-2.592,-1.64,2.522,1.405,-2.983,9.505,-0.536,-0.065,0.016,angry
6.53,67,0,0,0,0,0,0,0,2925,1763,17,3464,1559,6,5,735,-13.372,19.613,-9.428,-1.088,-1.382,0.721,0.881,-3.261,9.021,-0.562,-0.01,-0.072,angry
6.54,98,0,0,0,0,0,0,0,3103,1879,15,3513,1099,9,7,747,-6.498,19.613,-8.339,0.867,0.41,-0.153,1.142,-3.227,9.807,-0.641,0.068,-0.125,angry
6.55,80,0,0,0,0,0,0,0,3255,1940,15,3561,749,8,6,660,-0.357,19.613,1.666,1.69,0.179,0.053,1.346,-2.559,9.606,-0.867,0.067,-0.243,angry
6.56,0,0,0,0,0,0,0,304,3367,1929,2,3603,441,7,6,568,5.643,16.125,-8.571,3.618,1.222,0.447,2.27,-2.526,9.306,-1.365,0.038,-0.285,angry
6.57,0,0,0,0,48,0,459,2584,3446,1839,7,3647,292,3,0,546,-7.061,-19.613,19.613,4.777,0.122,-0.8,2.131,-1.123,10.436,-2.144,-0.056,-0.314,angry
6.58,0,0,0,0,34,0,1582,3524,3660,1113,0,3541,91,2,2,427,4.183,19.613,19.613,5.6,-1.005,-3.253,3.754,-0.091,9.878,-5.309,0.519,-0.075,angry
6.59,0,195,0,0,604,0,3043,3762,3572,645,0,2918,0,0,0,297,19.613,3.843,3,3.436,0.406,-1.81,3.958,0.886,19.613,-8.731,1.968,1.784,angry
6.6,0,815,0,0,1638,0,3281,3783,3287,299,0,2395,0,0,0,121,10.058,15.115,7.774,1.289,3.716,-2.402,8.796,-10.824,19.613,-8.731,1.815,3.884,angry
6.61,495,2381,1859,684,2244,0,3411,3821,1533,2604,0,2552,2660,1832,1626,3158,1.192,6.823,13.68,1.203,2.362,-1.798,3.237,-4.812,19.613,-8.731,1.519,5.606,angry
6.62,944,2878,3008,2108,2680,252,3429,3792,1563,2536,0,2519,2631,1755,1587,3127,3.165,5.021,10.135,0.862,0.666,-0.782,11.985,3.546,19.613,-0.359,-0.937,8.363,angry
6.63,1560,3085,3255,2642,2683,289,3360,3715,0,0,0,0,0,0,0,0,3.376,5.727,9.598,0.438,0.249,-0.247,17.746,3.158,5.959,1.99,0.416,3.924,angry
6.64,1961,3169,3375,2864,2544,0,3127,3534,2,0,0,0,57,0,0,21,3.565,4.08,8.763,0.263,0.221,-0.153,19.613,1.566,10.211,2.581,-1.434,0.979,angry
6.65,2208,3206,3440,3014,1745,0,2647,3163,0,0,0,0,0,0,0,19,3.57,4.104,8.552,0.274,0.209,-0.161,6.541,0.558,9.888,3.642,-2.368,-2.743,angry
6.66,2395,3199,3472,3084,1136,0,1735,2644,4,2,12,5,2,5,5,19,3.316,4.164,8.708,0.299,0.193,-0.186,-4.47,-0.18,10.281,4.581,-3.637,-2.626,angry
6.67,2498,3173,3503,3175,583,0,569,1855,5,2,12,5,5,1,2,3,3.17,4.254,8.598,0.282,0.138,-0.188,-6.158,-0.11,9.328,5.043,-3.194,-1.72,angry
6.68,2559,3134,3509,3214,416,0,80,400,0,0,0,0,0,0,0,0,3.005,4.334,8.416,0.193,0.057,-0.225,-3.249,-1.836,11.08,5.351,-3.333,-0.559,angry
6.69,2623,3099,3520,3247,506,0,0,0,0,0,30,0,0,0,0,0,2.907,4.211,8.392,0.146,0.017,-0.219,-1.81,-1.63,12.962,5.836,-3.324,-0.472,angry
6.7,2643,3047,3545,3278,367,0,0,0,0,0,0,0,0,0,0,0,2.957,4.441,8.382,0.156,-0.029,-0.213,-4.82,-3.306,16.235,5.892,-3.82,-0.514,angry
6.71,2711,3010,3575,3327,262,0,0,0,0,0,0,0,0,0,0,0,2.911,4.343,8.401,0.152,-0.041,-0.191,-8.873,-3.424,18.969,6.148,-4.228,-0.184,angry
6.72,2782,3002,3617,3399,417,0,0,0,0,0,0,0,0,0,0,0,3.021,4.386,8.483,0.176,-0.068,-0.159,-11.155,-3.735,19.613,6.261,-4.555,0.493,angry
6.73,2835,3013,3653,3440,522,0,0,0,0,0,0,0,0,0,0,0,3.031,4.662,8.387,0.194,-0.093,-0.137,-10.695,-6.024,19.613,6.492,-4.318,1.339,angry
6.74,2917,3056,3685,3488,567,0,0,0,0,0,120,0,0,0,0,0,3.168,4.271,8.497,0.162,-0.142,-0.124,-6.8,-11.557,19.613,6.326,-3.658,1.869,angry
6.75,3031,3122,3711,3536,741,0,0,0,0,27,0,0,0,0,0,0,3.079,4.372,8.588,0.193,-0.29,-0.103,-8.071,-15.455,19.613,5.741,-3.494,1.798,angry
6.76,3174,3233,3746,3579,959,0,0,0,0,0,0,0,0,0,0,0,3.081,4.01,8.686,0.268,-0.344,-0.061,-9.222,-19.613,16.975,4.991,-3.078,1.472,angry
6.77,3307,3356,3781,3611,847,0,0,0,0,0,0,0,0,0,0,0,2.672,4.638,8.71,0.42,-0.289,-0.019,-17.842,-19.613,13.163,3.712,-3.16,1.116,angry
6.78,3415,3432,3809,3647,971,0,0,0,0,0,25,0,0,0,0,0,3.247,3.845,8.552,0.682,-0.195,-0.026,-16.491,-19.613,5.09,2.205,-2.531,0.43,angry
6.79,3507,3518,3837,3661,549,0,0,0,0,0,0,0,0,0,0,0,3.687,3.9,8.471,1.041,-0.041,-0.081,-15.677,-19.613,-3.452,0.733,-0.398,-0.659,angry
6.8,3581,3561,3856,3705,631,0,0,0,0,0,0,0,0,0,0,0,3.922,4.235,8.265,1.278,0.153,-0.229,-19.613,-19.613,-2.535,-0.277,0.776,-0.658,angry
6.81,3651,3597,3875,3665,542,0,0,0,25,0,0,0,0,0,0,0,3.579,4.252,9.309,1.53,0.074,-0.089,-19.613,-19.613,2.061,-1.365,0.486,-0.167,angry
6.82,3696,3617,3882,3632,661,0,0,0,0,5,0,0,0,0,0,0,4.638,4.12,9.014,1.986,-0.015,-0.194,-8.492,-4.216,9.742,-1.589,2.768,0.638,angry
6.83,3703,3583,3857,3533,419,0,0,0,0,0,0,0,0,0,0,622,5.15,1.987,9.483,2.761,-0.031,-0.533,-3.108,19.613,19.613,-2.864,1.065,2.421,angry
6.84,3688,3444,3779,3339,272,0,0,0,0,0,0,0,0,0,157,1978,5.262,0.318,8.906,4.154,0.093,-1.07,19.613,-6.093,-3.115,-5.562,-1.048,1.692,angry
6.85,3541,2391,3233,2096,128,0,0,0,0,0,0,0,138,0,2292,3782,4.429,4.31,17.652,6.91,-0.648,-2.174,5.854,-19.613,19.613,-5.404,6.004,-0.419,angry
6.86,2543,555,469,653,0,0,0,0,0,487,0,0,487,0,2653,4009,12.742,9.515,15.953,8.245,0.498,-3.284,0.192,-1.784,18.443,-1.796,3.206,0.158,angry
6.87,911,0,0,0,0,0,0,0,0,1269,0,139,1445,35,2826,3975,13.721,14.753,19.613,4.704,5.547,-4.107,-0.043,-9.972,15.761,-1.489,2.123,0.756,angry
6.88,278,0,0,0,0,0,0,0,0,1893,0,1413,1839,0,2942,4031,13.056,7.604,19.613,-0.341,3.633,-2.64,1.434,-2.854,9.263,-1.351,0.894,0.789,angry
6.89,485,0,0,0,0,0,0,0,0,1999,0,1956,1787,0,2901,4095,17.032,-4.35,8.803,-1.448,3.382,-1.587,1.81,-3.263,9.934,-1.179,0.503,0.622,angry
6.9,475,0,0,0,0,0,0,0,74,2187,2,2275,1823,1,2853,4095,14.494,-1.02,4.264,-1.716,3.604,-0.501,0.522,-3.388,10.132,-0.762,0.478,0.293,angry
6.91,610,0,0,0,0,0,0,0,141,2171,156,2507,1783,103,2745,4095,11.878,-1.087,3.718,-2.011,1.858,1.465,0.658,-6.476,11.248,-0.492,0.392,0.084,angry
6.92,628,0,0,0,0,0,0,0,469,2261,0,2735,1495,0,2571,4055,11.933,1.621,4.171,-2.133,0.513,3.491,1.391,-3.982,9.467,-0.218,0.417,0.063,angry
6.93,626,0,0,0,0,0,0,0,506,2092,0,2733,1267,2,2355,4005,8.844,1.104,3.345,-2.413,0.447,4.292,1.504,-3.831,9.536,-0.094,0.473,0.068,angry
6.94,573,0,0,0,0,0,0,0,681,2085,2,2780,1243,2,2239,3943,4.831,0.469,3.725,-2.625,0.435,4.449,1.537,-3.656,9.503,-0.052,0.274,0,angry
6.95,476,0,0,0,0,0,0,0,696,1929,5,2803,953,2,2037,3837,2.382,0.589,6.261,-2.905,0.206,4.145,1.262,-3.627,9.574,-0.033,0.24,0.005,angry
6.96,362,0,0,0,0,0,0,0,745,1854,2,2758,797,2,1755,3731,3.876,2.614,7.211,-3.389,0.135,3.567,1.607,-3.512,9.34,-0.015,0.2,0.002,angry
6.97,282,0,0,0,0,0,0,0,733,1847,0,2795,677,4,1403,3693,6.756,5.03,6.893,-3.873,0.3,3.203,1.508,-3.115,9.263,-0.092,0.191,0.021,angry
6.98,178,0,0,0,0,0,0,0,906,1837,2,2781,686,0,1435,3591,11.155,7.587,4.592,-3.942,0.522,3.25,1.767,-3.419,9.282,-0.104,0.116,0.058,angry
6.99,127,0,0,0,0,0,0,0,968,1789,7,2877,651,3,1225,3479,17.748,12.56,1.97,-3.517,0.741,4.073,1.425,-3.397,9.196,-0.123,0.119,0.018,angry
7,176,0,0,0,0,0,0,0,1011,1897,107,2891,547,3,1301,3373,19.613,17.992,-2.658,-2.528,1.029,5.739,1.286,-3.519,9.371,-0.102,0.05,0.025,angry
7.01,125,0,0,0,0,0,0,0,965,1907,0,2940,663,3,1081,3188,19.022,19.613,-8.904,-0.152,2.045,8.333,1.065,-3.486,9.471,-0.104,0.052,0.032,angry
7.02,157,0,0,0,0,0,0,0,1130,1909,0,2970,657,2,1101,3113,17.193,19.613,-13.159,1.456,3.387,8.731,1.245,-3.455,9.416,-0.117,0.015,0.016,angry
7.03,94,0,0,0,244,0,0,0,1067,1894,0,2972,746,3,1105,3093,19.613,19.613,-9.838,3.339,4.385,7.873,1.089,-3.299,9.256,-0.257,-0.136,0.033,angry
7.04,234,185,0,0,371,0,0,0,1267,1671,0,2965,659,0,1048,3189,-4.75,19.613,-6.196,2.254,4.743,5.488,1.281,-4.501,10.247,0.193,-0.261,0.151,angry
7.05,474,1663,589,52,620,0,100,0,947,1301,7,2825,567,0,1425,3356,-1.697,19.613,6.11,1.413,1.618,3.168,0.929,-4.561,9.747,0.861,-0.277,0.423,angry
7.06,656,2293,2064,427,1407,0,401,0,872,1043,0,2696,691,53,1615,3481,8.815,3.086,6.665,-1.359,0.907,1.89,0.227,-3.496,10.302,0.855,-0.214,0.518,angry
7.07,960,2583,2687,1045,2000,0,2265,1127,721,632,5,2585,508,5,1597,3627,7.18,3.778,4.348,0.741,-0.318,-0.771,-6.412,-0.646,11.334,0.616,-0.426,1.586,angry
7.08,1477,2845,3054,1935,2164,0,2923,2668,213,1,2,2109,176,0,613,3525,4.934,4.322,7.333,-0.139,-0.014,-0.622,-5.875,-2.011,12.242,0.926,-1.373,4.35,angry
7.09,1851,3042,3275,2480,2414,0,3132,3030,39,0,0,1499,8,0,313,3454,2.435,3.941,9.213,-0.136,0.258,-0.079,-0.646,-3.1,10.271,1.184,-1.491,5.336,angry
7.1,2046,3161,3381,2704,2533,45,3248,3184,0,0,0,647,0,0,0,2486,3.122,3.651,9.134,0.062,0.054,0.004,3.16,-7.415,10.834,2.364,-1.119,6.045,angry
7.11,2094,3191,3412,2780,2737,0,3255,3232,0,0,0,0,0,0,0,1885,3.725,4.041,8.78,0.009,-0.058,-0.059,2.198,-11.866,10.669,2.48,-2.453,6.117,angry
7.12,2102,3277,3456,2831,2792,0,3235,3237,1,0,7,0,1,1,1,1493,3.824,3.881,8.753,0.058,-0.035,-0.033,-2.662,-9.428,4.132,2.234,-2.384,6.426,angry
7.13,2047,3347,3472,2815,2868,0,3132,3180,0,0,0,39,0,0,0,1180,3.481,3.869,8.456,0.09,-0.011,0.003,-0.081,-10.977,5.66,1.412,-2.402,6.499,angry
7.14,1927,3375,3477,2797,2882,0,3007,3115,0,0,0,0,0,0,0,740,3.206,3.953,8.71,0.085,-0.023,0.031,-5.322,-8.614,7.35,0.677,-1.488,6.242,angry
7.15,1849,3386,3472,2754,2837,0,2942,3051,0,0,5,0,0,0,0,685,3.551,3.891,8.382,0.072,0.016,0.047,-4.966,-7.448,8.511,0.481,-0.844,5.997,angry
7.16,1809,3397,3456,2736,2802,0,2886,3007,0,0,0,0,0,0,0,568,3.326,3.73,8.509,0.091,0.014,0.014,-2.31,-5.143,8.258,0.258,-0.305,5.24,angry
7.17,1843,3427,3492,2743,2823,0,2881,2943,0,0,0,0,0,0,0,437,3.273,3.819,8.605,0.104,0.021,-0.008,-0.958,-3.555,8.868,0.188,-0.129,4.364,angry
7.18,1902,3461,3517,2800,2867,0,2883,2901,0,0,0,0,0,0,0,420,3.46,3.833,8.425,0.104,0.066,-0.027,-0.68,-2.99,9.297,0.211,-0.109,4.027,angry
7.19,1980,3490,3536,2879,2908,0,2895,2891,0,0,0,0,0,0,0,316,3.409,3.91,8.497,0.13,0.137,-0.033,0.551,-2.629,10.068,0.364,0.066,3.493,angry
7.2,2087,3507,3560,2943,2942,0,2893,2896,0,0,0,0,0,0,0,127,3.259,4.07,8.672,0.1,0.103,-0.022,0.596,-2.368,9.026,0.576,0.132,3.142,angry
7.21,2139,3533,3583,2991,2981,0,2887,2897,0,0,0,0,0,0,0,225,3.141,4.156,8.796,0.079,0.106,0.03,0.417,-2.703,9.091,0.658,0.071,3.169,angry
7.22,2170,3537,3605,3021,2965,0,2883,2885,0,0,0,1,0,0,0,173,3.23,4.068,8.61,0.082,0.124,0.062,0.414,-3.211,9.625,0.773,0.002,3.327,angry
7.23,2222,3541,3623,3056,2960,0,2866,2862,0,0,0,0,0,0,0,116,3.203,3.797,8.435,0.112,0.137,0.099,0.699,-4.032,10.029,0.971,-0.154,3.552,angry
7.24,2293,3551,3638,3108,2853,0,2814,2768,0,0,2,0,0,61,11,105,3,3.986,8.775,0.149,0.238,0.214,3.079,-6.974,8.109,1.332,-0.264,3.887,angry
7.25,2315,3568,3663,3152,2769,0,2731,2378,0,5,0,0,0,0,0,56,3,3.893,8.76,0.207,0.294,0.335,7.901,-9.804,5.655,1.164,-0.418,3.703,angry
7.26,2356,3568,3678,3178,2790,0,2610,2033,0,0,12,0,2,11,0,301,2.923,3.742,8.892,0.256,0.302,0.412,11.229,-14.432,2.04,-0.018,-2.139,3.181,angry
7.27,2205,3583,3696,3206,2655,0,2197,955,1,2,2,1,1,2,5,891,2.653,3.601,9.222,0.39,0.247,0.567,19.613,-13.276,11.609,-0.113,-1.221,1.667,angry
7.28,1856,3607,3711,3177,2079,0,1135,0,0,0,0,0,0,0,0,2181,2.354,3.189,9.572,0.653,0.211,0.564,6.376,-1.733,9.1,-0.465,-0.378,1.062,angry
7.29,1714,3603,3706,3059,1181,0,410,0,0,0,0,0,2,0,133,2410,4.113,2.966,9.002,0.903,0.2,0.426,9.036,1.523,11.739,-0.499,-0.249,0.48,angry
7.3,1745,3536,3693,2960,625,0,425,0,0,0,5,0,0,0,1047,2955,6.175,2.962,8.377,1.517,0.241,-0.139,-4.496,0.718,11.281,-1.215,-1.496,-0.098,angry
7.31,1901,2785,3498,2823,318,0,400,0,0,0,0,0,0,0,1483,3151,10.06,3.426,7.987,2.289,0.67,-0.662,6.618,-11.327,15.957,-0.93,-0.859,0.096,angry
7.32,1583,826,2545,1975,0,0,239,0,0,0,0,110,21,0,2339,3462,18.809,9.103,4.252,0.887,2.633,-2.09,-0.33,-0.814,12.201,0.064,-0.091,0.394,angry
7.33,0,0,10,542,0,0,0,0,0,0,0,413,211,0,2840,3631,19.613,19.613,-7.211,0.647,5.72,-0.691,2.263,-1.544,9.756,-0.137,0.27,0.416,angry
7.34,0,0,0,112,0,0,0,0,0,0,33,678,586,4,2973,3706,19.613,17.727,-10.149,1.869,5.395,4.428,2.574,-2.03,8.902,-0.179,0.357,0.395,angry
7.35,0,0,0,0,0,0,0,0,0,0,0,933,670,287,3037,3759,19.613,12.148,-3.572,2.721,4.173,6.765,1.065,-1.583,9.538,-0.328,0.296,0.446,angry
7.36,0,0,0,0,0,0,0,0,0,1,0,1207,608,457,3031,3767,8.547,4.453,6.436,2.461,2.654,6.634,1.386,-4.063,9.641,-0.212,0.313,0.498,angry
7.37,0,0,0,0,0,0,0,0,1,1,2,1516,529,549,3035,3765,5.112,2.761,12.333,1.7,1.35,5.416,0.223,-2.679,10.822,-0.39,0.338,0.393,angry
7.38,0,0,0,0,0,0,0,0,0,0,2,1727,533,459,2987,3751,6.718,0.156,13.592,0.607,0.738,4.231,0.558,-2.574,9.835,-0.335,0.24,0.326,angry
7.39,0,0,0,0,0,0,0,0,0,0,0,1995,611,283,2950,3705,8.418,-0.546,10.144,-0.281,0.568,3.417,0.874,-3.177,9.962,-0.278,0.104,0.222,angry
7.4,0,0,0,0,0,0,0,0,0,0,0,2095,617,119,2861,3679,10.757,0.532,8.866,-0.758,0.468,3.092,0.771,-3.038,10.022,-0.232,0.082,0.17,angry
7.41,0,0,0,0,0,0,0,0,0,0,0,2213,692,0,2731,3573,12.653,2.105,7.3,-1.049,0.442,3.26,1.12,-2.998,9.957,-0.194,0.149,0.168,angry
7.42,0,0,0,0,0,0,0,0,0,0,0,2248,667,0,2397,3476,12.584,3.026,6.177,-1.161,0.296,3.558,0.958,-2.83,9.656,-0.156,0.217,0.181,angry
7.43,0,0,0,0,0,0,0,0,151,12,12,2346,579,0,2075,3327,11.935,4.058,6.223,-1.154,-0.116,3.899,0.991,-2.746,9.335,-0.198,0.185,0.194,angry
7.44,0,0,0,0,0,0,0,0,235,0,0,2455,586,0,1765,3277,12.309,5.519,6.529,-1.057,-0.527,4.259,0.532,-2.847,9.495,-0.205,0.115,0.181,angry
7.45,0,0,0,0,0,0,0,0,479,29,0,2431,506,1,1677,3119,12.881,6.642,6.081,-0.979,-0.581,4.606,0.51,-3.239,9.263,-0.234,0.056,0.141,angry
7.46,0,0,0,0,0,0,0,0,531,1,0,2530,478,0,1621,3123,11.751,7.525,7.187,-0.869,-0.559,4.906,0.311,-3.168,9.876,-0.186,0.063,0.127,angry
7.47,0,0,0,0,0,0,0,0,685,0,0,2666,483,5,1528,3048,10.068,8.253,8.796,-0.802,-0.708,5.105,0.476,-3.045,9.661,-0.131,0.046,0.104,angry
7.48,0,0,0,0,0,0,0,0,872,6,0,2713,588,0,1337,2983,8.894,8.363,8.138,-0.735,-0.69,5.143,0.934,-3.11,9.524,-0.127,-0.006,0.127,angry
7.49,0,0,0,0,0,0,0,0,1073,2,0,2741,777,0,1373,2807,8.607,8.538,7.669,-0.597,-0.315,5.024,0.728,-2.957,9.072,-0.093,-0.047,0.141,angry
7.5,0,0,0,0,0,0,0,0,1327,103,0,2895,932,3,1304,2437,9.665,10.501,8.629,-0.366,0.266,4.899,0.491,-2.686,9.436,-0.052,-0.11,0.13,angry
7.51,0,0,0,0,0,0,0,0,1561,304,2,2987,1407,4,1113,2232,-0.175,14.066,12.536,-0.49,0.374,5.261,1.092,-3.179,9.522,-0.059,-0.15,0.147,angry
7.52,0,0,0,0,0,0,0,0,1929,529,2,3063,1754,18,1194,2170,-1.597,17.873,17.135,-0.583,-0.536,4.884,0.153,-2.397,9.936,-0.039,-0.274,0.074,angry
7.53,0,0,0,0,0,0,0,0,2259,651,5,3198,2143,4,1135,1957,-4.75,19.613,8.842,-0.978,0.307,4.575,0.773,-2.777,9.529,-0.131,-0.368,0.058,angry
7.54,0,0,0,0,0,0,0,0,2484,1181,2,3284,2375,5,655,1625,-9.486,19.613,-0.893,-0.648,1.141,3.894,1.065,-2.315,10.025,-0.17,-0.375,0.035,angry
7.55,27,0,0,0,0,0,0,0,2776,1436,0,3433,2427,12,0,851,-10.185,19.613,-3.943,0.832,1.379,2.46,0.611,-2.382,10.156,-0.31,-0.299,0.086,angry
7.56,14,0,0,0,0,0,0,0,3016,1767,89,3492,2317,8,1,651,-10.374,19.613,-0.769,2.074,0.681,2.289,0.385,-1.317,9.371,-0.578,-0.279,0.032,angry
7.57,0,0,0,0,0,0,0,0,3112,1941,0,3547,1915,3,1,585,-8.018,19.613,-7.606,3.295,1.204,1.33,1.185,-2.619,8.662,-0.836,-0.228,-0.065,angry
7.58,0,0,0,0,0,0,133,1459,3251,2041,5,3595,1299,3,3,499,-5.476,-1.772,11.617,1.685,2.727,0.115,1.456,-2.569,9.333,-1.031,-0.415,-0.142,angry
7.59,0,0,0,0,6,0,1052,3446,3435,1805,0,3673,218,3,3,371,-2.148,6.594,10.908,4.357,-0.84,-2.384,1.525,-1.772,13.228,-2.381,-0.286,-0.228,angry
7.6,0,0,0,0,96,0,1875,3711,3479,1250,0,3669,235,0,0,371,11.528,12.503,6.108,2.42,-0.282,-0.464,0.725,-1.369,12.878,-4.445,0.143,-0.066,angry
7.61,0,0,0,0,318,0,2821,3827,3274,217,0,3089,0,0,13,207,19.613,5.499,8.483,1.798,0.03,-0.737,5.478,-1.202,14.518,-8.407,2.407,1.787,angry
7.62,0,148,0,0,944,0,3095,3862,2630,41,104,2073,17,8,5,48,14.942,14.205,7.985,0.486,1.693,-0.722,4.695,-5.624,19.613,-8.731,2.762,4.09,angry
7.63,0,657,0,0,1294,0,3319,3904,1567,2619,0,2567,2621,1691,1605,3171,4.046,5.42,11.248,0.355,1.073,-0.519,6.184,-2.892,19.613,-8.731,4.197,5.973,angry
7.64,0,1066,0,0,1837,0,3425,3920,0,0,0,5,0,0,0,6,1.858,3.007,11.698,0.156,0.845,-0.228,-10.491,0.819,19.613,-5.112,2.116,5.444,angry
7.65,0,1241,76,0,1965,0,3450,3920,0,0,0,0,0,0,0,30,3.491,2.545,9.538,0.229,0.666,-0.253,13.719,-1.03,19.613,0.011,0.903,5.954,angry
7.66,0,1495,522,274,2122,0,3483,3899,0,0,0,0,0,0,0,5,2.574,2.507,8.89,0.464,0.351,-0.296,17.581,14.497,19.613,2.019,0.792,3.567,angry
7.67,63,1827,1242,494,2218,0,3497,3857,0,0,0,0,0,0,0,8,4.144,3.496,9.12,0.472,0.325,-0.314,11.475,5.138,9.977,2.03,-0.914,1.355,angry
7.68,26,2067,1719,715,2335,0,3457,3784,0,0,0,0,40,0,0,30,3.962,3.342,8.964,0.398,0.262,-0.269,9.474,4.542,14.559,2.371,-2.035,0.337,angry
7.69,58,2247,2035,880,2452,0,3422,3700,0,0,0,0,0,77,0,23,4.113,3.225,8.545,0.38,0.244,-0.284,1.865,3.294,16.218,3.566,-2.338,-0.301,angry
7.7,135,2365,2394,978,2538,0,3345,3574,0,0,0,0,0,0,0,0,3.713,3.148,8.612,0.34,0.2,-0.274,-2.485,2.145,13.044,4.313,-3.123,-0.366,angry
7.71,208,2474,2643,1158,2595,0,3244,3439,0,0,7,0,0,0,0,0,3.735,3.385,9.084,0.396,0.129,-0.288,-4.697,0.857,10.554,4.886,-3.886,-0.238,angry
7.72,278,2708,2869,1535,2617,0,2980,3134,0,4,0,0,0,0,0,8,3.847,3.575,8.643,0.395,0.083,-0.265,-4.02,-1.279,10.087,6.409,-3.535,0.58,angry
7.73,219,2845,3055,1875,2613,0,2760,2765,0,4,0,0,0,0,0,8,3.474,3.759,8.708,0.28,0.042,-0.213,-4.02,-1.279,10.087,6.409,-3.535,0.58,angry
7.74,162,2979,3205,2113,2611,0,2559,2480,0,0,0,0,0,0,0,0,3.455,3.005,8.32,0.268,0.131,-0.32,0.321,-4.386,13.07,5.636,-4.015,-0.231,angry
7.75,392,3146,3387,2434,2596,0,2330,2179,0,0,0,0,0,0,0,0,3.668,4.089,8.83,0.406,0.279,-0.509,0.567,-5.286,17.207,5.189,-3.964,-1.555,angry
7.76,813,3281,3578,2819,2660,0,2031,1245,0,0,0,0,0,7,0,0,3.021,3.584,8.77,0.387,0.035,-0.415,1.101,-9.51,19.613,5.508,-2.904,-2.811,angry
7.77,1495,3502,3703,3094,2768,0,1660,400,0,0,0,0,0,0,0,0,2.974,4.432,9.275,0.361,-0.057,-0.22,-5.638,-13.479,19.613,5.094,-2.9,-3.595,angry
7.78,2275,3710,3804,3262,2550,0,871,0,0,0,0,0,16,0,0,0,3.709,3.998,8.373,0.6,0.163,-0.29,-9.361,-19.613,18.445,4.118,-2.317,-3.562,angry
7.79,2783,3850,3904,3415,1586,0,496,0,0,0,0,0,0,0,0,0,3.838,3.843,8.157,1.191,0.131,-0.218,-15.622,-19.613,-2.315,1.916,-1.547,-2.025,angry
7.8,3148,3934,3951,3520,1131,0,464,0,0,0,0,0,0,0,0,0,3.579,4.211,8.837,1.534,0.317,-0.268,-14.894,-19.613,-6.668,0.77,-2.43,-1.122,angry
7.81,3452,3943,3983,3583,739,0,256,0,0,0,0,0,0,0,0,0,4.137,3.292,9.222,2.197,0.454,-0.289,-10.592,-19.613,-10.266,-3.021,-0.59,-1.051,angry
7.82,3664,3770,3964,3625,102,0,0,0,0,0,0,0,0,0,0,997,6.543,2.605,8.629,3.45,0.852,-0.424,-5.962,19.613,19.613,-3.469,-0.348,-0.055,angry
7.83,3719,3160,3906,3645,0,0,0,0,0,0,0,0,0,0,0,1956,6.491,3.026,9.534,4.546,1.13,-0.6,6.891,1.98,0.247,-5.02,-1.438,0.273,angry
7.84,3750,2325,3749,3418,0,0,0,0,0,0,0,0,0,0,71,2453,5.428,2.298,9.553,5.253,1.104,-1.125,-6.179,-17.303,19.613,-3.56,-0.158,0.237,angry
7.85,3731,1934,3182,2923,0,0,0,0,11,0,0,0,0,0,678,2713,3.282,0.189,19.613,6.32,0.308,-2.012,-8.669,-0.898,17.918,-2.778,0.161,0.586,angry
7.86,3546,1047,2145,2042,0,0,0,0,0,0,0,0,0,0,1162,3035,6.618,8.993,19.613,7.083,-0.056,-3.336,8.447,-0.874,5.488,-2.905,-0.369,1.034,angry
7.87,2735,432,464,854,0,0,0,0,7,0,0,0,0,0,1990,3571,6.488,11.329,18.804,7.095,0.108,-4.955,8.025,-6.026,8.957,-2.687,-0.359,0.691,angry
7.88,1323,0,0,70,0,0,0,0,0,0,0,0,91,0,2661,3707,7.657,13.35,19.613,6.197,-0.128,-5.763,1.676,-19.613,19.613,-2.884,2.83,1.165,angry
7.89,435,0,0,0,0,0,0,0,0,0,0,0,487,0,2991,3806,15.352,3.029,19.613,1.122,-1.05,-5.793,3.534,-8.104,19.613,-2.203,1.384,0.861,angry
7.9,138,0,0,0,0,0,0,0,0,0,0,0,1209,0,3272,3859,19.613,6.529,17.983,-0.452,-0.471,-4.801,3.618,-5.543,12.328,-0.484,2.01,0.772,angry
7.91,290,0,0,0,0,0,0,0,5,0,7,0,1486,0,3374,3885,19.613,-3.759,15.555,-2.244,1.162,-2.507,2.598,-2.808,10.166,-0.421,1.505,0.489,angry
7.92,331,0,0,0,0,0,0,0,0,0,0,0,1835,0,3359,3890,19.613,-4.52,9.917,-2.322,0.547,-0.197,-0.177,-3.792,12.878,-0.394,0.976,0.422,angry
7.93,327,0,0,0,0,0,0,0,0,0,0,111,2162,12,3271,3701,14.384,-4.271,11.169,-2.204,-0.912,1.205,1.164,-2.629,10.075,-0.352,0.607,0.315,angry
7.94,310,0,0,0,0,0,0,0,0,0,0,229,2303,0,3259,3675,10.661,-2.301,11.38,-2.38,-2.244,2.174,0.855,-2.523,10.41,-0.358,0.276,0.195,angry
7.95,202,0,0,0,0,0,0,0,0,0,0,299,2447,0,3229,3637,9.51,-0.69,8.751,-2.666,-2.622,2.832,1.683,-2.844,9.725,-0.347,0.044,0.109,angry
7.96,106,0,0,0,0,0,0,0,0,0,0,373,2554,0,3188,3565,6.302,0.239,8.631,-2.994,-2.364,3.109,1.748,-2.392,9.661,-0.312,-0.059,0.104,angry
7.97,83,0,0,0,0,0,0,0,0,0,0,466,2643,0,3087,3468,3.474,1.269,9.51,-3.295,-2.167,3.097,1.99,-2.253,9.342,-0.368,-0.048,0.204,angry
7.98,35,0,0,0,0,0,0,0,0,43,5,591,2685,0,2879,3325,2.804,2.2,10.089,-3.577,-1.965,2.973,2.641,-2.38,9.261,-0.31,0.216,0.267,angry
7.99,42,0,0,0,0,0,0,0,0,139,0,888,2717,0,2404,3191,2.83,3.476,11.277,-3.873,-1.714,2.851,2.222,-2.193,9.287,-0.397,0.261,0.366,angry
8,78,0,0,0,0,0,0,0,1,446,7,1199,2874,3,2375,3143,2.919,4.645,12.208,-4.112,-1.56,2.811,1.317,-2.473,9.304,-0.434,0.324,0.456,angry
8.01,43,0,0,0,0,0,0,0,2,525,0,1431,2904,2,2315,2959,3.28,5.399,12.656,-4.233,-1.425,2.822,1.499,-2.459,8.978,-0.466,0.434,0.525,angry
8.02,60,0,0,0,0,0,0,0,4,470,5,1715,2914,0,2121,2808,3.342,6.539,14.427,-4.236,-1.46,2.88,0.9,-3.414,10.807,-0.838,0.17,0.574,angry
8.03,19,0,0,0,0,0,0,0,29,413,0,1929,2787,3,1763,2567,3.699,7.381,15.337,-4.215,-1.389,2.943,1.578,-2.567,9.752,-0.739,0.257,0.686,angry
8.04,3,0,0,0,0,0,0,0,275,408,7,2211,2725,5,1661,2383,4.168,7.922,15.603,-4.195,-1.008,2.903,1.784,-3.112,9.309,-0.352,0.324,0.461,angry
8.05,43,0,0,0,0,0,0,0,627,629,7,2405,2642,7,1439,2137,4.556,9.088,16.824,-4.167,-0.479,2.763,0.644,-3.67,10.259,-0.284,0.221,0.26,angry
8.06,28,0,0,0,0,0,0,0,1033,1045,7,2526,2680,5,1335,1899,5.085,12.194,19.589,-4.087,0.03,2.637,1.259,-3.383,9.673,-0.255,0.155,0.201,angry
8.07,13,0,0,0,0,0,0,0,1631,1324,7,2745,2685,5,1122,1766,2.516,17.341,19.613,-4.124,0.04,2.674,0.974,-3.098,9.749,-0.153,0.145,0.133,angry
8.08,0,0,0,0,0,0,0,0,1983,1445,5,2859,2731,5,766,1437,-3.239,19.613,19.613,-4.099,-0.899,2.666,1.877,-4.515,9.618,-0.104,0.208,0.116,angry
8.09,0,0,0,0,0,0,0,0,2345,1527,0,3028,2699,11,285,1227,-1.209,19.613,13.264,-3.597,-1.879,2.429,0.462,-3.512,9.515,-0.14,0.075,0.081,angry
8.1,33,0,0,0,0,0,0,0,2616,1789,12,3144,2631,10,183,907,-11.715,19.613,-1.41,-2.733,-1.415,1.07,1.061,-2.464,9.158,-0.246,0.121,0.039,angry
8.11,79,0,0,0,0,0,0,0,2951,2092,7,3272,2467,5,5,518,-6.998,19.613,-6.773,-1.127,-2.296,-0.049,1.633,-3.91,9.246,-0.434,0.113,-0.096,angry
8.12,64,0,0,0,1,0,0,0,3069,2249,156,3302,2198,0,4,382,-5.356,19.613,-8.497,-0.103,-1.413,-0.07,1.034,-2.591,9.412,-0.676,0.067,-0.199,angry
8.13,0,0,0,0,0,0,0,0,3293,2335,2,3327,1371,4,7,276,6.754,19.613,-12.368,3.114,0.996,0.273,2.5,-1.547,9.536,-2.117,0.199,-0.487,angry
8.14,0,0,0,0,48,0,502,1583,3387,2169,0,3293,776,23,0,267,2.272,2.971,14.82,1.941,2.395,0.687,2.2,-2.255,9.629,-3.039,0.194,-0.531,angry
8.15,0,0,0,0,583,0,1477,3152,3413,1687,58,3181,191,0,0,151,-15.558,-19.613,19.613,5.938,-1.323,-1.289,0.977,-1.798,7.908,-4.314,0.326,-0.617,angry
8.16,0,0,0,0,464,0,2763,3632,3047,823,0,2669,229,23,6,114,9.424,19.613,19.613,3.42,-0.501,-2.451,2.825,-3.129,8.399,-6.43,0.526,-0.131,angry
8.17,0,214,0,0,1345,0,3344,3802,3367,165,0,1836,0,0,0,100,11.459,5.679,4.934,2.319,1.307,-1.25,5.957,-7.192,19.613,-8.731,2.286,4.37,angry
8.18,0,1075,0,0,2131,0,3522,3824,1267,0,7,9,0,0,0,0,9.886,7.547,8.703,0.499,2.659,-1.301,5.631,-8.571,19.613,-8.731,2.451,6.577,angry
8.19,0,1804,12,0,2430,0,3568,3856,0,0,0,0,0,0,0,0,2.085,4.642,14.825,0.776,2.287,-1.292,6.091,-4.626,19.613,-4.318,0.844,5.959,angry
8.2,119,2203,1200,176,2663,0,3583,3861,0,0,0,0,3,0,0,0,4.446,4.312,12.179,0.914,1.52,-1.089,13.949,-17.569,19.613,-1.041,0,4.434,angry
8.21,431,2672,2693,1125,2830,0,3568,3809,0,0,0,0,0,0,0,0,3.634,4.949,10.695,0.753,0.701,-0.687,19.613,10.695,19.613,3.328,1.141,3.287,angry
8.22,560,2896,3065,1768,2880,0,3501,3666,0,0,0,0,1,0,0,0,3.163,4.013,9.632,0.511,0.354,-0.389,11.937,4.185,10.738,3.341,-1.41,-0.689,angry
8.23,560,3006,3247,2023,2814,0,3306,3391,0,0,12,0,0,0,0,0,3.946,3.4,8.349,0.461,0.389,-0.357,4.197,-0.273,11.732,4.668,-2.664,-2.62,angry
8.24,688,3123,3361,2310,2559,0,2894,3056,0,0,0,0,10,0,0,0,3.709,3.658,8.811,0.481,0.358,-0.414,-3.098,-0.409,11.435,5.15,-3.313,-2.525,angry
8.25,810,3187,3461,2608,2096,0,2317,2603,0,0,0,0,0,0,0,0,3.287,3.632,8.918,0.395,0.194,-0.37,-4.187,-1.286,10.762,5.517,-3.657,-1.906,angry
8.26,901,3216,3533,2799,1214,0,1188,1826,0,0,0,0,25,0,0,0,2.725,3.491,8.545,0.2,0.197,-0.23,-2.116,-4.791,12.945,6.063,-2.894,-0.227,angry
8.27,1395,3216,3583,2960,958,0,581,656,0,0,0,0,39,0,0,0,3.134,4.051,8.641,0.186,0.13,-0.238,0.781,-5.449,14.02,6.036,-3.081,-0.331,angry
8.28,1746,3263,3631,3063,899,0,266,15,0,0,0,0,0,0,0,0,3.371,3.984,8.612,0.204,0.087,-0.257,3.103,-6.512,16.075,5.942,-3.125,-0.867,angry
8.29,2117,3296,3699,3167,1040,0,198,0,0,0,0,0,0,0,0,0,3.211,4.044,8.495,0.269,0.018,-0.27,3.926,-7.733,19.175,5.87,-3.157,-1.647,angry
8.3,2311,3376,3742,3275,1072,0,94,0,0,0,0,0,0,0,0,0,3.017,4.19,8.655,0.332,-0.043,-0.268,4.434,-8.437,19.613,5.681,-3.328,-2.51,angry
8.31,2592,3434,3783,3361,926,0,0,0,0,0,0,0,0,0,0,0,3.041,4.276,8.765,0.368,-0.059,-0.239,1.7,-11.583,19.613,5.638,-3.347,-3.427,angry
8.32,2811,3472,3824,3430,752,0,0,0,0,0,0,0,0,0,0,0,2.887,4.032,8.586,0.541,-0.023,-0.185,-5.832,-16.937,19.613,5.814,-3.195,-4.027,angry
8.33,2982,3557,3852,3493,610,0,0,0,0,0,0,0,0,0,0,0,3.098,4.065,8.454,0.687,0.017,-0.162,-7.29,-19.613,19.613,5.466,-2.609,-3.641,angry
8.34,3178,3617,3892,3547,771,0,0,0,0,0,0,0,0,0,0,9,3.366,4.089,8.535,0.869,0.074,-0.133,-5.215,-19.613,9.55,4.138,-1.106,-3.385,angry
8.35,3314,3664,3920,3604,665,0,0,0,0,0,0,0,0,0,0,0,3.156,4.207,8.691,1.06,0.13,-0.121,-14.928,-19.613,-1.089,2.873,-0.936,-2.399,angry
8.36,3449,3676,3937,3639,474,0,0,0,0,0,0,0,0,0,0,0,3.201,4.451,8.523,1.232,0.269,-0.08,-15.002,-19.613,-4.101,1.515,-2.062,-1.552,angry
8.37,3563,3657,3950,3669,592,0,0,0,0,0,0,0,0,0,0,0,3.886,3.965,8.361,1.64,0.399,-0.116,-8.887,-19.613,-4.436,0.187,-1.268,-1.91,angry
8.38,3655,3559,3956,3696,272,0,0,0,0,43,0,0,0,0,0,0,4.769,4.374,8.717,2.049,0.545,-0.147,-13.941,-19.613,-3.455,-0.882,0.225,-1.797,angry
8.39,3718,3088,3950,3698,0,0,0,0,0,0,0,0,0,0,0,1,4.171,4.14,8.844,2.657,0.587,-0.338,-19.515,-19.613,-8.724,-2.564,-0.176,-1.069,angry
8.4,3767,2837,3911,3677,0,0,0,0,0,0,0,0,0,0,0,397,5.2,3.364,8.645,3.429,0.562,-0.689,5.849,-3.725,15.196,-1.797,2.157,0.642,angry
8.41,3787,2515,3799,3553,0,0,0,0,0,0,0,0,0,0,0,1627,6.098,1.86,9.031,4.695,0.774,-1.269,-6.565,19.419,19.613,-5.069,-0.757,0.597,angry
8.42,3743,2027,3414,3191,0,0,0,0,0,0,0,0,0,0,0,2459,5.435,1.484,11.571,5.652,1.049,-2.106,7.089,-18.375,14.83,-4.06,1.615,2.202,angry
8.43,3679,1450,2606,2406,0,0,0,0,0,0,0,0,0,0,379,3089,7.688,4.12,16.13,6.519,0.551,-3.042,1.985,-19.613,19.613,-3.615,1.336,0.648,angry
8.44,3297,657,1961,1574,0,0,0,0,0,0,0,0,0,0,1147,3295,8.428,8.94,19.613,7.539,-0.276,-4.06,1.595,4.626,11.418,-3.007,1.285,0.559,angry
8.45,2145,240,23,741,0,0,0,0,0,0,0,0,0,0,1327,3512,11.135,6.704,16.355,8.085,-0.018,-5.428,1.346,-2.684,10.326,-3.063,0.792,0.575,angry
8.46,484,0,0,175,0,0,0,0,0,0,0,0,0,2,1971,3592,10.465,11.921,19.613,6.168,-1.288,-5.859,-3.01,-7.128,14.317,-2.593,0.699,0.821,angry
8.47,0,0,0,0,0,0,0,0,0,0,0,0,0,0,2523,3919,19.613,5.576,19.613,0.279,-1.1,-3.94,12.819,-1.377,19.613,-2.099,0.815,1.109,angry
8.48,0,0,0,0,0,0,0,0,0,0,0,0,0,0,2523,3919,19.613,1.899,12.354,-1.366,1.092,-1.748,12.819,-1.377,19.613,-2.099,0.815,1.109,angry
8.49,0,0,0,0,0,0,0,0,25,0,0,0,149,0,3007,4028,16.063,-12.447,16.233,-2.636,1.709,-0.374,0.271,-3.132,13.439,-1.163,1.317,0.659,angry
8.5,47,0,0,0,0,0,0,0,3,0,0,0,201,0,3044,4044,11.217,-3.601,15.05,-2.581,-1.175,0.893,4.379,-4.606,10.599,-0.763,1.145,0.477,angry
8.51,93,0,0,0,0,0,0,0,1,6,2,88,265,2,3081,4050,12.222,-0.448,14.31,-3.194,-2.45,1.732,1.312,-2.684,10.755,-0.604,0.796,0.385,angry
8.52,103,0,0,0,0,0,0,0,0,85,0,543,282,0,3066,4037,10.901,2.382,12.268,-4.125,-2.129,2.382,1.547,-3.213,10.786,-0.415,0.598,0.276,angry
8.53,91,0,0,0,0,0,0,0,0,0,0,1245,490,0,3055,3999,3.713,2.787,13.08,-4.893,-2.325,2.542,1.164,-2.533,9.373,-0.305,0.326,0.32,angry
8.54,84,0,0,0,0,0,0,0,0,0,0,1317,571,0,2915,3848,-0.048,3.498,10.7,-5.346,-2.79,2.262,1.41,-2.964,9.682,-0.301,0.102,0.189,angry
8.55,98,0,0,0,0,0,0,0,0,0,0,1483,721,0,2831,3787,0.922,4.094,8.308,-5.419,-2.769,1.709,1.365,-2.55,9.527,-0.346,0.012,0.171,angry
8.56,97,0,0,0,0,0,0,0,2,0,0,1673,797,0,2687,3703,3.249,5.883,10.01,-5.409,-2.379,1.393,1.336,-2.684,9.85,-0.362,-0.003,0.197,angry
8.57,97,0,0,0,0,0,0,0,0,0,40,1899,916,0,2457,3592,4.075,7.724,11.993,-5.306,-2.532,1.515,1.235,-2.842,10.036,-0.355,0.006,0.214,angry
8.58,106,0,0,0,0,0,0,0,0,0,0,1977,909,0,2132,3509,6.072,8.507,12.088,-5.086,-2.75,1.92,1.396,-3.189,9.689,-0.31,0.059,0.195,angry
8.59,109,0,0,0,0,0,0,0,3,0,0,2127,939,0,1948,3356,6.931,8.926,12.158,-4.729,-2.769,2.485,1.24,-2.935,9.615,-0.243,0.134,0.22,angry
8.6,104,0,0,0,0,0,0,0,24,10,0,2200,971,0,1789,3327,6.773,8.844,12.783,-4.255,-2.652,2.997,1.142,-3.079,9.618,-0.209,0.134,0.226,angry
8.61,115,0,0,0,0,0,0,0,154,233,2,2333,1127,3,1771,3259,6.682,9.459,14.559,-3.842,-2.475,3.338,1.046,-2.595,9.388,-0.235,0.064,0.221,angry
8.62,118,0,0,0,0,0,0,0,169,471,2,2430,1221,2,1671,3080,6.902,9.998,14.942,-3.554,-1.982,3.529,1.247,-2.895,9.301,-0.26,-0.029,0.151,angry
8.63,116,0,0,0,0,0,0,0,473,507,23,2489,1351,4,1591,2953,7.298,10.712,15.653,-3.268,-1.16,3.577,1.183,-3.407,9.651,-0.242,-0.055,0.113,angry
8.64,0,0,0,0,0,0,0,0,869,552,2,2655,1839,4,1607,2710,2.725,17.221,18.701,-3.056,0.071,3.572,1.458,-3.081,9.378,-0.288,-0.096,0.088,angry
8.65,0,0,0,0,0,0,0,0,869,552,2,2655,1839,4,1607,2710,-0.85,19.156,17.736,-2.277,-0.92,3.675,1.458,-3.081,9.378,-0.288,-0.096,0.088,angry
8.66,0,0,0,0,0,0,0,0,1767,1266,15,2889,2471,0,1422,1966,-4.721,19.613,12.184,-2.263,-1.304,3.241,1.48,-2.983,9.656,-0.338,0.001,0.086,angry
8.67,0,0,0,0,0,0,0,0,2395,1669,15,3047,2586,10,406,1100,-16.228,19.613,-3.622,-1.499,-2.483,1.761,1.903,-2.916,8.916,-0.313,0.143,0.049,angry
8.68,0,0,0,0,0,0,0,0,2635,1927,10,3113,2445,38,21,1093,-9.38,19.613,-8.607,0.54,0.059,0.239,1.379,-2.813,9.146,-0.41,0.223,-0.01,angry
8.69,11,0,0,0,0,0,0,0,2836,2067,7,3226,2227,38,0,915,-9.639,19.613,1.812,1.194,1.202,-0.671,1.518,-3.622,9.464,-0.484,0.224,-0.093,angry
8.7,80,0,0,0,0,0,0,0,2836,2067,7,3226,2227,38,0,915,-5.21,19.613,6.191,1.503,0.545,-1.083,1.518,-3.622,9.464,-0.484,0.224,-0.093,angry
8.71,0,0,0,0,0,0,0,79,3131,2300,0,3360,1395,5,1,504,13.494,15.143,-8.595,3.617,2.064,-0.373,1.973,-3.084,9.189,-0.867,0.005,-0.242,angry
8.72,0,0,0,0,0,0,271,1581,3251,2253,5,3381,1045,3,0,333,2.883,-2.138,19.309,2.462,2.441,0.304,1.386,-2.421,9.742,-1.47,-0.088,-0.334,angry
8.73,0,0,0,0,363,0,1471,3301,3372,1645,0,3279,235,0,0,362,-4.695,8.03,16.079,5.651,-0.207,-2.484,2.646,-1.702,11.092,-3.572,0.298,-0.5,angry
