timestamp,L1,L2,L3,L4,L5,L6,L7,L8,R1,R2,R3,R4,R5,R6,R7,R8,acc_x_left,acc_y_left,acc_z_left,gyro_x_left,gyro_y_left,gyro_z_left,acc_x_right,acc_y_right,acc_z_right,gyro_x_right,gyro_y_right,gyro_z_right,mood
0.00,3324,3440,3306,2922,1356,0,1612,1868,1497,0,0,1099,61,0,0,606,3.108,4.252,8.545,0.133,0.006,-0.012,-0.127,-4.465,9.950,-0.285,0.471,-1.321,angry
0.01,3371,3390,3312,2960,1374,0,1503,1774,826,0,0,869,6,0,0,531,2.942,4.111,8.602,0.167,0.048,0.021,-0.989,-4.482,9.644,-0.688,0.684,-2.263,angry
0.02,3487,3306,3341,2987,1410,0,1430,1460,750,0,0,457,0,0,0,416,3.383,4.937,8.071,0.121,0.147,0.096,-2.600,-4.657,10.192,-0.828,0.731,-2.522,angry
0.03,3550,3363,3361,3014,1335,0,1386,1437,327,0,0,10,0,0,0,229,4.096,5.116,8.126,0.047,0.152,0.106,-10.776,-4.029,10.942,-1.240,0.464,-1.989,angry
0.04,3606,3380,3415,3057,1282,0,1423,1411,73,0,0,0,0,21,9,122,3.247,5.037,8.270,0.096,0.054,0.018,-11.238,-3.594,13.949,-0.541,0.847,0.307,angry
0.05,3663,3458,3437,3071,1282,0,1370,1339,0,0,0,0,0,0,0,135,3.019,4.360,8.583,0.088,0.019,-0.016,-6.393,-3.093,14.147,-0.200,1.429,0.956,angry
0.06,3695,3494,3457,3071,1424,0,1373,1457,0,0,2,0,0,0,0,92,3.033,4.348,8.521,0.058,-0.008,-0.016,-0.943,0.103,12.567,0.295,1.765,0.406,angry
0.07,3690,3486,3467,3081,1403,0,1491,1535,0,0,0,0,0,0,0,39,3.134,4.396,8.461,0.037,0.005,-0.015,1.037,0.922,9.981,0.256,1.395,-0.559,angry
0.08,3709,3513,3471,3070,1414,0,1535,1556,0,0,0,0,0,0,0,26,3.153,4.415,8.526,0.038,0.002,-0.019,0.764,-0.271,10.084,0.326,1.298,-0.959,angry
0.09,3725,3542,3473,3056,1569,0,1630,1658,0,0,0,0,0,0,0,45,3.146,4.403,8.540,0.008,-0.023,0.002,-0.151,0.000,8.916,0.365,1.289,-1.192,angry
0.10,3719,3568,3465,3015,1666,0,1732,1821,0,0,0,7,0,0,0,53,3.158,4.398,8.564,-0.012,-0.071,0.016,0.883,-2.002,9.383,0.341,0.996,-1.394,angry
0.11,3678,3547,3442,2987,1727,0,1929,2066,0,0,0,0,0,0,0,6,3.117,4.245,8.499,-0.046,-0.064,0.031,4.290,-3.527,6.577,0.260,0.711,-2.013,angry
0.12,3647,3568,3427,2934,1813,0,2109,2294,0,0,2,0,0,23,0,17,3.270,4.216,8.411,-0.046,0.026,0.033,4.843,-4.053,4.628,-0.078,0.659,-2.438,angry
0.13,3577,3557,3376,2866,1728,0,2268,2601,0,0,0,0,0,0,0,6,8.337,7.750,7.391,-0.145,0.105,0.107,4.573,-7.175,5.808,-0.794,0.555,-3.222,angry
0.14,3458,3497,3313,2767,1776,0,2352,2895,0,0,0,23,0,0,0,6,3.682,4.377,8.294,-0.046,0.084,0.048,6.122,-14.770,12.012,-0.780,-0.445,-4.508,angry
0.15,3353,3426,3216,2559,1860,0,2541,3146,9,0,0,0,0,8,0,0,2.614,3.464,9.653,-0.081,0.055,0.037,3.393,-7.175,5.231,-0.522,-0.395,-4.342,angry
0.16,3131,3278,3017,2155,1854,0,2681,3365,221,0,0,1243,0,0,0,0,2.356,3.694,10.364,-0.331,-0.130,0.037,6.158,-2.492,10.008,0.713,0.271,-2.607,angry
0.17,2685,2964,2322,1037,1722,0,2763,3449,645,0,0,2063,0,0,0,0,4.499,4.501,8.701,-0.491,-0.255,0.085,9.550,-0.666,15.270,1.172,0.215,-1.448,angry
0.18,2091,1968,0,15,858,0,2624,3511,805,342,0,2359,55,0,0,0,4.963,4.475,8.674,-0.420,0.083,0.074,3.687,1.149,11.097,1.445,0.208,-0.732,angry
0.19,1360,0,0,0,64,0,2284,3519,1225,557,10,2551,725,4,381,5,9.043,10.783,15.912,-1.318,-0.306,1.094,3.757,-2.186,9.783,1.298,0.106,0.616,angry
0.20,1147,0,0,0,23,0,1282,3456,1887,619,12,2669,1709,7,1127,119,4.398,8.832,15.256,-2.349,0.301,1.358,2.605,-2.282,9.680,-0.235,-0.044,0.101,angry
0.21,1105,0,0,0,105,0,446,3227,2171,952,2,2661,1933,7,1391,483,3.261,6.462,11.866,-2.811,0.398,1.215,1.602,-3.768,9.467,-0.167,-0.031,-0.049,angry
0.22,1008,0,0,0,71,0,263,2538,2480,1315,10,2781,2351,17,1865,1228,-1.846,3.558,13.838,-3.112,0.096,0.438,1.422,-3.610,9.579,-0.007,-0.056,0.056,angry
0.23,867,0,0,0,85,0,138,367,2678,1427,12,2877,2735,6,2343,1957,-14.052,6.160,13.446,-3.207,-1.037,-2.014,1.279,-3.086,9.601,0.017,-0.079,-0.003,angry
0.24,901,0,0,0,155,0,0,0,2771,1598,10,2873,2901,7,2519,2117,-3.285,15.933,3.251,-3.668,-3.702,-4.895,1.322,-3.050,9.483,-0.022,-0.117,-0.021,angry
0.25,862,0,0,0,0,0,0,0,2822,1705,12,2904,3062,3,2671,2342,3.211,12.761,-5.516,-2.571,-2.080,-4.793,1.580,-3.345,9.601,-0.037,-0.099,-0.013,angry
0.26,741,0,0,0,101,0,0,0,2822,1801,5,2955,3111,8,2710,2463,6.656,12.091,-2.028,-0.906,0.211,-3.845,1.432,-3.443,9.464,-0.005,-0.047,-0.055,angry
0.27,609,0,0,0,0,0,0,0,2811,1757,97,2975,3163,21,2745,2526,6.211,8.724,1.535,0.305,0.332,-3.186,1.520,-3.223,9.369,-0.001,-0.014,-0.049,angry
0.28,426,0,0,0,65,0,0,0,2746,1528,5,2991,3155,6,2750,2605,7.420,8.823,6.112,1.069,0.608,-2.252,1.348,-3.517,9.436,0.008,0.045,-0.053,angry
0.29,373,0,0,0,7,0,0,0,2696,1300,5,3004,3115,5,2747,2675,6.048,7.968,7.654,1.262,0.575,-1.686,1.365,-3.237,9.404,0.009,0.056,-0.064,angry
0.30,323,0,0,0,0,0,0,0,2584,1245,69,2987,3047,0,2767,2714,4.590,6.735,8.181,1.337,0.532,-1.433,1.401,-3.251,9.450,0.023,0.078,-0.059,angry
0.31,276,0,0,0,0,0,0,0,2463,1147,17,3005,3004,5,2718,2772,3.215,5.830,8.784,1.324,0.434,-1.464,1.314,-3.254,9.459,0.028,0.094,-0.057,angry
0.32,247,0,0,0,0,0,0,0,2343,1100,5,2961,2915,3,2739,2809,1.786,5.464,10.336,1.206,0.114,-1.644,1.283,-3.163,9.450,0.035,0.172,-0.044,angry
0.33,240,0,0,0,0,0,0,0,2234,1066,5,2951,2751,5,2693,2839,1.188,5.150,11.205,0.957,-0.311,-1.883,1.422,-3.524,9.278,0.007,0.194,-0.045,angry
0.34,179,0,0,0,0,0,0,0,1943,1113,2,2931,2092,0,2566,2931,1.970,4.518,10.058,0.548,-0.391,-2.449,1.195,-3.129,9.486,0.059,0.258,-0.030,angry
0.35,250,0,0,0,0,0,0,0,1717,954,0,2837,1801,0,2525,2963,2.571,5.078,11.035,0.098,-0.479,-2.932,1.451,-3.165,9.261,0.052,0.237,-0.020,angry
0.36,237,0,0,0,0,0,0,0,1543,573,2,2907,1705,4,2513,2906,2.667,4.580,10.053,-0.122,-0.596,-3.209,1.346,-3.139,9.301,0.052,0.185,-0.027,angry
0.37,242,0,0,0,0,0,0,0,917,539,2,2816,1657,4,2653,3069,4.283,4.939,9.728,-0.318,-0.665,-3.671,-0.101,-3.349,10.125,0.070,0.082,-0.044,angry
0.38,207,0,0,0,0,0,0,0,761,482,5,2703,1512,0,2634,3155,6.539,4.618,8.839,-0.476,-0.356,-3.785,1.271,-3.010,9.335,0.056,0.116,-0.034,angry
0.39,169,0,0,0,0,0,0,0,683,559,2,2505,1337,4,2646,3176,7.523,4.027,7.939,-0.418,-0.226,-3.661,1.453,-3.139,9.282,0.058,0.143,-0.034,angry
0.40,176,0,0,0,0,0,0,0,601,445,0,2351,1403,3,2711,3231,9.052,3.560,7.592,-0.307,-0.088,-3.403,1.314,-2.880,9.428,0.046,0.116,-0.059,angry
0.41,92,0,0,0,0,0,0,0,488,395,0,2155,1271,5,2631,3275,10.525,3.060,7.855,-0.200,0.081,-3.017,1.164,-3.201,9.651,0.052,0.113,-0.052,angry
0.42,79,0,0,0,0,0,0,0,343,471,0,2091,1101,5,2637,3310,11.183,2.088,7.649,-0.137,0.218,-2.504,1.283,-3.079,9.471,0.042,0.130,-0.058,angry
0.43,109,0,0,0,0,0,0,0,189,435,2,2079,922,3,2587,3355,10.499,0.819,7.503,-0.033,0.209,-1.973,1.116,-3.220,9.618,0.046,0.144,-0.056,angry
0.44,119,0,0,0,57,0,0,0,155,318,0,2159,751,2,2591,3351,9.325,0.199,7.166,0.095,0.090,-1.510,1.281,-3.079,9.316,0.008,0.144,-0.059,angry
0.45,75,0,0,0,36,0,0,0,135,287,0,2139,719,3,2587,3405,7.628,-0.606,5.646,0.351,0.183,-1.290,1.417,-2.931,9.345,-0.057,0.139,-0.098,angry
0.46,500,0,0,0,0,0,0,0,157,245,7,2201,499,0,2557,3491,10.302,7.666,10.989,0.616,-0.588,-0.355,0.757,-2.993,9.431,-0.104,0.128,-0.077,angry
0.47,894,0,0,0,0,0,0,0,59,303,0,2136,397,1,2616,3434,7.381,-2.114,6.349,0.246,-1.188,0.103,0.800,-3.074,9.620,-0.075,0.149,-0.069,angry
0.48,1308,75,0,0,0,0,0,0,0,231,0,2233,311,0,2524,3480,13.759,0.584,10.894,0.262,-0.970,-0.090,0.919,-3.201,9.776,-0.033,0.150,-0.054,angry
0.49,1484,818,278,226,29,0,0,0,0,247,0,2275,294,0,2506,3499,13.542,-2.880,8.710,-0.359,-0.517,-0.282,0.883,-3.112,9.615,-0.048,0.086,-0.048,angry
0.50,1845,1757,1819,747,29,0,0,0,0,175,0,2292,180,0,2519,3511,15.852,-3.053,9.438,-0.626,-0.964,-0.303,1.053,-3.251,9.541,-0.061,0.106,-0.025,angry
0.51,1916,2421,2435,1058,197,0,0,0,5,333,0,2276,139,0,2463,3534,14.918,-1.834,6.689,-0.562,-0.730,0.033,0.682,-3.029,9.718,-0.020,0.131,-0.030,angry
0.52,1984,2764,2736,1470,447,0,0,0,0,280,20,2140,109,1,2377,3544,7.142,5.629,6.606,-0.618,-0.192,-0.067,2.588,-3.357,9.378,-0.037,0.127,-0.117,angry
0.53,2128,2997,2873,1691,830,0,176,0,0,251,0,2156,109,0,2277,3533,3.417,1.554,8.863,-0.169,-0.296,-0.122,2.624,-3.606,8.971,-0.093,0.188,-0.330,angry
0.54,2255,3042,2927,1819,1124,0,558,346,25,231,0,2025,30,0,2219,3519,1.803,3.718,8.966,-0.143,0.220,0.019,2.157,-3.548,9.364,-0.061,0.220,-0.617,angry
0.55,2245,3051,2944,1931,1195,0,738,930,0,31,0,1577,25,0,2236,3485,2.835,4.082,8.854,0.105,0.184,0.060,1.717,-3.711,9.606,-0.001,0.250,-0.797,angry
0.56,2256,3037,2960,1895,1243,0,1169,1350,0,1,0,1211,0,0,2197,3463,3.651,4.240,8.428,0.016,0.098,0.123,2.966,-4.120,9.273,0.030,0.263,-1.009,angry
0.57,2159,3069,3027,1851,1775,0,1794,2158,0,0,0,871,0,0,1837,3366,3.036,4.075,8.602,-0.139,0.073,0.133,4.197,-3.905,8.916,-0.029,0.452,-1.586,angry
0.58,1955,3141,3086,1923,2129,0,2426,2627,0,0,0,245,0,0,999,3187,3.026,4.061,8.909,-0.094,0.016,0.152,5.804,-5.677,8.626,-0.089,0.755,-2.394,angry
0.59,1696,3249,3169,2013,2398,0,2752,2869,0,0,0,74,0,0,745,3065,3.177,4.092,8.873,-0.086,-0.012,0.184,5.138,-5.116,8.863,-0.248,0.850,-2.906,angry
0.60,1439,3307,3238,1904,2679,0,2975,3034,0,0,0,0,0,0,312,2515,3.443,3.888,8.631,-0.128,-0.042,0.189,8.689,-7.865,7.664,-0.479,1.311,-4.373,angry
0.61,1177,3317,3265,1712,2864,0,3185,3162,0,0,0,0,0,0,0,1699,3.383,3.816,8.655,-0.159,-0.040,0.175,2.703,-5.353,6.881,-0.322,1.702,-4.853,angry
0.62,1053,3399,3263,1488,3043,0,3312,3271,0,0,0,0,0,0,0,1229,3.397,3.754,8.665,-0.120,-0.024,0.145,1.415,-4.312,7.695,-0.475,1.840,-4.613,angry
0.63,867,3427,3243,1300,3139,0,3390,3332,0,0,0,0,0,0,0,997,3.402,3.742,8.744,-0.102,-0.031,0.150,-0.891,-4.137,10.393,-1.158,1.154,-3.136,angry
0.64,750,3430,3213,1006,3179,0,3427,3361,0,0,0,12,0,0,0,824,3.484,3.685,8.760,-0.071,-0.033,0.121,2.109,-0.733,11.791,-0.751,0.573,-1.428,angry
0.65,659,3459,3153,852,3245,0,3455,3376,0,0,0,0,0,0,0,693,3.373,3.541,8.724,-0.049,-0.060,0.099,3.517,0.967,11.748,-0.602,0.138,-0.922,angry
0.66,547,3458,3103,782,3261,0,3467,3379,0,0,0,0,0,0,0,510,3.419,3.472,8.569,-0.031,-0.067,0.071,6.304,4.415,11.408,-0.146,-0.313,-0.478,angry
0.67,436,3442,3088,779,3243,0,3472,3387,0,44,2,0,0,0,0,499,3.488,3.493,8.490,0.002,-0.018,0.044,5.145,5.286,12.577,0.329,-0.960,-0.567,angry
0.68,467,3487,3090,758,3268,0,3472,3389,2,0,0,0,0,0,0,447,3.460,3.558,8.657,0.015,-0.010,0.028,4.748,4.377,12.979,0.661,-1.166,-0.641,angry
0.69,490,3475,3110,781,3277,0,3477,3392,0,0,0,0,0,2,0,283,3.457,3.584,8.667,0.021,0.016,0.007,3.469,2.351,10.956,0.989,-0.991,-0.770,angry
0.70,511,3479,3119,853,3271,0,3477,3395,0,0,0,0,0,0,0,301,3.565,3.445,8.337,0.024,0.060,-0.013,2.761,0.857,10.161,0.942,-0.787,-0.912,angry
0.71,497,3461,3147,928,3248,0,3478,3419,0,0,0,0,0,0,0,209,3.419,3.608,8.626,0.021,0.049,0.002,1.257,-1.776,10.309,0.648,-0.349,-1.169,angry
0.72,481,3506,3177,1020,3299,0,3489,3426,0,0,0,0,0,0,0,199,3.393,3.689,8.847,0.027,0.024,0.009,0.462,-3.060,10.891,0.475,-0.285,-1.245,angry
0.73,449,3514,3216,1047,3315,0,3491,3423,0,0,0,0,0,0,0,119,3.450,3.711,8.909,0.045,0.000,-0.005,-0.333,-4.848,11.356,0.369,-0.425,-1.362,angry
0.74,327,3516,3250,1297,3293,0,3471,3391,0,0,0,0,0,0,0,137,3.445,3.287,8.583,0.069,-0.007,-0.025,-1.161,-6.653,12.495,0.979,-0.400,-1.328,angry
0.75,299,3567,3328,1535,3350,0,3440,3312,0,0,5,0,0,0,0,143,3.493,3.259,8.612,0.149,0.011,-0.102,-1.958,-5.744,9.579,1.126,-0.328,-1.209,angry
0.76,265,3615,3413,1777,3359,0,3376,3184,0,0,0,0,0,0,0,0,3.440,3.122,8.413,0.220,0.049,-0.190,-1.846,-5.552,7.116,0.843,-0.084,-0.750,angry
0.77,327,3647,3520,2087,3344,0,3222,2944,0,0,0,0,4,0,0,0,3.505,3.519,8.504,0.306,0.057,-0.286,-0.527,-5.871,6.637,0.483,-0.070,-0.515,angry
0.78,778,3778,3630,2406,3349,0,2893,2249,21,0,0,0,0,0,0,0,3.440,3.548,8.770,0.408,-0.030,-0.331,0.168,-6.050,6.682,0.303,-0.006,-0.544,angry
0.79,1457,3845,3711,2654,3270,0,2339,325,0,0,0,0,0,0,0,0,3.716,4.815,9.258,0.293,0.127,-0.260,0.615,-5.799,5.899,-0.012,0.368,-0.741,angry
0.80,1851,3893,3757,2829,3135,0,1789,0,0,0,0,0,0,0,0,0,3.508,4.266,8.710,0.376,0.127,-0.234,0.065,-5.418,5.234,-0.276,0.526,-0.755,angry
0.81,2155,3921,3790,2918,2709,0,1104,0,89,0,0,0,0,0,0,0,2.988,3.826,8.851,0.431,0.185,-0.210,-0.074,-5.720,5.507,-0.576,0.559,-0.719,angry
0.82,2442,3957,3821,3009,2113,0,599,0,0,0,0,0,0,0,0,0,3.316,3.450,8.789,0.624,0.184,-0.226,-0.369,-6.493,3.304,-1.347,0.792,-0.628,angry
0.83,2682,3984,3851,3100,1809,0,538,0,0,0,0,0,0,0,0,0,3.225,3.998,8.674,0.937,0.164,-0.176,-3.742,-8.808,4.211,-1.776,1.009,-0.143,angry
0.84,2890,4011,3875,3168,1650,0,592,0,0,0,0,0,0,0,0,133,3.287,3.936,8.550,1.113,0.174,-0.188,2.306,-5.892,13.221,-1.407,1.545,0.257,angry
0.85,3008,4019,3888,3224,1489,0,587,0,0,0,0,0,0,0,0,274,3.120,3.136,8.207,1.370,0.105,-0.151,1.539,-0.917,13.673,-0.822,1.117,0.348,angry
0.86,3141,4018,3908,3271,1095,0,562,0,0,0,0,0,0,3,0,831,3.412,3.967,8.605,1.575,0.273,-0.214,2.490,0.048,6.467,-1.653,0.625,0.443,angry
0.87,3248,4001,3919,3307,883,0,498,0,0,0,0,0,0,0,0,1213,3.352,4.187,9.038,1.859,0.296,-0.179,-0.388,-5.497,14.815,-1.729,0.424,0.604,angry
0.88,3376,3958,3903,3321,624,0,393,0,9,0,0,0,0,0,477,1716,3.871,4.116,8.851,2.142,0.498,-0.192,-1.753,-8.294,15.888,-0.977,0.501,0.370,angry
0.89,3505,3501,3857,3258,353,0,170,0,0,0,0,0,0,0,1341,2352,3.826,4.228,8.993,2.787,0.640,-0.381,2.404,-1.982,9.093,-0.856,0.029,0.239,angry
0.90,3627,2835,3676,2558,0,0,0,0,0,0,0,0,0,0,1707,2619,4.961,3.057,7.247,3.837,1.064,-0.946,4.420,-12.158,14.796,-0.698,0.903,0.536,angry
0.91,3643,2367,3285,2337,0,0,0,0,0,0,0,0,53,0,2013,2795,3.984,1.688,12.306,4.175,0.880,-1.780,0.855,-2.107,8.531,-0.242,1.063,0.506,angry
0.92,3603,1782,2686,2023,0,0,0,0,0,0,0,0,187,0,2363,2981,5.571,5.179,13.336,4.761,0.442,-3.096,0.543,-5.878,11.468,-0.031,0.318,0.096,angry
0.93,2769,578,370,897,0,0,0,0,0,0,0,86,504,0,2813,3276,8.361,6.718,16.237,5.170,0.568,-5.092,0.603,-2.607,9.656,0.072,-0.110,-0.002,angry
0.94,1750,128,0,91,0,0,0,0,0,0,0,379,1017,0,2934,3368,8.842,6.922,15.639,5.411,0.626,-5.703,1.264,-2.890,10.238,-0.100,-0.153,0.102,angry
0.95,609,0,0,0,0,0,0,0,0,6,0,505,1485,0,3055,3433,11.420,12.541,19.613,3.066,1.418,-4.558,1.427,-3.012,9.586,-0.098,-0.093,0.095,angry
0.96,0,0,0,0,0,0,0,0,0,0,0,680,1907,0,3253,3471,19.613,0.412,17.380,1.096,1.368,-3.014,1.183,-2.801,9.862,-0.073,0.011,0.126,angry
0.97,12,0,0,0,0,0,0,0,0,0,0,921,2376,0,3349,3500,19.613,-4.156,12.799,-0.561,1.353,-0.526,1.571,-2.863,9.304,-0.104,-0.046,0.109,angry
0.98,0,0,0,0,0,0,0,0,1,33,0,1101,2635,0,3428,3499,15.409,-4.070,8.485,-0.606,1.013,0.650,1.690,-3.259,9.622,-0.111,-0.112,0.062,angry
0.99,0,0,0,0,0,0,0,0,0,371,0,1187,2782,0,3477,3483,10.168,-4.140,11.231,-0.786,0.037,1.429,1.820,-3.081,9.584,-0.100,-0.157,0.050,angry
1.00,0,0,0,0,0,0,0,0,0,621,0,1327,2919,0,3502,3427,9.926,-2.612,11.004,-1.130,-0.829,2.062,1.578,-3.055,9.670,-0.109,-0.140,0.066,angry
1.01,0,0,0,0,0,0,0,0,0,681,0,1383,3049,0,3500,3352,8.940,-1.448,11.380,-1.810,-0.976,2.475,1.592,-3.091,9.373,-0.103,-0.096,0.060,angry
1.02,0,0,0,0,0,0,0,0,0,632,0,1385,3125,0,3477,3256,6.862,-0.357,10.862,-2.485,-0.965,2.787,1.607,-3.108,9.670,-0.107,-0.095,0.058,angry
1.03,0,0,0,0,0,0,0,0,0,776,0,1398,3183,0,3421,3101,4.276,0.508,9.960,-2.984,-1.099,2.904,1.532,-3.021,9.512,-0.100,-0.083,0.059,angry
1.04,0,0,0,0,0,0,0,0,0,1075,0,1415,3237,0,3335,2957,3.517,1.786,9.799,-3.311,-1.295,2.871,1.724,-2.863,9.268,-0.110,-0.062,0.071,angry
1.05,0,0,0,0,0,0,0,0,2,1167,0,1379,3275,0,3231,2759,4.575,3.891,9.922,-3.590,-1.248,2.896,1.918,-2.832,9.225,-0.144,-0.060,0.128,angry
1.06,0,0,0,0,0,0,0,0,0,1379,0,1367,3311,0,3064,2543,5.045,4.927,10.985,-4.021,-0.920,2.965,2.145,-2.406,10.791,-0.391,-0.221,0.180,angry
1.07,0,0,0,0,0,0,0,0,108,1543,2,1378,3369,11,2831,2266,4.484,7.506,11.432,-4.084,-1.008,3.192,1.769,-3.122,9.210,-0.185,-0.084,0.153,angry
1.08,0,0,0,0,0,0,0,0,179,1673,0,1455,3405,3,2751,2019,3.828,7.563,11.964,-4.208,-1.173,3.273,1.690,-3.048,9.529,-0.158,-0.050,0.178,angry
1.09,0,0,0,0,0,0,0,0,171,1746,0,1381,3487,3,2677,1876,4.252,8.504,12.845,-4.319,-1.171,3.297,1.836,-3.089,9.189,-0.153,0.018,0.210,angry
1.10,0,0,0,0,13,0,0,0,243,1883,2,1721,3497,0,2605,1525,4.968,9.637,14.042,-4.335,-1.147,3.309,2.030,-3.598,9.052,-0.161,0.094,0.218,angry
1.11,0,0,0,0,0,0,0,0,379,1916,5,1831,3499,10,2599,1368,5.320,11.432,15.625,-4.342,-1.098,3.404,2.298,-2.935,8.959,-0.177,0.225,0.223,angry
1.12,0,0,0,0,3,0,0,0,807,1967,23,2220,3511,25,2523,1276,3.948,12.673,15.514,-4.191,-1.113,3.518,1.925,-3.352,9.481,-0.184,0.295,0.192,angry
1.13,0,0,0,0,22,0,0,0,1407,2220,2,2671,3525,3,2163,1101,2.253,15.402,15.210,-3.493,-1.110,3.259,1.027,-0.563,10.120,-0.072,0.270,0.203,angry
1.14,0,0,0,0,14,0,0,0,1865,2316,5,2822,3535,4,2003,855,0.318,19.613,16.331,-3.318,0.169,2.486,1.891,-3.093,10.084,-0.180,0.196,0.128,angry
1.15,0,0,0,0,66,0,0,0,2110,2507,2,2875,3512,5,1696,805,-4.757,19.613,8.772,-3.206,0.148,1.709,1.410,-3.376,9.634,-0.180,0.189,0.117,angry
1.16,0,0,0,0,176,0,0,0,2327,2547,2,3003,3354,6,1341,665,-9.701,19.613,-0.895,-2.705,-0.974,0.920,1.568,-3.888,9.608,-0.141,0.241,0.119,angry
1.17,85,0,0,0,195,0,0,0,2759,2662,0,3132,2917,3,55,453,-4.415,19.613,-9.170,-0.686,-2.458,0.493,1.331,-3.488,9.876,-0.513,0.189,-0.122,angry
1.18,166,0,0,0,114,0,0,0,2991,2485,0,3230,2098,3,97,150,-5.282,19.613,-15.277,2.331,-0.247,0.838,1.477,-3.031,9.596,-0.644,0.042,-0.044,angry
1.19,31,0,0,0,264,0,342,384,3091,2295,0,3245,1771,0,3,165,2.650,10.613,5.799,3.526,0.108,0.550,1.721,-2.823,9.771,-0.957,0.044,-0.021,angry
1.20,0,0,0,0,432,0,1762,2829,3165,1881,0,3217,613,0,0,43,-10.417,-8.787,14.684,5.018,-1.126,-2.835,1.475,-2.648,9.795,-2.148,-0.045,0.156,angry
1.21,0,906,0,0,1856,0,3273,3295,2667,859,0,2671,255,0,0,3,19.613,19.613,-0.630,1.622,2.620,-2.790,1.630,-0.919,11.554,-3.708,-0.440,1.131,angry
1.22,578,2719,0,0,2661,0,3437,3349,2679,0,0,2227,83,0,0,1,-5.883,3.977,19.613,1.542,3.480,-2.616,5.373,-6.572,16.309,-4.788,-0.892,2.183,angry
1.23,1627,3482,2791,932,2880,0,3385,3162,2358,0,0,174,0,0,0,0,1.087,9.043,18.943,1.670,0.654,-0.787,-0.086,-7.424,13.479,-4.283,0.447,4.506,angry
1.24,2480,3647,3250,2116,2877,0,3276,3120,363,0,0,0,0,0,0,0,2.945,6.452,9.285,0.590,0.461,-0.094,1.906,-3.491,13.408,-1.626,0.915,6.360,angry
1.25,2954,3792,3441,2528,2878,0,3031,3013,1,0,0,0,0,0,0,0,3.213,5.047,8.672,0.430,0.338,-0.103,8.274,-0.970,5.313,-0.814,1.075,5.481,angry
1.26,3136,3835,3519,2710,2802,0,2819,2875,12,0,0,0,0,0,0,0,3.127,4.887,8.727,0.359,0.237,-0.062,10.384,-1.262,5.737,0.034,0.589,2.779,angry
1.27,3370,3885,3612,2879,2785,0,2427,2444,0,0,0,0,0,5,0,0,3.613,4.156,8.514,0.365,0.242,-0.067,-0.627,-3.352,6.457,-0.055,-0.650,0.590,angry
1.28,3546,3872,3670,2980,2512,0,1983,1771,0,0,0,0,0,16,0,0,3.400,5.203,8.138,0.276,0.294,-0.058,-5.825,-3.290,6.632,0.520,-0.953,0.827,angry
1.29,3690,3918,3705,3061,2183,0,1358,1325,0,0,0,0,0,0,0,0,3.156,5.303,8.274,0.191,0.257,-0.091,-6.924,-3.615,5.662,0.812,-0.903,1.000,angry
1.30,3777,3897,3705,3122,1468,0,783,761,0,0,117,0,0,0,0,0,3.263,5.262,8.033,0.120,0.192,-0.153,-7.578,-4.599,5.069,1.053,-0.721,0.932,angry
1.31,3834,3857,3715,3152,1048,0,571,414,0,0,7,89,0,0,0,0,3.417,5.847,7.520,0.050,0.151,-0.179,-6.316,-5.871,4.599,0.990,-0.429,0.674,angry
1.32,3844,3843,3713,3189,1057,0,524,261,0,0,0,0,0,0,0,0,3.309,5.382,7.822,0.074,0.124,-0.169,-6.716,-6.732,5.806,0.804,-0.343,0.418,angry
1.33,3859,3839,3719,3205,1043,0,432,17,0,0,0,0,0,0,0,6,3.187,4.820,8.147,0.124,0.102,-0.172,-6.871,-6.615,6.246,0.751,-0.253,0.212,angry
1.34,3818,3824,3723,3223,921,0,418,0,0,0,0,0,0,0,0,0,3.285,4.475,8.277,0.149,0.095,-0.152,-7.367,-5.847,5.650,0.614,-0.089,0.179,angry
1.35,3942,3815,3715,3225,864,0,417,0,0,0,0,0,0,0,0,0,3.072,4.724,8.370,0.128,0.067,-0.138,-7.575,-5.696,7.985,0.585,-0.035,0.269,angry
1.36,3917,3828,3715,3226,830,0,368,0,0,0,0,0,0,0,0,0,3.005,4.836,8.332,0.084,0.059,-0.121,-7.446,-3.757,7.525,0.791,-0.076,0.443,angry
1.37,3923,3811,3710,3207,805,0,305,0,0,0,0,0,0,0,0,0,3.105,4.980,8.140,0.021,0.048,-0.088,-5.983,-2.945,6.663,0.896,-0.039,0.746,angry
1.38,3858,3810,3696,3199,801,0,304,0,0,0,0,0,0,0,3,17,3.199,5.076,7.999,-0.011,0.025,-0.087,-4.221,-2.607,6.653,0.964,-0.053,0.876,angry
1.39,3929,3807,3699,3207,795,0,317,0,0,3,0,0,0,7,0,0,3.220,4.889,8.073,-0.022,0.014,-0.101,-2.729,-2.148,6.452,0.972,-0.236,0.810,angry
1.40,3937,3801,3696,3197,805,0,336,0,0,0,0,0,0,0,0,0,3.342,4.855,8.138,-0.026,0.023,-0.113,-1.338,-2.150,6.366,0.935,-0.437,0.607,angry
1.41,3935,3790,3679,3185,719,0,254,0,0,0,0,0,0,0,0,8,3.168,4.788,8.083,-0.040,0.033,-0.124,-0.745,-1.978,6.498,0.843,-0.668,0.301,angry
1.42,3941,3780,3671,3186,739,0,274,0,0,0,0,0,0,0,0,0,3.330,4.666,8.179,-0.027,0.044,-0.133,-0.297,-2.794,9.555,0.776,-1.112,-0.079,angry
1.43,3941,3780,3658,3194,511,0,242,0,21,0,0,0,0,0,0,0,3.261,4.705,8.188,-0.024,0.050,-0.133,0.675,-3.797,10.381,1.089,-1.263,-0.503,angry
1.44,3977,3783,3631,3231,535,0,246,0,0,0,0,0,0,0,0,0,3.330,4.707,8.131,-0.014,0.060,-0.150,-0.211,-4.733,9.345,1.262,-1.239,-0.843,angry
1.45,3968,3741,3639,3217,449,0,178,0,0,0,0,0,9,18,25,3,3.311,4.602,8.368,-0.012,0.046,-0.159,-1.482,-5.449,8.430,1.276,-1.181,-0.958,angry
1.46,4007,3728,3617,3217,496,0,203,0,0,0,0,13,0,0,0,0,3.120,4.530,8.511,-0.033,0.042,-0.164,-1.841,-7.137,8.037,1.192,-1.110,-0.937,angry
1.47,3963,3712,3583,3213,460,0,224,0,0,0,0,0,12,0,0,0,3.038,4.743,8.341,-0.093,0.051,-0.148,-2.363,-8.681,7.898,1.201,-0.949,-0.800,angry
1.48,4032,3697,3558,3243,383,0,254,177,0,0,0,0,0,0,0,0,3.067,4.757,8.286,-0.119,0.048,-0.125,-3.469,-8.842,6.946,1.092,-0.884,-0.497,angry
1.49,3987,3676,3523,3248,292,0,254,361,0,0,0,0,0,0,0,0,2.976,4.480,8.423,-0.130,0.068,-0.112,-2.981,-10.010,12.215,1.114,-1.638,-1.264,angry
1.50,3984,3649,3472,3286,316,0,250,767,0,0,0,0,6,0,0,0,3.112,4.623,8.466,-0.145,0.111,-0.080,-0.953,-11.375,7.779,1.266,-1.572,-0.775,angry
1.51,3978,3567,3449,3312,222,0,373,1197,0,0,0,17,0,0,0,0,3.160,4.664,8.270,-0.156,0.129,-0.053,1.628,-9.215,3.551,0.236,-2.222,-1.111,angry
1.52,3975,3445,3421,3317,21,0,390,1675,106,0,0,1449,0,10,0,20,3.213,4.585,8.507,-0.109,0.156,-0.031,6.476,-15.215,8.629,0.845,-1.296,-0.023,angry
1.53,3949,3357,3402,3299,129,0,349,1789,391,0,0,1907,0,0,0,0,3.349,4.506,8.363,-0.098,0.259,-0.050,5.576,-14.454,4.250,0.479,-0.774,-0.408,angry
1.54,3907,3306,3351,3273,182,0,303,1840,664,413,0,2479,30,0,0,0,3.096,4.441,8.535,-0.058,0.221,0.022,3.804,-3.792,12.084,1.321,0.164,0.328,angry
1.55,3826,3129,3235,3216,107,0,48,1694,1369,991,0,2775,260,0,0,0,3.275,4.523,8.468,-0.045,0.243,-0.017,2.239,-1.671,8.775,1.866,0.120,0.577,angry
1.56,3763,2890,3071,3135,38,0,0,940,1581,1325,0,2940,584,0,421,0,3.953,4.544,8.198,-0.001,0.272,-0.090,0.608,-1.178,9.550,0.756,0.127,0.111,angry
1.57,3611,2334,2866,2969,0,0,0,0,1989,1459,0,2967,1625,2,1479,701,3.634,4.638,8.183,0.063,0.351,-0.227,1.396,-2.947,9.596,-0.064,-0.179,-0.249,angry
1.58,3379,1892,2254,2517,0,0,0,0,2339,1801,0,2981,2223,4,1583,1333,2.626,4.781,9.306,-0.023,-0.037,-0.685,1.197,-3.661,9.567,0.070,-0.091,-0.025,angry
1.59,3105,1417,1323,1486,0,0,0,0,2453,1967,0,3015,2505,6,1749,1651,3.831,5.310,8.602,0.067,0.362,-0.732,1.329,-3.994,10.096,0.141,-0.318,0.014,angry
1.60,2508,539,0,464,0,0,0,0,2631,2227,2,3061,2858,5,2269,2021,3.168,7.638,8.959,0.294,1.209,-0.838,1.420,-3.409,9.802,0.096,-0.211,0.037,angry
1.61,1772,48,0,0,0,0,0,0,2699,2387,2,3111,3052,6,2445,2227,2.794,10.561,7.197,1.005,1.589,-0.205,1.475,-3.347,9.409,-0.029,-0.131,0.011,angry
1.62,850,0,0,0,0,0,0,0,2731,2423,5,3133,3107,3,2487,2266,2.744,9.730,6.242,1.328,2.187,1.028,1.468,-3.438,9.558,-0.038,-0.080,0.002,angry
1.63,775,0,0,0,0,0,0,0,2764,2443,2,3148,3155,21,2501,2290,-0.515,8.104,11.791,1.101,1.754,1.605,1.360,-3.498,9.421,-0.015,-0.052,0.003,angry
1.64,559,0,0,0,0,0,0,0,2765,2396,2,3181,3199,5,2473,2365,-2.502,4.204,12.730,0.460,1.204,1.473,1.427,-3.340,9.448,0.015,-0.010,-0.018,angry
1.65,267,0,0,0,0,0,0,0,2743,2303,0,3211,3179,4,2615,2493,-2.933,2.052,11.657,0.164,0.604,0.887,1.475,-3.345,9.469,0.051,0.060,-0.015,angry
1.66,202,0,0,0,0,0,0,0,2707,2263,2,3221,3063,6,2661,2542,-1.611,2.076,10.930,0.037,0.534,0.495,1.448,-3.395,9.479,0.061,0.108,-0.016,angry
1.67,137,0,0,0,0,0,0,0,2641,2167,46,3215,3101,5,2732,2604,-1.039,2.037,10.853,-0.111,0.457,0.181,1.216,-3.223,9.476,0.043,0.094,-0.042,angry
1.68,80,0,0,0,0,0,0,0,2553,2095,2,3192,2981,5,2769,2687,-0.014,1.839,10.216,-0.268,0.193,-0.061,1.346,-3.381,9.603,0.102,0.109,-0.039,angry
1.69,0,0,0,0,0,0,0,0,2284,1819,2,3059,2463,4,2853,2815,1.156,2.399,9.486,-0.338,-0.073,-0.119,0.795,-2.887,9.285,0.155,0.055,-0.023,angry
1.70,0,0,0,0,0,0,0,0,2184,1811,53,3099,2457,0,2899,2889,1.956,2.947,9.239,-0.371,-0.031,-0.074,1.228,-2.919,9.512,0.082,0.021,-0.003,angry
1.71,2,0,0,0,0,0,0,0,2159,1728,12,3096,2483,4,2885,2937,2.224,3.637,8.839,-0.399,0.044,0.029,1.274,-3.160,9.421,0.035,0.015,0.002,angry
1.72,0,0,0,0,0,0,0,0,2227,1725,0,3089,2511,5,2939,2981,2.119,4.116,8.507,-0.419,0.130,0.157,1.290,-3.156,9.335,0.032,0.005,0.003,angry
1.73,0,0,0,0,0,0,0,0,2124,1816,0,3054,2571,3,2956,3015,1.865,4.401,7.822,-0.395,0.262,0.243,1.269,-3.153,9.476,0.024,0.003,-0.005,angry
1.74,0,0,0,0,0,0,0,0,2075,1868,2,3041,2647,0,2983,3039,1.776,4.453,7.202,-0.348,0.453,0.276,1.250,-3.215,9.335,0.014,-0.042,-0.006,angry
1.75,0,0,0,0,0,0,0,0,2014,1779,2,3007,2687,5,3004,3113,1.513,4.295,7.223,-0.278,0.609,0.283,1.293,-3.194,9.510,0.030,-0.016,-0.016,angry
1.76,0,0,0,0,0,0,0,0,1889,1737,2,2974,2713,16,3007,3103,1.472,4.341,7.312,-0.210,0.627,0.271,1.312,-3.201,9.428,0.027,-0.027,-0.016,angry
1.77,0,0,0,0,0,0,0,0,1749,1631,2,2926,2725,5,3019,3175,1.532,4.389,7.314,-0.167,0.570,0.253,1.379,-3.263,9.515,0.046,-0.008,-0.009,angry
1.78,0,0,0,0,0,0,0,0,1459,1545,7,2877,2679,4,3033,3207,1.535,4.245,7.312,-0.142,0.488,0.217,1.377,-3.191,9.517,0.055,0.007,-0.008,angry
1.79,0,0,0,0,0,0,0,0,1193,1484,5,2792,2602,3,3051,3256,1.616,4.226,7.061,-0.120,0.424,0.184,1.295,-3.237,9.524,0.066,0.015,-0.014,angry
1.80,0,0,0,0,0,0,0,0,1017,1431,2,2715,2547,3,3063,3295,1.719,4.161,6.926,-0.105,0.358,0.155,1.267,-3.160,9.524,0.074,0.021,-0.016,angry
1.81,0,0,0,0,0,0,0,0,951,1305,0,2569,2451,3,3068,3347,1.839,4.147,6.728,-0.073,0.285,0.139,1.341,-3.100,9.448,0.070,0.019,-0.013,angry
1.82,0,0,0,0,0,0,0,0,906,1251,2,2428,2311,2,3097,3368,2.174,4.161,6.488,-0.045,0.267,0.134,1.444,-3.163,9.697,0.077,0.053,-0.038,angry
1.83,0,0,0,0,0,0,0,0,1059,883,15,2236,2056,25,3103,3405,2.318,4.175,6.421,-0.005,0.287,0.123,1.161,-2.988,9.579,0.100,0.084,0.033,angry
1.84,0,0,0,0,0,0,0,0,1135,773,0,2207,1803,2,3110,3433,1.913,4.087,6.711,0.023,0.210,0.126,1.580,-2.978,9.129,0.094,0.133,0.049,angry
1.85,0,0,0,0,0,0,0,0,966,729,2,2153,1587,3,3123,3475,1.776,4.085,6.814,0.053,0.076,0.102,1.389,-2.866,9.251,0.059,0.140,0.054,angry
1.86,0,0,0,0,0,0,0,0,1077,751,2,2157,1401,4,3127,3492,1.848,4.094,6.685,0.046,0.012,0.068,1.312,-2.964,9.448,0.013,0.126,0.067,angry
1.87,0,0,0,0,0,0,0,0,1131,722,2,2323,1267,3,3101,3515,1.932,4.125,6.706,0.058,-0.033,0.035,1.262,-3.136,9.431,0.014,0.103,0.049,angry
1.88,0,0,0,0,0,0,0,0,1289,791,17,2405,1271,5,3083,3531,1.824,4.130,6.687,0.104,-0.116,0.062,1.164,-3.098,9.474,0.014,0.098,0.047,angry
1.89,0,0,0,0,0,0,0,0,1399,675,0,2451,1243,4,3063,3548,1.712,3.941,6.318,0.170,-0.166,0.103,1.202,-3.036,9.448,0.022,0.094,0.057,angry
1.90,0,0,0,0,0,0,0,0,1480,552,5,2534,1287,24,3029,3559,1.901,3.950,6.230,0.252,-0.117,0.122,1.247,-2.983,9.438,-0.004,0.100,0.034,angry
1.91,0,0,0,0,0,0,0,0,1511,568,2,2587,1097,3,2989,3591,2.243,4.152,6.309,0.318,0.026,0.142,1.252,-3.165,9.550,-0.034,0.111,0.046,angry
1.92,0,0,0,0,0,0,0,0,1531,499,5,2652,1017,1,2935,3571,2.052,4.164,6.637,0.395,0.092,0.148,1.080,-3.433,9.515,-0.001,0.101,0.069,angry
1.93,0,0,0,0,0,0,0,0,1575,299,2,2783,1011,4,2921,3580,1.810,4.226,6.984,0.514,-0.009,0.152,1.008,-3.333,9.685,-0.002,0.126,0.056,angry
1.94,0,0,0,0,0,0,0,0,1624,339,0,2735,1127,0,2895,3677,2.231,4.475,7.281,0.580,0.009,0.103,1.154,-2.895,9.359,0.012,0.117,0.060,angry
1.95,0,0,0,0,0,0,0,0,1787,344,7,2764,1091,3,2952,3607,2.088,5.298,8.818,0.509,0.081,0.095,1.156,-3.079,9.591,-0.013,0.112,0.072,angry
1.96,0,0,0,0,0,0,0,0,1895,437,53,2789,984,4,2821,3619,1.630,5.236,9.505,0.321,0.074,0.111,0.596,-2.473,9.622,0.032,0.100,0.082,angry
1.97,0,0,0,0,0,0,0,0,1991,483,2,2827,1048,5,2735,3623,0.615,4.427,8.973,0.226,-0.021,0.055,1.398,-2.998,9.335,-0.050,0.082,0.063,angry
1.98,0,0,0,0,0,0,0,0,2073,483,2,2845,935,3,2606,3629,-0.122,3.879,8.930,0.274,-0.217,-0.083,1.027,-3.117,9.409,-0.043,0.081,0.053,angry
1.99,0,0,0,0,0,0,0,0,2071,499,7,2843,909,0,2511,3631,0.929,7.025,13.563,0.099,-0.424,-0.146,0.943,-3.371,9.543,-0.010,0.108,0.066,angry
2.00,0,0,0,0,0,0,0,0,2135,413,0,2855,905,3,2501,3653,1.640,6.996,14.004,-0.587,-0.337,-0.071,0.864,-3.208,9.527,0.059,0.130,0.082,angry
2.01,0,0,0,0,0,0,0,0,2255,341,7,2925,907,5,2504,3673,-0.804,4.896,12.416,-0.939,-0.352,-0.176,0.869,-3.062,9.582,0.014,0.145,0.095,angry
2.02,0,0,0,0,0,0,0,0,2344,351,0,2937,936,4,2459,3695,-2.133,2.466,9.335,-0.897,-0.600,-0.501,1.487,-3.031,9.591,-0.004,0.150,0.100,angry
2.03,0,0,0,0,0,0,0,0,2347,205,2,2955,857,12,2349,3720,-1.472,1.982,7.860,-0.621,-0.899,-0.905,1.051,-3.108,9.560,-0.023,0.152,0.108,angry
2.04,0,0,0,0,0,0,0,0,2420,77,0,2943,745,0,2325,3737,0.182,2.854,8.607,-0.377,-1.055,-1.119,1.135,-3.263,9.541,-0.023,0.177,0.106,angry
2.05,0,0,0,0,0,0,0,0,2483,42,2,2965,597,12,2343,3749,2.090,4.269,10.178,-0.321,-1.142,-1.089,1.178,-3.323,9.445,0.012,0.196,0.094,angry
2.06,0,0,0,0,0,0,0,0,2544,23,0,2968,531,2,2253,3756,2.361,4.324,10.094,-0.411,-1.143,-0.944,0.958,-3.153,9.560,0.021,0.193,0.071,angry
2.07,0,0,0,0,0,0,0,0,2571,5,17,2965,479,0,2279,3766,1.748,3.670,9.060,-0.469,-1.188,-0.860,0.898,-3.168,9.589,0.013,0.166,0.057,angry
2.08,0,0,0,0,0,0,0,0,2551,0,0,2936,331,0,2213,3774,1.446,4.405,8.780,-0.456,-1.324,-0.790,0.819,-3.141,9.622,0.033,0.154,0.044,angry
2.09,0,0,0,0,0,0,0,0,2571,0,0,2987,303,0,2211,3781,1.453,4.384,7.570,-0.431,-1.377,-0.747,1.104,-3.179,9.570,0.005,0.119,0.035,angry
2.10,0,0,0,0,0,0,0,0,2607,0,0,2993,251,1,2170,3776,1.384,4.451,6.194,-0.305,-1.324,-0.800,0.946,-3.081,9.510,0.028,0.147,0.038,angry
2.11,0,0,0,0,0,0,0,0,2549,1,0,3006,197,19,2035,3787,2.164,4.966,4.477,-0.115,-1.258,-0.843,0.891,-3.156,9.476,0.032,0.149,0.048,angry
2.12,0,0,0,0,0,0,0,0,2567,0,0,2989,213,0,2085,3794,2.966,5.641,3.778,0.277,-1.494,-0.714,0.778,-3.144,9.546,0.043,0.168,0.050,angry
2.13,47,86,0,36,0,0,0,0,2539,0,0,2982,179,0,2065,3794,4.061,9.479,13.795,-1.258,-1.976,-0.518,0.704,-3.134,9.550,0.031,0.163,0.045,angry
2.14,85,479,0,285,167,0,0,0,2529,0,0,3030,159,0,1944,3784,5.006,6.812,3.747,-1.175,-1.644,-0.428,0.826,-2.916,9.728,0.018,0.128,0.029,angry
2.15,144,1069,505,631,268,0,0,0,2495,381,2,3016,211,10,2096,3739,-5.382,2.851,13.424,-2.146,-0.172,-0.217,0.725,-2.670,9.416,-0.050,0.030,0.000,angry
2.16,215,1264,944,784,450,0,427,1883,2456,461,2,3025,492,4,2189,3676,2.492,4.597,11.315,-0.144,0.008,0.364,0.122,-2.658,10.003,-0.112,0.023,-0.070,angry
2.17,272,1521,1645,1157,785,0,940,2535,2153,1431,0,2844,891,3,1927,3411,7.051,3.814,6.086,0.402,0.401,-0.150,1.113,-3.031,9.948,-0.310,0.060,-0.002,angry
2.18,360,1666,2230,1693,856,0,1136,2951,2295,1719,0,2899,631,7,139,2648,1.195,4.322,9.680,0.361,0.159,-0.120,1.022,-2.344,10.700,-0.733,0.160,-0.019,angry
2.19,485,1963,2559,2046,960,0,1745,3245,2411,1612,0,2913,293,0,0,1593,2.954,5.471,9.041,0.080,0.099,0.145,0.816,-1.889,10.166,-1.161,0.044,-0.058,angry
2.20,542,2155,2752,2217,1201,0,2441,3441,2373,1515,0,3007,103,0,0,807,3.481,3.579,9.115,0.087,0.011,0.140,1.542,-4.324,9.452,-1.097,-0.955,1.777,angry
2.21,562,2197,2807,2266,1451,9,2672,3568,1262,795,0,3043,4,22,0,874,2.753,3.761,8.847,-0.008,0.012,0.128,12.316,-10.661,10.594,-0.852,-0.242,3.157,angry
2.22,572,2351,2849,2229,1626,0,2848,3657,233,351,0,2125,0,0,0,662,3.345,3.733,8.689,0.001,-0.013,0.161,14.535,-13.678,10.932,-0.860,1.437,3.672,angry
2.23,574,2415,2822,2069,1884,94,2978,3682,0,82,0,524,0,0,0,446,2.940,3.558,8.909,-0.003,-0.056,0.134,19.613,-17.351,5.871,-2.461,5.854,2.513,angry
2.24,591,2432,2800,1887,1984,0,3071,3712,1,63,0,0,0,0,0,291,2.811,3.943,9.064,-0.062,-0.139,0.180,16.477,-10.101,4.932,-2.940,2.394,-3.002,angry
2.25,647,2480,2710,1712,2095,0,3158,3729,0,0,0,0,0,0,0,294,2.830,3.876,9.045,-0.100,-0.191,0.216,11.765,-7.163,10.508,-3.005,1.902,-3.344,angry
2.26,591,2517,2559,1565,2179,0,3213,3728,0,0,0,0,0,0,0,205,3.010,3.364,8.837,-0.090,-0.167,0.224,4.743,1.348,16.652,-1.785,0.064,-2.340,angry
2.27,531,2552,2507,1319,2243,0,3257,3723,0,0,0,0,0,0,0,138,3.100,3.304,8.945,-0.070,-0.138,0.198,6.182,6.529,16.556,0.378,-0.803,-0.791,angry
2.28,483,2622,2508,1168,2385,0,3271,3675,0,0,28,0,0,0,0,141,3.237,2.935,8.413,-0.035,-0.069,0.112,7.506,6.428,16.338,1.238,-1.045,-0.563,angry
2.29,395,2657,2626,1244,2416,0,3261,3627,0,0,0,0,0,0,0,141,2.950,3.129,8.772,-0.032,-0.050,0.058,8.303,5.792,11.976,2.308,-1.684,-1.322,angry
2.30,272,2693,2779,1223,2427,0,3230,3541,0,0,0,0,0,0,0,71,3.433,2.887,8.633,0.099,0.039,-0.077,7.331,2.102,12.986,2.622,-2.329,-2.441,angry
2.31,192,2819,2923,1504,2452,0,3166,3469,0,0,0,0,0,0,0,56,3.323,3.373,8.914,0.194,0.025,-0.200,6.603,0.235,13.611,2.753,-2.403,-2.993,angry
2.32,137,2924,3083,1872,2315,0,3060,3337,0,0,0,0,0,0,0,1,3.247,3.165,8.574,0.264,0.041,-0.367,4.702,-3.745,14.842,2.981,-1.906,-3.904,angry
2.33,253,3014,3213,2170,2270,0,2873,3230,0,0,0,0,0,0,0,0,3.141,3.546,8.657,0.334,0.041,-0.487,2.689,-6.014,14.672,2.693,-1.073,-4.265,angry
2.34,535,3203,3401,2605,2330,0,2522,3024,0,0,255,0,0,0,0,13,2.856,3.510,8.684,0.326,0.010,-0.427,2.854,-6.740,14.016,2.422,-0.512,-4.200,angry
2.35,1181,3376,3566,2885,2481,0,2221,2320,0,0,0,0,0,0,0,0,3.970,5.409,9.234,0.353,-0.070,-0.277,1.202,-12.886,16.091,2.056,0.450,-4.219,angry
2.36,1927,3567,3723,3142,2401,0,1559,357,0,0,0,0,0,0,0,0,3.572,3.867,8.839,0.422,-0.034,-0.272,-6.426,-19.613,14.399,2.255,-0.744,-3.966,angry
2.37,2559,3775,3823,3343,2052,0,503,0,0,0,0,0,0,0,0,0,2.751,4.805,8.710,0.649,-0.053,-0.396,-8.265,-19.613,7.726,2.179,-1.133,-3.475,angry
2.38,2840,3855,3866,3408,1520,0,464,0,0,0,0,0,0,0,0,0,2.832,2.832,8.298,1.021,-0.024,-0.412,-9.768,-19.613,-0.134,1.773,-0.769,-2.928,angry
2.39,3168,3912,3919,3474,1187,0,429,0,0,0,0,0,0,0,0,0,2.253,3.888,9.776,1.567,-0.119,-0.280,-12.941,-19.613,-3.203,-0.264,-0.586,-1.221,angry
2.40,3393,3913,3938,3522,812,0,363,0,0,0,0,0,0,0,0,0,2.782,3.529,8.744,2.260,-0.027,-0.280,5.720,-19.613,-10.681,-3.543,0.988,-1.456,angry
2.41,3494,3871,3937,3522,656,0,285,0,0,0,0,0,0,0,0,279,3.735,3.438,8.167,2.911,0.231,-0.408,-3.124,-4.937,17.437,-2.492,2.585,-0.068,angry
2.42,3568,3721,3905,3483,706,0,180,0,0,0,0,20,0,0,0,1361,3.797,3.728,8.109,3.530,0.474,-0.620,-11.866,2.988,19.613,-3.738,-0.707,-0.549,angry
2.43,3678,2711,3717,3057,166,0,0,0,0,0,0,0,0,0,41,2140,5.401,4.664,8.983,4.893,0.892,-1.457,-6.213,-7.032,15.651,-4.454,-0.182,0.922,angry
2.44,3683,2203,2893,2370,0,0,0,0,0,0,0,0,17,0,839,2815,3.457,1.092,19.613,5.706,0.254,-2.692,-1.724,-19.613,19.613,-2.645,-0.155,0.284,angry
2.45,3097,813,1253,1260,0,0,0,0,0,0,0,0,136,0,2406,3402,8.066,9.591,19.613,6.719,0.319,-5.502,11.626,-19.613,19.613,-2.654,1.905,1.019,angry
2.46,1227,0,0,0,0,0,0,0,0,61,0,0,1272,0,3197,3703,15.608,9.299,17.810,6.644,2.263,-6.397,0.790,-5.167,13.216,-0.220,1.192,0.606,angry
2.47,555,0,0,0,0,0,0,0,0,85,0,0,1724,0,3373,3750,15.838,-1.216,19.613,0.166,0.633,-3.784,2.090,-3.673,12.024,-0.016,1.096,0.525,angry
2.48,351,0,0,0,0,0,0,0,0,1,0,0,1945,0,3469,3782,19.613,-2.516,11.315,-0.726,0.384,-1.735,3.682,-3.668,9.610,0.132,0.722,0.260,angry
2.49,441,0,0,0,0,0,0,0,0,0,0,0,2073,0,3539,3802,19.613,-9.534,16.216,-1.966,1.074,0.005,3.589,-2.720,8.679,-0.001,0.528,0.225,angry
2.50,400,0,0,0,0,0,0,0,0,0,0,0,2191,0,3561,3803,14.267,-7.659,12.368,-2.440,0.027,1.412,1.566,-2.047,10.077,0.021,0.582,0.247,angry
2.51,334,0,0,0,0,0,0,0,0,0,0,0,2264,0,3565,3797,12.601,-2.519,14.552,-2.799,-1.182,2.273,1.844,-3.206,10.772,0.035,0.450,0.101,angry
2.52,240,0,0,0,0,0,0,0,0,0,0,6,2387,9,3547,3743,11.463,1.899,15.117,-3.506,-1.657,2.974,2.133,-2.691,9.957,0.043,0.226,0.060,angry
2.53,438,0,0,0,0,0,0,0,40,0,0,0,2476,0,3520,3723,7.326,6.251,16.656,-4.461,-1.976,3.429,2.622,-2.753,9.476,0.044,0.026,-0.017,angry
2.54,496,0,0,0,5,0,0,0,0,0,0,0,2543,0,3475,3645,3.081,5.600,13.027,-4.839,-2.392,3.208,3.002,-2.591,9.412,-0.046,-0.026,0.016,angry
2.55,493,0,0,0,7,0,0,0,0,0,0,0,2631,0,3399,3535,1.245,5.966,9.443,-4.888,-2.255,2.532,2.928,-2.339,8.729,-0.071,0.001,0.015,angry
2.56,336,0,0,0,20,0,0,0,0,0,2,0,2607,0,3275,3417,3.302,7.341,10.281,-4.712,-2.003,1.897,2.995,-2.672,9.397,-0.113,-0.010,0.035,angry
2.57,0,0,0,0,0,0,0,0,0,0,0,0,2526,0,3103,3195,5.804,8.138,11.088,-4.638,-1.723,1.643,3.005,-2.516,8.890,-0.067,0.135,0.072,angry
2.58,0,0,0,0,0,0,0,0,0,0,0,0,2581,0,2856,3061,5.832,10.305,13.877,-4.605,-2.008,1.982,2.605,-2.428,8.674,-0.095,0.221,0.134,angry
2.59,0,0,0,0,0,0,0,0,1,0,0,4,2643,0,2895,2989,5.507,10.003,10.513,-4.298,-2.177,2.238,2.875,-2.421,8.552,-0.115,0.392,0.225,angry
2.60,6,0,0,0,0,0,0,0,0,3,0,0,2767,38,2835,2904,4.460,9.407,10.168,-3.891,-2.079,2.382,2.942,-2.370,9.249,-0.167,0.473,0.293,angry
2.61,0,0,0,0,0,0,0,0,0,346,0,5,3007,0,2889,2845,2.875,8.880,9.718,-3.368,-2.067,2.431,2.866,-2.543,8.610,-0.136,0.611,0.357,angry
2.62,0,0,0,0,0,0,0,0,0,565,0,149,3130,0,2923,2696,2.648,8.847,9.481,-2.803,-1.843,2.361,2.672,-2.473,9.194,-0.229,0.694,0.466,angry
2.63,0,0,0,0,0,0,0,0,0,668,0,307,3293,0,2997,2765,3.364,10.470,11.437,-2.458,-1.324,2.347,2.131,-2.332,9.242,-0.273,0.706,0.573,angry
2.64,0,0,0,0,0,0,0,0,0,1113,0,597,3403,11,2969,2651,3.148,12.816,13.949,-2.179,-0.855,2.369,1.662,-2.253,8.911,-0.331,0.684,0.695,angry
2.65,0,0,0,0,0,0,0,0,57,1389,0,814,3491,3,3004,2477,3.244,16.862,17.423,-2.306,-0.459,2.450,2.847,-2.351,8.186,-0.515,0.670,0.798,angry
2.66,0,0,0,0,0,0,0,0,185,1595,2,1399,3561,3,2862,2311,0.831,19.489,18.668,-2.893,-0.242,2.502,2.325,-3.251,9.744,-0.518,0.707,0.834,angry
2.67,0,0,0,0,1,0,0,0,355,1952,2,1901,3635,5,2746,2055,-4.101,19.417,12.043,-3.201,-0.535,2.158,2.739,-4.417,10.501,-0.487,0.656,0.657,angry
2.68,0,0,0,0,50,0,0,0,940,2187,7,2569,3663,5,2473,1741,-6.642,19.613,-0.180,-2.488,-0.871,1.051,1.851,-3.625,10.448,-0.535,0.373,0.326,angry
2.69,0,0,0,0,116,0,0,0,2054,2611,5,2920,3563,21,1762,1045,-5.902,19.613,-3.381,-1.043,-0.225,0.650,1.044,-3.982,9.996,-0.248,0.309,0.199,angry
2.70,0,0,0,0,116,0,0,0,2680,2925,5,3196,3067,5,118,597,-5.401,19.613,-1.599,0.297,0.172,0.459,1.896,-2.851,9.495,-1.019,0.089,-0.145,angry
2.71,0,0,0,0,96,0,0,0,2899,3027,0,3260,2659,1,0,331,-1.815,19.613,-1.987,1.076,0.087,0.590,1.458,-3.555,9.749,-1.002,0.081,-0.039,angry
2.72,0,0,0,0,72,0,0,0,3061,3097,0,3308,2248,1,0,171,-0.713,18.749,-12.953,3.369,0.880,0.918,1.781,-2.504,9.701,-1.443,0.125,-0.043,angry
2.73,0,0,0,0,122,0,135,1166,3217,3123,0,3336,1767,4,0,124,3.721,5.394,15.064,2.498,2.106,1.038,2.049,-1.690,10.058,-2.212,0.122,-0.084,angry
2.74,0,0,0,0,106,0,1008,3214,3352,3059,76,3321,1395,1,0,93,-13.968,2.732,10.944,5.947,-0.943,-2.555,2.016,-2.631,9.254,-3.259,0.114,-0.080,angry
2.75,0,0,0,0,458,0,2511,3568,3482,2285,0,3126,615,3,0,46,14.923,13.762,6.907,2.624,0.401,-1.673,3.294,-4.444,12.110,-6.087,0.673,0.275,angry
2.76,0,158,0,0,1075,0,3165,3735,3356,442,0,1879,83,0,0,0,8.842,14.619,8.179,1.671,2.092,-1.694,2.677,-4.142,19.613,-8.731,-0.636,2.565,angry
2.77,0,1302,0,0,1668,0,3334,3823,2741,83,0,806,0,0,0,0,3.019,6.541,13.958,0.605,2.581,-1.363,8.624,-0.874,19.613,-8.731,0.374,4.233,angry
2.78,95,1842,0,0,1903,0,3376,3852,1285,0,0,100,0,0,0,13,1.255,4.867,16.360,0.594,1.840,-1.032,4.915,-5.430,19.613,-8.731,0.274,4.562,angry
2.79,165,2176,393,249,1916,0,3411,3865,12,0,0,29,0,0,0,0,3.639,4.688,11.856,0.463,1.229,-0.713,6.495,-12.306,19.613,-5.604,-0.490,4.990,angry
2.80,386,2525,1906,1166,1926,0,3427,3866,0,0,0,0,0,0,0,0,2.579,3.821,10.063,0.550,0.650,-0.552,19.613,-0.867,19.613,1.835,1.034,4.079,angry
2.81,566,2748,2624,1815,1875,0,3365,3811,0,0,0,0,0,0,0,0,3.476,4.317,8.983,0.404,0.197,-0.319,10.716,5.868,9.450,3.632,-0.233,2.185,angry
2.82,573,2864,2813,1967,1829,0,3243,3767,0,0,0,0,0,0,0,0,3.359,3.608,8.645,0.402,0.168,-0.331,12.608,2.792,9.232,3.857,-1.864,0.703,angry
2.83,705,2965,2963,2201,1667,0,3059,3685,5,0,0,0,0,0,5,0,3.752,3.527,8.277,0.384,0.172,-0.286,10.872,0.895,11.171,4.495,-2.366,-0.733,angry
2.84,941,3105,3158,2559,1203,0,2609,3363,0,0,0,0,0,0,0,0,3.105,4.025,8.775,0.399,0.194,-0.212,5.353,-0.850,10.693,5.068,-2.791,-1.772,angry
2.85,1296,3195,3293,2832,926,0,1633,2826,16,0,0,0,0,0,0,0,2.957,4.767,8.935,0.388,0.118,-0.155,-0.998,-2.421,10.444,5.655,-3.243,-1.952,angry
2.86,1698,3216,3410,2966,668,0,750,1961,0,0,0,0,0,0,0,0,3.017,3.934,8.928,0.339,0.062,-0.126,-0.148,-4.336,12.493,5.788,-2.290,-1.601,angry
2.87,2118,3295,3530,3152,638,0,144,656,0,0,0,0,0,0,0,0,2.950,4.152,8.641,0.311,0.029,-0.108,0.591,-5.112,14.981,5.814,-2.179,-1.716,angry
2.88,2381,3312,3583,3264,546,0,92,221,0,0,0,0,0,0,0,0,2.957,4.334,8.708,0.314,-0.018,-0.098,0.864,-6.385,18.684,5.929,-2.395,-2.099,angry
2.89,2559,3365,3648,3345,592,0,0,0,0,0,0,0,0,0,0,0,3.043,4.274,8.701,0.331,-0.063,-0.098,-0.436,-8.131,19.613,6.015,-2.714,-2.322,angry
2.90,2770,3430,3697,3410,844,0,0,0,0,0,0,0,0,0,0,2,3.096,3.994,8.586,0.356,-0.067,-0.127,0.476,-9.582,19.613,5.924,-2.796,-2.396,angry
2.91,2928,3486,3743,3466,752,0,0,0,0,0,0,0,0,0,0,0,3.266,4.089,8.739,0.375,-0.098,-0.200,0.831,-12.993,19.613,5.863,-2.704,-2.531,angry
2.92,3095,3547,3782,3504,624,0,0,0,0,0,0,0,0,0,0,0,2.784,4.408,8.653,0.412,-0.057,-0.191,1.144,-17.667,19.613,5.745,-2.512,-2.606,angry
2.93,3237,3615,3817,3553,511,0,0,0,0,0,0,0,0,0,0,0,2.784,4.444,8.815,0.519,-0.047,-0.140,-0.239,-19.613,19.613,5.332,-2.240,-2.458,angry
2.94,3398,3643,3846,3611,484,0,0,0,0,0,0,0,0,0,0,0,2.921,5.320,8.954,0.525,-0.055,-0.025,-3.893,-19.613,11.444,4.271,-2.366,-2.184,angry
2.95,3521,3674,3877,3642,415,0,0,0,0,0,0,0,0,0,0,0,2.320,4.506,9.675,0.840,-0.036,0.050,-8.909,-19.613,7.360,3.087,-3.121,-1.911,angry
2.96,3632,3696,3895,3664,558,0,0,0,0,0,0,0,0,0,0,0,3.187,4.396,8.693,1.043,0.167,-0.004,-6.946,-19.613,5.277,1.956,-2.874,-2.000,angry
2.97,3703,3669,3910,3697,511,0,0,0,0,0,0,0,0,0,0,0,3.338,4.214,8.349,1.253,0.307,-0.039,-10.106,-19.613,-3.146,0.979,-1.203,-2.052,angry
2.98,3761,3568,3920,3717,231,0,0,0,0,0,0,0,0,0,11,0,3.381,3.591,8.157,1.562,0.278,-0.043,-17.221,-19.613,-5.521,-0.205,-0.230,-1.310,angry
2.99,3817,3407,3920,3728,169,0,0,0,16,0,0,0,0,0,0,0,3.610,4.480,8.344,1.933,0.414,-0.158,-12.347,-19.613,-1.235,-1.059,0.058,0.017,angry
3.00,3857,3263,3905,3720,208,0,0,0,0,0,0,0,0,0,0,0,3.124,4.085,8.612,2.498,0.352,-0.408,-0.101,-19.613,-10.707,-3.133,0.434,-0.622,angry
3.01,3875,3103,3862,3651,85,0,0,0,0,0,0,0,0,0,0,95,4.520,4.010,8.823,3.126,0.296,-0.697,7.884,-1.774,19.613,-1.443,1.996,0.266,angry
3.02,3887,2773,3743,3470,0,0,0,0,0,0,0,0,0,11,0,743,4.695,3.213,8.684,4.125,0.217,-1.297,-0.783,17.387,10.862,-4.549,-1.152,0.132,angry
3.03,3861,2507,3415,3040,0,0,0,0,0,0,0,0,0,0,0,1727,5.265,3.493,8.456,4.832,0.212,-2.087,-1.281,-9.546,12.464,-4.765,0.953,1.649,angry
3.04,3797,2145,2602,2432,0,0,0,0,0,0,0,0,0,0,499,2631,7.805,6.780,15.136,6.038,-0.771,-3.406,1.077,-14.480,19.613,-3.842,1.031,0.948,angry
3.05,3458,987,1942,1950,0,0,0,0,0,0,0,0,0,0,1135,3289,7.001,4.829,19.613,7.203,-0.695,-4.605,3.120,-2.066,12.907,-3.145,1.144,0.853,angry
3.06,2635,413,51,1097,0,0,0,0,0,0,0,0,0,0,1747,3566,9.531,9.926,18.641,7.610,0.378,-5.666,5.945,-5.732,11.784,-2.804,0.850,0.593,angry
3.07,1414,0,0,93,0,0,0,0,0,0,0,0,1,0,2411,3688,10.015,9.646,14.248,7.499,0.684,-6.443,-0.869,-4.626,14.087,-2.327,0.827,0.789,angry
3.08,585,0,0,0,0,0,0,0,0,0,0,0,111,0,2696,3711,9.790,16.915,19.613,5.051,-0.245,-5.874,1.937,-7.855,19.510,-1.705,1.685,1.406,angry
3.09,0,0,0,0,0,0,0,0,0,0,0,0,203,0,2892,3811,19.613,4.415,19.613,0.191,0.039,-4.488,0.946,-6.110,11.617,-1.239,1.440,0.734,angry
3.10,0,0,0,0,0,0,0,0,13,0,0,0,375,0,2999,3835,19.613,2.653,15.287,-1.633,0.113,-1.301,0.979,-3.967,12.565,-0.862,1.286,0.742,angry
3.11,76,0,0,0,0,0,0,0,0,0,0,0,531,0,3055,3867,17.540,-2.746,2.610,-1.640,1.687,-0.228,3.845,-4.322,10.252,-0.416,1.382,0.654,angry
3.12,99,0,0,0,0,0,0,0,0,0,0,52,616,0,3171,3881,9.402,-2.624,9.761,-1.560,0.403,0.986,-0.397,-2.945,12.395,-0.297,0.867,0.517,angry
3.13,50,0,0,0,0,0,0,0,0,0,17,39,734,0,3192,3794,10.281,-1.427,11.179,-1.581,-1.592,2.066,1.583,-2.904,10.515,-0.266,0.681,0.367,angry
3.14,16,0,0,0,0,0,0,0,1,0,0,123,857,0,3193,3881,12.955,2.133,11.475,-2.468,-1.515,2.963,1.324,-2.861,9.969,-0.256,0.418,0.224,angry
3.15,0,0,0,0,0,0,0,0,27,0,0,340,913,0,3187,3853,8.911,3.579,11.380,-3.550,-0.858,3.668,1.458,-2.988,9.665,-0.232,0.312,0.136,angry
3.16,2,0,0,0,0,0,0,0,0,0,0,381,994,0,3144,3819,1.863,2.243,10.640,-4.164,-1.069,3.886,1.695,-3.096,10.015,-0.199,0.300,0.123,angry
3.17,0,0,0,0,0,0,0,0,36,0,0,563,868,0,3035,3758,-1.221,2.679,9.232,-4.415,-1.733,3.696,1.317,-2.775,9.699,-0.113,0.244,0.149,angry
3.18,0,0,0,0,0,0,0,0,0,0,0,678,702,0,2873,3679,0.180,3.613,8.523,-4.575,-1.887,3.250,2.023,-2.337,9.424,-0.147,0.221,0.191,angry
3.19,0,0,0,0,0,0,0,0,0,0,0,873,693,0,2671,3601,2.114,6.148,10.487,-4.836,-1.517,2.900,2.042,-2.523,9.383,-0.171,0.209,0.223,angry
3.20,0,0,0,0,0,0,0,0,0,0,0,1141,729,0,2444,3487,3.045,8.373,12.680,-5.131,-1.334,2.787,1.980,-2.500,9.325,-0.184,0.280,0.218,angry
3.21,0,0,0,0,0,0,0,0,0,0,0,1523,781,0,2351,3391,3.821,9.270,12.213,-5.309,-1.383,2.962,0.860,-2.004,10.036,-0.241,0.214,0.334,angry
3.22,0,0,0,0,0,0,0,0,0,13,0,1659,925,0,2220,3311,5.018,10.106,12.151,-5.237,-1.434,3.287,1.575,-2.557,9.318,-0.341,0.269,0.439,angry
3.23,0,0,0,0,0,0,0,0,0,0,0,1956,1251,0,2079,3253,6.950,11.801,13.831,-5.120,-1.279,3.704,1.389,-2.861,9.558,-0.420,0.284,0.491,angry
3.24,0,0,0,0,0,0,0,0,43,51,0,2233,1323,0,2066,3183,7.393,12.864,15.603,-4.947,-1.055,4.205,1.405,-3.299,9.957,-0.384,0.217,0.466,angry
3.25,0,0,0,0,0,0,0,0,221,341,0,2475,1459,44,1935,3123,7.317,14.207,17.427,-4.796,-0.778,4.539,0.886,-4.269,9.766,-0.599,0.070,0.319,angry
3.26,0,0,0,0,0,0,0,0,533,478,2,2649,1846,4,1865,3021,6.258,16.575,19.613,-4.691,-0.525,4.628,2.112,-4.149,9.974,-0.323,0.072,0.330,angry
3.27,0,0,0,0,52,0,0,0,1019,688,2,2839,2012,9,1863,2863,3.615,18.878,19.613,-4.661,-0.227,4.333,1.618,-3.740,9.723,-0.261,0.150,0.204,angry
3.28,0,0,0,0,75,0,0,0,1379,607,2,2972,2120,4,1752,2614,1.152,19.613,14.861,-4.335,0.090,3.407,1.336,-4.113,10.479,-0.238,0.079,0.081,angry
3.29,0,0,0,0,67,0,0,0,1806,1079,5,3087,2345,4,1646,2182,-7.216,19.613,9.603,-3.754,-0.494,2.323,1.626,-4.178,8.825,-0.313,0.173,0.046,angry
3.30,43,0,0,0,176,0,0,0,2779,1599,28,3288,2547,5,301,1151,-12.361,19.613,-5.385,-2.173,-1.676,0.271,1.817,-2.255,9.919,-1.233,0.178,-0.018,angry
3.31,20,0,0,0,128,0,0,0,3275,1951,0,3497,2140,0,0,396,-6.388,19.613,-10.479,-0.150,0.126,-0.278,0.680,-3.096,9.225,-0.460,0.034,0.030,angry
3.32,44,0,0,0,0,0,0,0,3462,1934,2,3593,1689,0,0,508,0.017,17.001,-2.088,1.993,0.853,-0.600,1.911,-3.493,9.701,-0.565,-0.013,-0.042,angry
3.33,0,0,0,0,0,0,0,0,3595,2025,0,3657,1274,1,0,494,5.413,19.613,-7.005,3.374,0.916,-0.671,0.936,-3.067,9.086,-0.677,-0.172,-0.120,angry
3.34,0,0,0,0,101,0,20,1184,3711,2085,0,3707,920,1,0,233,11.351,3.021,16.791,2.966,1.199,0.037,1.906,-2.698,10.515,-1.021,-0.098,-0.229,angry
3.35,0,0,0,0,123,0,894,3039,3797,1931,0,3687,255,12,0,183,-6.048,6.280,9.785,5.738,-1.017,-1.679,3.156,-1.568,10.159,-3.005,0.261,-0.301,angry
3.36,0,0,0,0,464,0,2545,3440,3835,999,0,3579,285,0,0,35,7.865,10.757,10.226,3.121,-0.192,-1.889,7.058,-5.650,11.842,-6.091,0.945,0.013,angry
3.37,0,1044,0,0,1648,0,3226,3622,3791,228,0,3357,92,0,0,25,10.518,10.223,3.603,1.066,3.363,-1.657,7.061,-4.688,17.447,-7.373,1.702,1.395,angry
3.38,130,2432,483,0,2047,0,3403,3728,3060,1,2,2121,0,0,0,11,3.510,3.464,13.058,1.043,2.324,-1.512,9.783,-9.014,19.613,-8.731,1.145,5.744,angry
3.39,477,2895,2445,1088,2346,0,3485,3733,0,0,0,87,0,11,0,0,4.501,6.452,9.874,0.641,0.536,-0.632,5.567,-5.990,19.613,-2.878,1.472,6.380,angry
3.40,816,3183,2970,1941,2597,219,3536,3746,0,9,0,0,0,0,0,0,3.644,4.903,9.426,0.523,0.221,-0.302,7.858,-5.990,19.613,-0.687,0.912,5.533,angry
3.41,1080,3355,3169,2320,2703,0,3504,3668,0,0,0,29,0,3,0,0,3.247,4.741,9.139,0.296,-0.026,-0.080,18.373,3.139,8.552,2.473,-0.407,2.391,angry
3.42,1307,3444,3295,2463,2795,0,3365,3399,0,0,0,0,0,0,0,0,3.584,4.044,8.734,0.280,-0.063,-0.060,13.906,2.449,6.390,2.849,-1.751,-0.945,angry
3.43,1405,3522,3359,2529,2769,0,3087,3002,0,0,0,0,0,0,17,0,3.479,4.211,8.648,0.285,0.005,-0.085,5.993,1.997,9.895,3.233,-2.278,-1.912,angry
3.44,1481,3614,3440,2639,2581,0,2704,2470,0,0,0,0,0,1,0,0,3.448,4.025,8.583,0.219,-0.003,-0.118,-2.588,0.369,11.954,4.383,-2.935,-1.802,angry
3.45,1584,3663,3497,2737,2132,0,2090,1473,0,6,0,0,0,0,0,0,3.194,4.003,8.495,0.203,-0.005,-0.125,-3.685,-0.998,10.566,4.923,-2.447,-0.754,angry
3.46,1683,3692,3554,2816,1616,0,1190,401,0,0,0,0,0,0,0,0,3.247,3.845,8.413,0.089,0.038,-0.063,-1.358,-2.128,12.268,5.064,-2.470,-0.612,angry
3.47,1795,3719,3610,2906,1653,0,746,0,5,0,0,0,0,0,0,0,3.333,4.274,8.384,0.094,0.032,-0.145,1.166,-4.496,14.772,5.305,-2.756,-1.302,angry
3.48,1939,3751,3645,2965,1704,0,596,0,0,0,0,0,0,0,0,0,3.417,4.228,8.325,0.066,0.021,-0.180,-0.725,-5.037,17.676,5.455,-3.005,-1.686,angry
3.49,2165,3759,3685,3030,1764,0,370,0,0,0,0,0,0,0,0,0,3.383,4.326,8.588,0.046,0.018,-0.199,-4.113,-5.428,19.613,5.551,-3.373,-1.789,angry
3.50,2427,3779,3723,3115,1770,0,270,0,0,0,0,0,0,0,0,0,3.575,3.934,8.262,0.064,0.008,-0.226,-6.579,-5.722,19.613,5.501,-3.591,-1.484,angry
3.51,2693,3806,3758,3205,1648,0,176,0,0,0,0,0,0,0,0,0,3.436,4.413,8.705,0.113,-0.072,-0.243,-6.658,-7.245,19.613,5.564,-3.271,-0.953,angry
3.52,2884,3837,3786,3277,1600,0,143,0,0,0,0,0,0,0,0,0,3.273,4.175,8.574,0.210,-0.059,-0.245,-7.286,-10.764,19.613,5.593,-2.849,-0.380,angry
3.53,3136,3870,3840,3382,1526,0,0,0,0,0,0,0,0,0,0,0,3.187,4.403,8.452,0.459,-0.060,-0.182,-5.497,-19.613,13.963,4.387,-2.469,0.014,angry
3.54,3280,3898,3869,3430,1513,0,0,0,0,0,0,0,2,0,0,0,3.213,4.214,8.526,0.567,-0.062,-0.138,-11.636,-19.613,6.498,2.951,-2.922,-0.272,angry
3.55,3392,3952,3895,3472,1200,0,0,0,0,0,0,0,0,0,0,0,3.361,4.353,8.382,0.740,-0.012,-0.101,-10.685,-19.613,-2.389,1.285,-2.752,-0.724,angry
3.56,3517,3956,3920,3509,1057,0,0,0,0,0,0,0,0,0,0,6,3.508,4.274,8.406,0.992,0.017,-0.084,-10.077,-19.613,-1.298,0.324,-1.448,-1.401,angry
3.57,3617,3974,3942,3523,681,0,0,0,0,0,0,0,0,0,0,0,3.373,4.135,8.655,1.256,0.092,-0.086,-16.168,-19.613,0.249,-0.497,-0.455,-1.634,angry
3.58,3676,3981,3947,3536,691,0,0,0,83,0,0,0,0,0,0,0,2.976,4.068,9.412,1.588,0.144,-0.052,-15.933,-19.613,-0.883,-1.420,-0.272,-0.746,angry
3.59,3728,3962,3935,3547,362,0,0,0,133,0,0,0,0,0,0,19,4.065,4.199,9.345,1.984,0.262,-0.188,0.934,-7.678,-0.160,-1.940,2.675,-0.299,angry
3.60,3762,3925,3917,3504,144,0,0,0,219,0,0,0,0,0,0,425,4.044,2.535,8.552,2.556,0.282,-0.416,-3.251,19.613,19.613,-3.187,0.960,0.585,angry
3.61,3775,3763,3856,3360,162,0,0,0,357,0,0,0,0,0,0,1151,3.788,2.624,9.084,3.374,0.135,-0.813,3.168,7.573,-2.452,-6.117,0.153,1.216,angry
3.62,3766,3238,3722,3002,294,0,0,0,233,0,0,0,0,0,43,2040,5.626,3.807,9.108,4.261,0.278,-1.467,-2.880,-13.233,17.435,-4.999,1.816,1.647,angry
3.63,3660,2429,2915,1925,0,0,0,0,247,0,0,0,29,0,1059,2923,5.902,2.064,16.829,6.188,-0.476,-2.467,1.887,-10.896,19.613,-4.348,0.910,0.513,angry
3.64,2797,1360,858,747,0,0,0,0,328,0,0,0,175,0,2488,3691,5.710,8.691,11.933,7.022,-0.242,-3.330,-11.873,-13.293,19.039,-2.484,2.391,1.481,angry
3.65,959,414,0,0,0,0,0,0,557,691,0,0,1576,0,2979,3815,6.984,12.596,11.334,6.366,0.697,-4.509,1.171,-5.974,13.970,-1.233,2.395,0.715,angry
3.66,552,0,0,0,0,0,0,0,635,1170,0,0,1765,13,3047,3837,6.189,7.657,16.192,5.148,0.588,-4.704,-0.402,-4.650,13.522,-1.212,1.314,0.403,angry
3.67,205,19,0,0,0,0,0,0,591,1289,2,455,1911,9,3091,3859,10.092,6.402,19.613,2.835,0.595,-4.721,0.965,-3.421,11.423,-0.929,0.851,0.204,angry
3.68,0,0,0,0,0,0,0,0,739,1604,0,1163,1916,2,3115,3863,19.410,14.693,19.613,-1.147,0.709,-2.388,1.314,-3.206,10.659,-0.899,0.147,-0.186,angry
3.69,32,0,0,0,0,0,0,0,815,1773,94,1830,2429,4,3207,3817,13.297,3.972,8.969,-3.447,0.439,0.187,1.094,-3.450,10.223,-0.449,0.023,-0.077,angry
3.70,190,0,0,0,0,0,0,0,991,1865,2,2228,2712,4,3258,3684,6.598,1.087,3.642,-3.295,-0.149,1.680,1.889,-3.677,9.618,-0.266,-0.050,-0.026,angry
3.71,208,0,0,0,0,0,0,0,1135,2093,33,2297,2843,39,3223,3571,5.619,2.191,6.179,-3.535,-0.687,2.307,1.707,-3.436,9.436,-0.224,-0.034,-0.047,angry
3.72,182,0,0,0,0,0,0,0,1141,2193,7,2404,2985,3,3067,3221,4.791,2.737,5.969,-3.998,-0.601,2.595,1.800,-3.218,9.471,-0.278,0.003,-0.048,angry
3.73,147,0,0,0,0,0,0,0,1452,2285,0,2540,3047,2,2777,2731,2.107,3.496,7.508,-4.260,-0.950,2.527,1.765,-3.577,9.428,-0.215,0.043,-0.009,angry
3.74,49,0,0,0,0,0,0,0,1544,2303,79,2597,3094,3,2669,2469,5.492,5.883,6.318,-4.297,-1.160,2.454,1.812,-3.663,9.218,-0.114,0.041,0.007,angry
3.75,56,0,0,0,0,0,0,0,1613,2358,58,2629,3125,3,2565,2239,9.622,9.081,6.246,-4.059,-1.082,2.899,1.949,-3.780,9.493,-0.055,0.026,0.024,angry
3.76,0,0,0,0,0,0,0,0,1817,2452,0,2661,3173,0,2463,2030,12.668,12.859,4.930,-3.705,-0.673,3.871,1.875,-3.285,9.292,-0.102,0.013,0.038,angry
3.77,0,0,0,0,0,0,0,0,2010,2392,10,2701,3213,3,2386,1849,14.597,16.206,1.970,-3.016,-0.047,5.222,1.844,-3.340,9.072,-0.170,0.024,0.025,angry
3.78,0,0,0,0,0,0,0,0,2349,2615,2,2813,3243,4,2190,1583,16.714,19.613,-2.761,-1.018,1.626,7.938,1.860,-3.857,9.232,-0.212,0.081,0.005,angry
3.79,0,0,0,0,0,0,0,0,2538,2679,2,2901,3273,5,1942,1513,13.506,19.613,-4.175,0.183,2.842,8.731,1.719,-3.534,9.244,-0.200,0.031,0.025,angry
3.80,0,0,0,0,1,0,0,0,2661,2723,2,2847,3316,4,1737,1548,7.999,19.613,-3.783,1.309,3.627,8.731,1.671,-3.582,9.242,-0.239,0.015,0.018,angry
3.81,0,0,0,0,82,0,0,0,2793,2749,2,2889,3263,4,1625,1397,3.247,19.613,-2.145,2.060,3.575,8.731,1.865,-4.159,9.529,-0.149,0.041,0.052,angry
3.82,0,0,0,0,166,0,0,0,2921,2777,2,2936,3242,2,1167,1429,4.180,19.613,-5.401,2.584,3.692,8.164,1.994,-3.565,9.529,-0.153,0.037,0.025,angry
3.83,0,0,0,0,117,0,0,0,3049,2761,0,2911,3191,0,923,1370,2.253,19.613,-8.780,3.011,3.865,7.149,1.899,-3.333,9.151,-0.115,0.066,0.036,angry
3.84,0,0,0,0,163,0,0,0,3157,2803,2,2909,3065,59,458,1341,-3.852,19.613,-7.779,3.550,2.741,5.901,1.566,-3.965,9.239,-0.084,-0.033,0.061,angry
3.85,0,700,0,0,149,0,0,0,3317,2678,2,2874,2777,7,133,1135,-19.613,2.009,19.613,-0.851,8.249,0.424,2.193,-4.233,9.527,0.282,0.099,0.149,angry
3.86,272,2193,64,0,853,0,45,0,3350,2502,2,2894,2526,5,4,1190,-5.409,9.737,-1.494,0.599,0.739,0.327,2.083,-4.298,9.455,0.432,0.072,0.257,angry
3.87,720,2992,2326,781,1791,0,1492,34,3251,1935,0,2887,1317,1,0,1129,-1.755,-0.453,19.439,-0.021,0.018,-0.056,1.575,-3.383,9.361,0.352,0.108,0.489,angry
3.88,1097,3196,2875,1431,2300,0,2608,2128,2997,1511,0,2911,455,0,0,1107,4.712,7.429,9.673,0.267,-0.290,-0.304,0.709,-2.064,10.106,0.311,-0.715,2.414,angry
3.89,1694,3388,3138,1851,2147,0,2736,2480,2835,1075,0,2943,203,26,0,999,4.099,5.509,7.786,0.063,-0.082,-0.166,1.535,-2.988,9.661,0.394,-1.057,3.605,angry
3.90,2155,3501,3264,2159,2352,0,2862,2750,2259,535,0,2974,3,0,2,739,3.622,4.633,8.368,-0.035,0.077,-0.054,4.252,-4.231,8.332,1.166,-1.260,5.763,angry
3.91,2439,3555,3375,2445,2438,0,2978,2921,1235,0,0,2615,0,0,0,745,3.359,4.283,8.622,0.014,0.102,0.021,2.938,-6.309,8.155,1.072,-1.770,6.445,angry
3.92,2595,3663,3441,2625,2539,0,3008,2965,788,0,0,1779,0,0,0,915,3.536,4.214,8.499,0.059,0.064,0.028,1.935,-6.053,9.220,1.156,-1.733,6.501,angry
3.93,2657,3696,3498,2731,2545,0,2971,2932,438,0,0,507,0,0,0,777,3.603,4.142,8.516,0.062,0.047,0.000,1.609,-6.184,10.278,1.145,-1.344,6.227,angry
3.94,2686,3712,3520,2812,2521,0,2875,2835,20,0,0,0,0,0,0,573,3.479,4.207,8.327,0.063,0.082,0.002,-0.290,-5.765,9.222,1.040,-0.923,5.183,angry
3.95,2750,3776,3565,2832,2499,0,2752,2777,0,0,0,0,0,0,0,337,3.436,4.094,8.523,0.100,0.049,-0.015,-2.602,-8.049,12.704,0.941,-2.444,4.178,angry
3.96,2799,3792,3583,2873,2505,0,2581,2624,0,0,0,0,0,0,0,189,3.326,4.123,8.497,0.107,0.054,-0.007,-9.072,-4.221,8.724,0.830,-2.252,4.535,angry
3.97,2825,3792,3603,2911,2512,0,2512,2407,0,0,0,0,0,4,0,243,3.512,4.164,8.413,0.118,0.080,-0.010,-9.426,-4.142,9.955,0.951,-1.759,5.534,angry
3.98,2909,3827,3623,2942,2513,0,2455,2178,0,0,0,0,0,0,0,175,3.187,4.013,8.452,0.109,0.111,0.013,-7.441,-4.513,9.728,0.998,-1.533,5.919,angry
3.99,2967,3839,3633,3005,2465,0,2415,1974,0,0,0,0,0,0,0,205,3.251,4.073,8.341,0.097,0.136,0.006,-2.868,-4.075,9.687,0.937,-1.204,5.903,angry
4.00,3018,3856,3658,3054,2403,0,2355,1661,0,0,0,0,0,0,0,14,3.247,4.274,8.593,0.121,0.136,0.074,0.642,-2.552,9.443,0.884,-1.019,5.160,angry
4.01,3049,3839,3673,3087,2381,0,2271,1385,0,0,0,0,0,0,0,1,3.141,3.994,8.547,0.148,0.164,0.106,1.688,-2.325,10.226,0.972,-0.891,4.670,angry
4.02,3068,3851,3673,3118,2353,0,2213,1171,0,0,0,0,0,0,0,0,3.156,4.101,8.600,0.152,0.197,0.147,1.949,-1.858,9.941,1.056,-0.824,4.250,angry
4.03,3120,3842,3686,3146,2340,0,2118,1071,28,0,0,0,0,0,0,0,3.457,4.336,8.430,0.153,0.221,0.173,1.834,-1.856,9.708,1.099,-0.852,3.974,angry
4.04,3154,3882,3692,3168,2360,0,2006,969,0,0,0,0,0,7,0,0,3.170,4.274,8.566,0.158,0.226,0.181,1.671,-2.035,9.471,1.118,-0.978,3.819,angry
4.05,3177,3857,3701,3192,2388,0,1929,880,0,0,0,0,0,0,0,0,3.048,4.144,8.641,0.179,0.207,0.201,1.298,-2.193,9.041,1.134,-1.094,3.769,angry
4.06,3202,3847,3707,3213,2368,0,1770,765,0,0,0,0,0,0,0,0,2.969,4.142,8.691,0.200,0.215,0.232,0.625,-2.593,8.638,1.110,-1.287,3.816,angry
4.07,3229,3872,3712,3227,2376,0,1667,609,3,0,0,0,0,0,0,0,3.194,4.044,8.478,0.222,0.262,0.293,0.050,-3.326,8.842,1.089,-1.460,3.946,angry
4.08,3259,3849,3715,3248,2343,0,1594,434,0,0,0,0,0,0,0,0,3.175,4.159,8.471,0.230,0.294,0.337,0.043,-4.290,8.938,1.151,-1.593,4.137,angry
4.09,3315,3856,3711,3267,2282,0,1499,226,0,0,0,0,4,0,0,0,3.170,4.199,8.605,0.262,0.322,0.404,0.141,-4.870,8.356,1.200,-1.652,4.308,angry
4.10,3315,3855,3707,3280,2141,0,1336,113,0,0,0,0,0,0,0,0,2.942,4.128,8.696,0.297,0.366,0.484,-0.220,-5.610,7.219,1.091,-1.737,4.406,angry
4.11,3331,3852,3710,3302,2026,0,1201,0,0,0,0,0,0,0,0,10,2.945,3.950,8.543,0.337,0.430,0.573,5.665,-13.822,-0.757,-0.312,-1.770,3.903,angry
4.12,3353,3850,3683,3309,1841,0,942,0,0,0,0,0,0,0,0,280,2.952,4.068,8.827,0.383,0.513,0.679,5.751,-19.204,3.845,-0.644,-1.268,3.376,angry
4.13,3399,3849,3696,3327,1648,0,645,0,0,0,0,0,0,0,0,603,2.899,3.948,8.799,0.446,0.569,0.770,13.776,-14.928,8.497,-0.237,-0.556,2.248,angry
4.14,3372,3818,3712,3324,1161,0,444,0,0,0,0,0,0,0,0,965,2.983,3.879,8.830,0.595,0.660,0.849,14.102,-3.783,8.475,0.230,-0.431,0.729,angry
4.15,3351,3789,3664,3311,891,0,272,0,0,0,0,0,0,3,40,1494,3.424,3.788,8.540,0.762,0.749,0.866,14.641,3.543,2.883,-0.521,-0.342,-0.258,angry
4.16,3257,3734,3621,3251,719,0,183,0,0,0,0,0,0,0,837,2063,4.314,4.645,8.128,0.928,0.811,0.685,5.435,-1.822,8.301,-0.967,-0.017,-0.483,angry
4.17,2977,3361,3518,3175,0,0,0,0,0,0,0,0,0,0,1161,2511,6.414,4.257,7.860,1.155,1.152,0.470,-0.584,-5.646,14.992,-0.810,0.151,-0.269,angry
4.18,2714,2768,3425,3124,91,0,0,0,0,0,0,0,0,0,1497,2844,8.633,5.698,8.440,1.470,1.484,0.214,-3.733,-3.630,9.637,-0.042,0.180,-0.271,angry
4.19,2605,1999,3123,3070,0,0,0,0,0,13,5,0,63,7,1768,3053,12.256,8.217,8.820,0.631,2.098,-0.456,0.194,-2.981,10.274,-0.241,-0.066,-0.340,angry
4.20,1984,367,1008,2062,0,0,0,0,0,0,0,343,116,0,2407,3369,12.713,5.655,5.787,-1.045,3.985,-2.190,0.043,-2.777,10.475,0.156,-0.204,0.120,angry
4.21,396,0,0,387,0,0,0,0,0,2,0,604,271,0,2796,3591,19.613,19.613,0.962,-0.037,7.072,-2.034,1.039,-2.222,10.080,0.021,0.103,0.185,angry
4.22,166,0,0,0,0,0,0,0,1,0,5,905,380,54,2943,3643,19.613,19.613,-14.875,2.179,5.487,4.837,1.281,-2.112,9.538,-0.071,-0.014,0.149,angry
4.23,167,0,0,0,0,0,0,0,0,4,2,840,549,7,3079,3689,19.613,19.613,-0.373,3.022,5.371,7.893,1.482,-2.167,9.732,-0.138,-0.008,0.228,angry
4.24,172,0,0,0,0,0,0,0,0,0,0,845,879,21,3183,3631,5.777,12.304,6.467,2.850,4.924,8.288,1.302,-2.121,9.153,-0.198,-0.081,0.194,angry
4.25,0,0,0,0,0,0,0,0,0,17,0,920,1267,0,3241,3723,0.570,4.226,8.523,2.597,3.331,7.472,1.832,-2.339,9.615,-0.247,-0.159,0.160,angry
4.26,0,0,0,0,0,0,0,0,0,0,0,883,1551,0,3277,3698,2.069,1.326,12.821,2.117,1.758,6.436,1.573,-2.727,9.857,-0.228,-0.142,0.148,angry
4.27,0,0,0,0,0,0,0,0,0,7,0,999,1847,0,3272,3659,5.329,-0.151,11.768,1.355,1.252,5.496,1.693,-2.777,9.752,-0.214,-0.067,0.165,angry
4.28,0,0,0,0,0,0,0,0,0,0,17,723,2059,0,3289,3579,7.257,0.182,10.230,0.578,1.379,4.971,1.671,-2.693,9.771,-0.199,-0.008,0.189,angry
4.29,0,0,0,0,0,0,0,0,0,0,0,744,2346,0,3238,3455,7.513,0.553,9.177,0.039,1.397,4.784,1.501,-2.753,9.811,-0.208,-0.023,0.208,angry
4.30,0,0,0,0,0,0,0,0,0,91,5,662,2359,0,3109,3215,7.889,1.937,8.241,-0.395,1.284,4.722,1.085,-2.727,9.670,-0.202,-0.046,0.223,angry
4.31,0,0,0,0,0,0,0,0,0,295,94,629,2519,0,2905,2909,8.248,2.734,6.981,-0.792,1.233,4.652,1.587,-2.629,9.598,-0.240,-0.091,0.223,angry
4.32,0,0,0,0,0,0,0,0,5,533,0,620,2603,1,2791,2637,8.698,3.852,6.902,-1.110,1.044,4.589,1.786,-2.871,9.783,-0.221,-0.093,0.252,angry
4.33,0,0,0,0,0,0,0,0,21,491,2,1005,2697,1,2742,2603,9.852,4.870,6.440,-1.341,0.747,4.641,2.303,-2.713,9.390,-0.220,-0.055,0.275,angry
4.34,0,0,0,0,0,0,0,0,45,635,2,1080,2775,3,2725,2533,10.872,5.880,5.770,-1.445,0.508,4.779,2.078,-2.715,9.340,-0.259,-0.037,0.277,angry
4.35,0,0,0,0,0,0,0,0,124,649,2,1128,2827,13,2707,2471,11.255,6.871,5.952,-1.484,0.326,4.923,1.736,-2.787,9.433,-0.252,-0.016,0.303,angry
4.36,23,0,0,0,0,0,0,0,213,685,12,1370,2839,5,2623,2251,11.308,7.882,7.230,-1.468,0.074,5.049,1.848,-2.837,9.625,-0.275,-0.034,0.332,angry
4.37,16,0,0,0,0,0,0,0,344,859,5,1637,2807,3,2531,2218,10.702,8.715,7.937,-1.494,-0.172,5.137,1.640,-2.931,9.400,-0.324,-0.037,0.333,angry
4.38,7,0,0,0,0,0,0,0,683,1159,5,1877,2808,5,2473,2201,9.677,8.435,7.685,-1.421,-0.294,5.046,1.504,-2.725,9.208,-0.114,0.002,0.231,angry
4.39,44,0,0,0,0,0,0,0,955,1357,5,2203,2783,5,2335,2139,8.473,8.329,7.791,-1.226,-0.321,4.741,1.362,-3.127,9.210,-0.087,0.013,0.303,angry
4.40,62,0,0,0,0,0,0,0,1189,1507,0,2441,2890,4,2204,2055,9.057,10.288,10.034,-0.983,-0.290,4.381,1.425,-3.242,9.639,-0.146,0.077,0.295,angry
4.41,0,0,0,0,0,0,0,0,1677,1647,5,2549,3016,5,2008,1787,8.823,17.815,15.696,-1.064,-0.398,4.090,1.982,-2.200,10.867,-0.371,-0.063,0.353,angry
4.42,0,0,0,0,0,0,0,0,2345,2003,2,2792,3205,6,1592,1509,0.290,19.613,16.932,-2.037,-2.942,4.211,1.554,-3.282,9.392,-0.260,0.099,0.279,angry
4.43,0,0,0,0,122,0,0,0,2557,2151,5,2965,3240,1,1363,1095,-2.897,19.613,-0.261,-2.045,-1.760,3.708,1.666,-3.644,9.632,-0.284,0.134,0.290,angry
4.44,0,0,0,0,163,0,0,0,2922,2446,7,3167,2909,11,251,510,-12.893,19.613,-5.253,-0.544,0.201,1.358,1.640,-3.651,10.077,-0.451,0.067,0.316,angry
4.45,0,0,0,0,69,0,0,0,3107,2493,0,3299,2727,4,3,507,-7.446,19.613,-1.937,0.215,-0.208,-0.501,2.471,-1.585,9.792,-0.652,0.071,0.075,angry
4.46,0,0,0,0,53,0,0,0,3263,2583,0,3388,2507,0,1,469,-2.227,19.613,-1.894,0.864,-0.137,-0.774,1.530,-3.349,10.027,-0.633,-0.105,0.128,angry
4.47,0,0,0,0,0,0,0,0,3421,2621,0,3452,2324,2,0,234,9.926,18.277,-13.582,3.481,2.055,0.197,1.477,-3.450,9.108,-0.626,-0.112,0.038,angry
4.48,0,0,0,0,184,0,45,147,3543,2709,12,3484,2089,1,0,171,3.273,14.064,19.613,2.290,3.277,0.670,1.211,-2.768,9.634,-0.972,-0.174,-0.019,angry
4.49,0,0,0,0,208,0,987,2817,3705,2725,0,3468,1479,1,0,53,-19.613,-13.305,17.442,5.040,-0.841,-0.680,0.546,-3.206,9.098,-2.219,-0.091,0.127,angry
4.50,0,0,0,0,386,0,2213,3392,3753,1873,0,3319,1043,0,0,8,7.640,19.613,17.518,3.021,-0.835,-1.862,2.713,-2.267,10.429,-4.462,0.184,0.279,angry
4.51,0,73,0,0,1219,0,3166,3641,3740,1587,0,3044,687,0,0,9,19.613,16.774,8.404,1.256,2.000,-1.123,2.581,-1.683,12.737,-5.199,-0.067,0.727,angry
4.52,0,1200,0,0,1884,0,3395,3735,3603,551,0,1361,158,0,0,1,2.217,5.820,15.239,0.431,2.392,-1.160,1.997,-3.831,17.913,-6.669,-0.978,2.401,angry
4.53,0,1958,135,0,2101,0,3430,3799,2293,0,0,1,0,0,0,0,1.549,4.817,13.489,0.404,1.862,-0.760,5.035,-4.314,19.613,-8.731,-1.294,4.163,angry
4.54,0,2217,807,240,2224,0,3461,3816,395,0,0,0,17,0,0,0,3.194,4.104,9.634,0.337,1.034,-0.420,1.413,-16.925,18.081,-8.731,-2.056,3.774,angry
4.55,64,2480,1725,645,2378,0,3531,3834,0,0,0,0,1,0,0,0,2.782,2.926,9.735,0.280,0.530,-0.240,11.715,-10.427,19.613,-4.694,-2.976,4.011,angry
4.56,145,2695,2195,882,2452,0,3579,3795,0,0,0,0,0,0,0,0,3.512,3.677,9.187,0.304,0.179,-0.145,9.977,12.062,19.613,3.133,1.223,3.012,angry
4.57,224,2806,2385,998,2559,0,3583,3743,0,0,0,0,86,0,0,0,4.168,4.104,8.988,0.207,0.077,-0.050,5.428,5.368,6.804,3.681,0.544,2.175,angry
4.58,266,2896,2533,1055,2711,0,3566,3673,0,0,0,0,0,0,0,0,4.104,3.474,8.566,0.171,0.011,-0.044,2.425,6.323,6.507,2.909,-1.147,1.622,angry
4.59,256,2947,2650,1091,2779,0,3536,3583,0,0,0,0,0,0,0,0,3.711,3.321,8.643,0.161,0.026,-0.060,7.321,1.484,9.852,3.403,-1.686,0.730,angry
4.60,256,2991,2734,1183,2816,0,3455,3501,0,0,0,0,0,0,0,0,3.448,3.395,8.787,0.175,0.019,-0.070,6.797,-0.728,12.222,4.328,-1.719,-0.232,angry
4.61,235,3094,2883,1373,2814,0,3262,3278,0,0,0,0,0,11,0,0,3.575,3.278,8.645,0.234,-0.039,-0.081,-0.441,-1.080,8.416,5.351,-2.325,-1.339,angry
4.62,123,3216,3033,1557,2839,0,3085,3036,0,0,0,0,0,0,0,0,3.929,4.305,8.988,0.315,-0.080,-0.097,-0.766,-2.547,7.927,5.521,-2.341,-1.451,angry
4.63,29,3361,3199,1767,2864,0,2864,2766,0,0,0,0,0,0,0,7,3.311,3.428,8.777,0.281,-0.029,-0.287,-1.226,-3.950,10.946,5.728,-1.851,-1.475,angry
4.64,0,3456,3360,2062,2880,0,2553,2455,0,39,0,0,0,10,0,0,3.938,3.297,8.066,0.331,0.111,-0.411,-1.422,-5.595,15.589,6.062,-1.779,-1.309,angry
4.65,310,3623,3515,2457,2931,0,2329,1895,0,0,0,0,0,0,0,0,3.800,4.164,8.260,0.353,0.124,-0.453,-0.630,-6.826,17.674,6.195,-1.768,-1.245,angry
4.66,910,3737,3652,2803,2965,0,2000,589,0,0,0,0,0,0,0,0,3.227,3.565,8.595,0.345,-0.034,-0.325,1.786,-9.601,19.613,6.136,-1.803,-1.445,angry
4.67,1713,3827,3759,3011,2895,0,1535,0,0,0,0,0,0,0,39,0,3.357,4.305,8.818,0.380,-0.096,-0.209,-0.326,-17.171,19.613,5.737,-1.668,-1.647,angry
4.68,2309,3930,3824,3123,2478,0,719,0,0,0,0,0,0,0,0,0,3.443,4.266,8.313,0.474,-0.111,-0.266,-2.909,-19.613,14.688,5.093,-2.165,-1.696,angry
4.69,2713,4006,3887,3212,2113,0,584,0,0,3,0,0,0,0,0,0,3.570,3.701,8.066,0.885,0.034,-0.165,-8.875,-19.613,4.228,3.372,-4.007,-0.953,angry
4.70,2890,4037,3914,3259,1894,0,598,0,0,0,0,0,0,0,0,0,3.488,4.027,8.408,1.049,0.110,-0.176,-8.071,-19.613,-10.843,1.981,-3.137,-1.350,angry
4.71,3156,4069,3945,3313,1510,0,541,0,0,0,0,0,0,0,0,0,3.608,3.898,8.061,1.448,0.175,-0.250,-14.966,-19.613,-5.267,-0.858,-0.181,-0.817,angry
4.72,3439,4081,3962,3336,887,0,455,0,0,0,0,0,0,0,0,0,4.815,1.774,8.162,2.135,0.323,-0.365,0.371,-19.613,-11.222,-3.173,1.005,-0.727,angry
4.73,3550,4055,3953,3335,535,0,295,0,0,0,0,0,0,0,0,89,4.125,2.878,8.734,2.722,0.455,-0.456,6.088,4.156,19.613,-0.636,2.433,-0.046,angry
4.74,3644,3970,3937,3295,393,0,123,0,0,0,0,0,0,0,0,869,5.564,3.551,9.301,3.602,0.762,-0.722,-3.689,16.534,10.051,-4.967,-1.733,-0.932,angry
4.75,3679,3007,3711,2960,211,0,0,0,0,0,0,0,27,0,20,2444,5.277,2.591,10.156,5.251,0.914,-1.570,-4.424,-15.967,19.613,-3.791,0.909,0.537,angry
4.76,3520,2095,2547,2084,0,0,0,0,0,0,0,0,3,0,1612,3427,8.353,11.875,19.613,7.341,-1.308,-3.361,11.507,-5.997,10.046,-2.783,0.255,0.755,angry
4.77,2163,700,39,278,0,0,0,0,0,3,0,0,10,0,2163,3575,7.111,4.860,19.613,7.923,-1.218,-5.814,3.845,-5.279,11.751,-2.309,0.639,0.566,angry
4.78,931,0,0,0,0,0,0,0,0,0,0,0,88,0,2567,3657,7.120,15.471,19.613,5.653,-0.922,-5.825,-0.970,-6.862,19.613,-1.662,1.442,1.196,angry
4.79,51,0,0,0,0,0,0,0,0,0,0,0,163,0,2837,3705,19.331,0.824,19.613,0.288,-0.099,-5.621,1.669,-3.366,10.379,-0.758,1.633,0.725,angry
4.80,49,0,0,0,0,0,0,0,0,0,0,0,482,0,2991,3740,19.613,2.045,14.834,-1.247,0.225,-3.410,0.831,-5.126,13.182,-0.406,1.425,0.709,angry
4.81,123,0,0,0,0,0,0,0,0,0,0,0,617,0,3142,3765,19.249,-2.713,10.360,-1.531,1.024,-2.259,3.421,-3.017,10.003,-0.243,1.251,0.559,angry
4.82,153,0,0,0,0,0,0,0,0,45,0,41,797,0,3211,3833,15.706,-6.235,9.383,-1.674,0.280,-0.796,1.202,-2.387,10.281,-0.274,0.859,0.479,angry
4.83,178,0,0,0,0,0,0,0,0,0,0,169,1215,0,3230,3784,15.419,-2.777,8.794,-1.626,-0.860,0.702,1.391,-2.784,10.178,-0.342,0.559,0.367,angry
4.84,97,0,0,0,0,0,0,0,0,0,0,558,1364,0,3259,3763,13.740,-1.999,9.474,-1.899,-1.250,1.964,1.274,-2.911,10.120,-0.292,0.460,0.305,angry
4.85,6,0,0,0,0,0,0,0,0,0,0,591,1531,0,3208,3759,10.063,-0.232,10.455,-2.479,-1.294,2.981,1.075,-2.722,9.979,-0.323,0.372,0.284,angry
4.86,0,0,0,0,0,0,0,0,0,0,0,819,1581,0,3151,3672,4.944,-0.101,10.235,-3.058,-1.448,3.537,1.937,-2.799,9.371,-0.317,0.322,0.359,angry
4.87,0,0,0,0,0,0,0,0,0,0,0,1123,1597,0,3029,3596,1.125,0.302,9.969,-3.439,-1.630,3.598,2.528,-2.538,8.966,-0.324,0.373,0.391,angry
4.88,0,0,0,0,0,0,0,0,0,0,0,1323,1553,7,2897,3495,0.857,1.870,10.702,-3.848,-1.510,3.363,1.257,-1.709,10.537,-0.444,0.306,0.467,angry
4.89,0,0,0,0,0,0,0,0,5,0,0,1911,1447,0,2650,3445,1.508,4.015,12.009,-4.370,-1.120,3.132,1.927,-3.843,9.725,-0.470,0.413,0.450,angry
4.90,0,0,0,0,0,0,0,0,0,33,0,2221,1365,0,2351,3309,1.279,6.165,13.578,-4.901,-0.880,2.974,1.827,-3.663,9.922,-0.592,0.333,0.466,angry
4.91,0,0,0,0,0,0,0,0,74,214,0,2319,1245,1,1815,3190,2.598,6.512,12.641,-4.970,-1.025,2.971,1.336,-2.772,9.218,-0.471,0.232,0.456,angry
4.92,0,0,0,0,0,0,0,0,147,509,0,2591,1149,2,1711,3055,5.078,9.014,14.320,-5.176,-0.952,3.221,1.233,-3.613,9.898,-0.430,0.135,0.342,angry
4.93,0,0,0,0,0,0,0,0,372,565,2,2681,1437,4,1769,2907,6.919,10.951,15.763,-5.294,-0.721,3.574,1.324,-3.565,9.632,-0.379,0.059,0.215,angry
4.94,0,0,0,0,0,0,0,0,627,662,0,2808,1421,4,1499,2774,7.719,12.431,18.586,-5.350,-0.560,3.914,1.573,-3.302,9.402,-0.337,0.081,0.111,angry
4.95,6,0,0,0,0,0,0,0,1143,605,0,2913,1576,2,1159,2553,8.116,14.897,19.613,-5.450,-0.537,4.069,1.693,-3.373,9.663,-0.294,0.058,0.087,angry
4.96,0,0,0,0,0,0,0,0,1723,879,2,3025,1671,4,999,2203,8.054,18.354,19.613,-5.533,-0.299,4.000,1.441,-4.731,9.718,-0.269,-0.015,0.048,angry
4.97,17,0,0,0,102,0,0,0,2250,1289,0,3209,1735,3,536,1621,3.029,19.613,19.613,-5.387,-0.337,3.506,1.384,-3.622,9.651,-0.309,0.002,0.128,angry
4.98,61,0,0,0,165,0,0,0,2909,1564,0,3385,1819,0,0,591,-2.986,19.613,10.276,-4.634,-1.333,1.854,1.188,-3.215,9.278,-0.415,0.000,0.115,angry
4.99,165,0,0,0,192,0,0,0,3089,1677,0,3383,1839,0,0,419,-11.356,19.613,-2.895,-3.378,-2.363,1.144,1.073,-1.824,8.543,-0.762,-0.039,0.004,angry
5.00,374,0,0,0,247,0,0,0,3427,2018,0,3534,1285,2,0,251,-8.533,19.613,-10.537,-1.078,-1.264,0.212,0.857,-3.345,9.871,-0.511,0.012,-0.056,angry
5.01,389,0,0,0,301,0,0,0,3556,2159,0,3603,831,0,0,188,-8.035,19.613,-8.243,0.651,0.321,-0.738,-0.069,0.077,9.282,-0.499,-0.084,-0.138,angry
5.02,175,0,0,0,198,0,0,155,3723,2255,0,3658,393,3,0,67,8.701,19.613,-2.263,2.821,2.082,0.127,1.767,-2.847,9.658,-1.172,-0.044,-0.294,angry
5.03,50,0,0,0,43,0,538,1905,3775,2158,122,3695,200,0,0,73,0.857,-17.523,19.613,3.678,0.210,0.291,1.891,-1.164,10.324,-1.836,-0.034,-0.275,angry
5.04,0,0,0,0,332,0,1529,3277,3851,1549,94,3645,219,0,0,24,-2.260,17.324,19.613,5.355,-1.110,-2.432,1.415,-1.427,9.108,-4.572,0.476,-0.047,angry
5.05,0,153,0,0,1023,0,3105,3569,3832,1053,0,3499,106,0,0,72,19.613,7.489,11.803,2.878,-0.506,-1.603,3.007,-3.642,9.234,-6.008,1.074,0.662,angry
5.06,0,1343,0,0,2006,0,3475,3664,3610,0,0,2367,0,0,0,3,-2.727,6.211,16.386,0.599,2.713,-1.509,4.175,-7.247,19.613,-8.731,1.065,5.179,angry
5.07,31,2098,0,0,2468,0,3555,3722,2831,0,0,1435,0,6,10,6,6.223,4.446,10.101,0.565,2.254,-1.239,6.517,-5.617,19.613,-8.731,0.763,7.190,angry
5.08,190,2752,1417,36,2785,0,3638,3742,0,0,0,52,0,0,0,0,3.328,5.016,12.711,0.794,1.141,-0.897,10.463,-5.897,19.613,-3.979,1.091,6.154,angry
5.09,435,3096,2688,837,2997,0,3646,3710,0,0,2,0,0,0,0,0,3.012,5.521,11.246,0.566,0.369,-0.474,6.716,-12.699,19.613,-1.905,0.381,4.048,angry
5.10,613,3296,3039,1341,3119,0,3625,3567,0,0,0,0,0,0,0,0,3.340,4.484,9.512,0.354,0.081,-0.219,18.783,0.816,10.968,2.173,0.710,0.587,angry
5.11,652,3363,3137,1444,3177,0,3563,3431,0,0,0,0,0,0,0,0,3.587,3.953,9.026,0.257,-0.017,-0.116,10.238,3.342,7.652,2.034,-0.393,-0.843,angry
5.12,677,3440,3242,1586,3189,0,3423,3131,0,0,0,0,0,0,0,0,4.386,3.474,7.434,0.303,0.118,-0.183,6.060,-0.694,11.047,2.886,-1.387,-2.439,angry
5.13,750,3539,3322,1861,3125,0,3183,2784,0,0,0,0,0,0,0,0,3.824,3.864,8.449,0.324,0.230,-0.249,1.082,-1.061,11.396,3.732,-1.580,-2.732,angry
5.14,784,3605,3406,2115,2944,0,2851,2352,0,0,0,0,0,0,0,5,3.819,3.874,8.351,0.295,0.188,-0.286,-3.469,-2.286,10.829,4.798,-2.421,-2.117,angry
5.15,911,3619,3490,2330,2646,0,2421,1871,0,0,0,0,0,0,0,0,3.730,5.215,8.504,0.179,0.177,-0.222,-2.085,-3.132,9.402,5.388,-2.252,-1.367,angry
5.16,1072,3682,3583,2559,2256,0,1895,1133,0,0,0,0,0,0,0,0,3.079,4.966,9.455,0.085,0.158,-0.154,-1.235,-4.463,11.480,5.484,-2.240,-1.229,angry
5.17,1611,3728,3661,2842,2031,0,1461,511,0,0,0,0,0,0,0,0,3.522,4.199,8.265,0.083,0.118,-0.107,-0.081,-6.062,14.437,5.605,-2.495,-1.485,angry
5.18,1903,3742,3730,3025,2129,0,1119,141,0,0,0,0,0,0,0,0,3.428,3.749,8.667,0.135,0.019,-0.132,1.583,-7.930,18.869,5.775,-2.432,-2.087,angry
5.19,2388,3831,3793,3167,2297,0,704,0,0,0,0,0,10,0,0,0,3.388,3.922,8.507,0.208,-0.025,-0.147,-0.879,-7.913,19.613,5.619,-2.448,-2.450,angry
5.20,2698,3888,3838,3262,2077,0,352,0,0,0,0,0,0,0,0,0,3.235,4.259,8.571,0.253,-0.021,-0.157,-4.111,-14.008,19.613,5.354,-2.421,-2.617,angry
5.21,2983,3925,3887,3360,1744,0,165,0,0,3,0,0,0,0,0,0,3.718,3.718,8.380,0.515,0.093,-0.123,-4.592,-19.613,13.340,4.198,-1.301,-1.838,angry
5.22,3093,3954,3915,3408,1424,0,183,0,0,0,0,0,0,0,0,0,3.694,4.487,8.272,0.670,0.112,-0.148,-11.028,-19.613,7.132,3.259,-2.502,-1.524,angry
5.23,3230,3987,3926,3467,1472,0,119,0,0,0,0,0,0,0,0,0,3.419,4.343,8.327,0.835,0.185,-0.135,-10.070,-19.613,-5.684,1.928,-2.790,-1.244,angry
5.24,3505,4009,3955,3506,1004,0,0,0,0,0,0,11,0,0,0,0,3.486,4.166,8.724,1.175,0.251,-0.167,-10.312,-19.613,-5.083,0.649,-1.369,-1.384,angry
5.25,3625,4011,3970,3524,791,0,0,0,0,0,0,0,0,0,5,0,3.668,3.728,8.600,1.482,0.290,-0.190,-15.479,-19.613,-6.187,-0.314,0.121,-0.923,angry
5.26,3717,3980,3961,3541,511,0,0,0,0,0,0,0,37,0,0,0,5.071,3.790,8.602,1.875,0.383,-0.254,-12.622,-19.613,-8.291,-2.555,0.733,-0.001,angry
5.27,3786,3889,3950,3541,330,0,0,0,0,0,0,0,0,0,0,85,5.207,4.214,8.899,2.528,0.640,-0.390,2.689,-4.913,16.443,-1.087,3.071,1.364,angry
5.28,3811,3606,3888,3517,176,0,0,0,0,0,0,0,0,0,0,843,3.907,2.155,8.437,3.389,0.721,-0.540,1.611,13.860,19.613,-3.205,0.882,0.749,angry
5.29,3866,3065,3768,3434,62,0,0,0,0,0,0,0,0,0,0,1663,5.741,4.769,7.925,4.334,1.078,-0.996,7.405,-4.503,2.349,-3.847,1.232,1.291,angry
5.30,3867,2698,3338,3058,0,0,0,0,0,0,0,0,0,0,0,2098,7.008,4.714,10.475,5.055,0.837,-1.710,-4.638,-11.782,19.613,-2.832,1.498,0.897,angry
5.31,3820,2249,2727,2530,0,0,0,0,0,0,0,0,3,0,343,2870,9.680,5.837,15.828,6.263,-0.853,-2.919,-2.650,-1.355,15.194,-2.715,0.803,0.597,angry
5.32,3570,1297,2082,1902,0,0,0,0,0,0,48,0,0,0,1017,3287,5.528,7.257,19.613,6.892,-1.530,-4.078,6.706,-3.220,9.780,-2.480,0.496,0.634,angry
5.33,2639,656,128,1076,0,0,0,0,0,0,0,0,0,0,1598,3541,10.973,8.037,17.911,7.086,-0.457,-5.373,4.760,-4.685,10.836,-2.403,0.308,0.330,angry
5.34,983,50,0,3,0,0,0,0,0,0,0,0,17,0,2233,3669,9.867,14.767,17.499,6.145,-0.098,-6.077,-0.692,-3.225,13.848,-2.268,0.333,0.403,angry
5.35,276,0,0,0,0,0,0,0,0,0,0,0,155,0,2709,3747,19.613,8.353,19.613,1.424,-0.107,-5.069,5.679,-10.223,12.763,-2.319,1.245,0.327,angry
5.36,0,0,0,0,0,0,0,0,0,0,0,0,355,0,2859,3789,19.613,8.748,7.163,0.884,0.376,-3.090,-0.503,-1.599,14.803,-1.326,1.094,0.363,angry
5.37,73,0,0,0,0,0,0,0,0,0,5,0,691,0,2965,3820,19.613,-1.776,13.132,-0.079,1.341,-1.068,1.882,-4.243,11.277,-1.050,0.811,0.455,angry
5.38,82,0,0,0,0,0,0,0,0,17,0,109,1117,0,3109,3828,16.240,-0.742,8.195,-0.262,0.561,0.727,1.398,-2.018,10.647,-0.761,0.630,0.411,angry
5.39,131,0,0,0,0,0,0,0,0,0,0,361,1549,0,3155,3836,11.303,-2.212,10.233,-0.560,-0.408,1.824,0.493,-2.717,11.157,-0.607,0.428,0.368,angry
5.40,103,0,0,0,0,0,0,0,0,0,0,687,1747,0,3211,3831,9.618,-0.280,10.525,-1.107,-0.824,2.569,1.614,-2.976,10.690,-0.491,0.427,0.327,angry
5.41,32,0,0,0,0,0,0,0,0,0,0,940,1977,1,3282,3819,6.833,0.043,10.693,-1.867,-0.901,3.016,1.647,-3.129,9.946,-0.376,0.251,0.212,angry
5.42,22,0,0,0,0,0,0,0,0,17,0,1139,2137,0,3307,3797,4.166,0.196,10.139,-2.584,-0.819,3.179,1.197,-2.555,10.257,-0.364,0.080,0.193,angry
5.43,0,0,0,0,0,0,0,0,0,219,0,1247,2253,0,3371,3755,2.579,1.118,9.548,-3.094,-0.707,3.180,1.832,-2.851,9.682,-0.334,0.072,0.179,angry
5.44,0,0,0,0,0,0,0,0,0,313,0,1392,2392,9,3291,3684,2.255,2.404,9.610,-3.543,-0.570,3.087,1.812,-2.756,9.522,-0.322,0.089,0.192,angry
5.45,0,0,0,0,0,0,0,0,0,508,0,1496,2513,0,3225,3606,2.375,3.725,9.819,-3.891,-0.409,3.037,1.702,-2.595,9.618,-0.337,0.146,0.271,angry
5.46,0,0,0,0,0,0,0,0,0,573,0,1627,2578,4,3177,3512,2.140,5.006,10.645,-4.159,-0.346,2.994,2.025,-2.610,9.471,-0.391,0.204,0.345,angry
5.47,0,0,0,0,5,0,0,0,11,485,0,1817,2603,0,3032,3383,2.040,6.424,11.463,-4.408,-0.447,2.917,2.126,-2.772,9.294,-0.414,0.221,0.419,angry
5.48,0,0,0,0,130,0,0,0,29,518,0,1948,2547,0,2760,3215,3.292,8.229,12.321,-4.657,-0.524,2.881,2.114,-3.112,9.464,-0.373,0.278,0.487,angry
5.49,0,0,0,0,131,0,0,0,87,363,0,2316,2453,0,2297,3092,3.519,9.819,13.939,-4.976,-0.543,2.888,1.664,-3.002,9.546,-0.393,0.220,0.430,angry
5.50,0,0,0,0,117,0,0,0,283,465,2,2367,2321,3,2065,3055,4.978,11.813,13.949,-5.246,-0.604,2.812,1.482,-3.567,10.075,-0.385,0.175,0.374,angry
5.51,19,0,0,0,176,0,0,0,651,667,2,2666,2187,1,1617,2873,6.625,14.238,12.428,-5.176,-0.370,3.169,1.401,-3.431,9.615,-0.231,0.153,0.149,angry
5.52,54,0,0,0,115,0,0,0,1196,1071,7,2899,2136,3,1301,2577,2.588,14.720,15.258,-4.718,-1.007,3.160,1.528,-2.804,9.570,-0.329,0.113,0.072,angry
5.53,35,0,0,0,129,0,0,0,1699,1381,0,2991,2079,3,1079,2297,2.576,17.040,15.536,-4.475,-1.129,2.402,1.401,-3.838,10.034,-0.244,0.161,0.051,angry
5.54,77,0,0,0,195,0,0,0,2393,1691,0,3167,2293,0,295,1407,-0.802,18.742,8.566,-3.716,-1.209,1.585,1.468,-3.522,9.675,-0.236,0.087,0.049,angry
5.55,114,0,0,0,268,0,0,0,2847,1886,0,3353,2284,4,29,621,-6.314,19.613,3.196,-2.766,-1.509,0.263,1.539,-3.618,9.641,-0.322,0.122,-0.001,angry
5.56,166,0,0,0,289,0,0,0,3038,2038,0,3415,2195,1,3,425,-6.232,19.613,-4.726,-1.566,-1.437,-0.975,1.539,-3.733,9.538,-0.374,0.122,-0.019,angry
5.57,187,0,0,0,288,0,0,0,3254,2228,0,3531,1549,2,0,442,-2.234,19.137,-2.109,0.076,-0.140,-1.395,1.362,-3.163,8.873,-0.387,0.094,-0.061,angry
5.58,80,0,0,0,147,0,0,0,3498,2331,0,3643,648,1,0,213,1.532,13.783,-8.234,2.456,0.661,-1.163,1.638,-2.971,9.467,-0.775,0.033,-0.188,angry
5.59,0,0,0,0,71,0,0,65,3553,2317,0,3639,670,39,0,167,3.100,14.190,4.997,2.246,2.218,-0.931,1.599,-3.100,9.843,-1.069,0.040,-0.224,angry
5.60,0,0,0,0,112,0,444,1131,3619,2283,0,3683,375,0,0,100,4.810,-2.734,18.263,2.607,1.108,-0.385,1.324,-2.808,10.185,-1.626,0.094,-0.224,angry
5.61,0,0,0,0,267,0,1308,2913,3661,1977,0,3685,164,1,0,78,-2.148,6.673,13.781,4.330,-0.373,-2.448,2.124,-2.497,9.424,-2.496,0.309,-0.310,angry
5.62,0,46,0,0,713,0,2675,3344,3721,1325,0,3601,165,0,0,16,12.220,8.708,5.952,2.492,0.275,-1.695,5.452,-3.000,11.528,-4.797,1.222,-0.238,angry
5.63,0,555,0,0,1788,0,3230,3479,3623,243,0,3032,0,0,0,53,4.563,7.827,11.720,1.277,2.634,-1.588,0.862,-4.393,19.613,-7.453,1.386,2.105,angry
5.64,0,1986,0,0,2320,0,3439,3648,3371,173,0,2283,0,0,0,58,5.033,5.148,10.434,0.656,2.804,-1.313,6.175,-10.453,19.613,-7.417,1.458,3.919,angry
5.65,192,2720,1975,462,2669,0,3504,3711,1452,0,0,425,0,0,0,0,5.083,3.994,9.950,1.093,1.319,-0.988,3.766,-9.428,15.699,-8.731,0.917,5.047,angry
5.66,400,3017,2864,1388,2803,0,3520,3710,0,9,0,0,0,0,18,0,4.068,5.612,9.050,0.635,0.470,-0.465,15.941,-3.457,19.613,-1.004,0.460,4.954,angry
5.67,534,3259,3157,1956,2967,0,3553,3658,0,0,0,0,0,0,0,75,3.270,4.681,9.280,0.387,0.175,-0.192,19.613,-6.155,19.613,1.136,0.404,2.371,angry
5.68,635,3399,3306,2167,3054,0,3536,3504,0,0,0,23,0,0,22,0,3.496,4.025,8.928,0.358,0.039,-0.086,9.266,4.441,7.458,2.809,0.355,-0.038,angry
5.69,784,3472,3375,2259,3115,0,3482,3361,0,0,0,0,0,0,0,0,3.780,4.278,8.526,0.305,-0.022,-0.065,8.279,0.972,7.752,2.519,-1.027,-1.168,angry
5.70,809,3527,3419,2278,3147,0,3403,3184,0,0,0,0,0,0,0,0,3.675,4.245,8.516,0.269,0.070,-0.057,7.499,-1.575,10.556,3.224,-1.251,-1.912,angry
5.71,924,3578,3483,2347,3145,0,3199,2851,0,0,0,0,0,0,0,0,3.579,4.092,8.677,0.201,0.013,-0.042,-1.180,-1.841,10.010,4.340,-1.828,-2.480,angry
5.72,1057,3647,3527,2398,3143,0,2979,2371,0,0,0,0,0,5,0,0,3.567,4.001,8.588,0.182,-0.041,-0.056,-2.093,-2.825,9.519,4.682,-2.075,-2.224,angry
5.73,1118,3690,3559,2444,3071,0,2731,1370,5,0,0,0,0,0,0,0,3.536,3.970,8.514,0.161,-0.079,-0.086,-0.931,-4.623,10.192,5.191,-1.795,-1.582,angry
5.74,1168,3709,3583,2485,2947,0,2416,282,0,0,0,0,0,0,0,0,3.522,4.032,8.411,0.115,-0.076,-0.111,0.742,-5.787,11.590,5.311,-1.988,-1.541,angry
5.75,1168,3762,3631,2553,2874,0,1889,0,0,0,0,0,0,0,0,0,3.510,4.044,8.262,0.089,-0.031,-0.125,1.056,-6.584,13.348,5.353,-2.155,-1.727,angry
5.76,1208,3806,3659,2608,2799,0,1534,0,0,0,0,0,0,0,0,0,3.630,4.152,8.267,0.054,0.018,-0.151,0.907,-7.532,15.773,5.412,-2.356,-1.908,angry
5.77,1347,3810,3681,2701,2729,0,1343,0,5,0,0,0,0,0,0,0,3.938,4.372,8.088,0.042,0.026,-0.160,0.567,-8.167,17.731,5.460,-2.535,-2.041,angry
5.78,1519,3835,3723,2793,2699,0,1155,0,0,0,0,0,41,6,0,0,3.627,4.178,8.475,0.059,-0.015,-0.157,-0.962,-8.871,19.613,5.530,-2.698,-2.020,angry
5.79,1979,3892,3772,2903,2725,0,1023,0,39,0,0,0,0,0,0,0,3.426,4.044,8.502,0.118,-0.094,-0.160,-0.881,-14.320,19.613,5.612,-2.730,-1.549,angry
5.80,2339,3938,3824,2997,2517,0,665,0,2,0,0,0,0,0,0,0,3.505,4.082,8.262,0.233,-0.037,-0.140,0.132,-19.613,11.959,4.206,-2.617,-1.363,angry
5.81,2544,3951,3841,3043,2268,0,560,0,0,0,0,21,0,0,0,0,3.795,3.891,8.092,0.361,0.054,-0.130,-4.269,-19.613,2.540,3.073,-2.348,-1.272,angry
5.82,2737,3983,3867,3104,2100,0,414,0,0,0,0,0,0,0,0,0,3.680,3.886,8.363,0.603,0.095,-0.115,-9.934,-19.613,-3.917,1.795,-2.533,-1.190,angry
5.83,2923,4009,3893,3167,1920,0,405,0,0,0,0,0,0,0,0,0,3.589,3.950,8.432,0.762,0.147,-0.119,-8.212,-19.613,-6.213,0.498,-1.919,-1.318,angry
5.84,3046,4033,3920,3216,1665,0,357,0,0,0,0,0,0,0,0,0,3.689,4.223,8.416,0.979,0.188,-0.149,-8.662,-19.613,-6.438,-0.800,-0.339,-1.265,angry
5.85,3318,4078,3945,3289,1284,0,262,0,0,0,0,0,0,21,0,0,3.883,4.144,8.418,1.362,0.203,-0.256,-9.459,-19.613,-0.503,-1.629,0.472,-0.496,angry
5.86,3535,4048,3952,3325,1023,0,77,0,0,0,0,0,0,0,0,183,4.269,3.891,8.466,2.066,0.245,-0.404,-0.120,9.900,19.613,-1.444,2.382,-0.942,angry
5.87,3634,4002,3939,3328,720,0,0,0,0,0,0,0,0,0,0,789,3.862,3.560,8.210,2.795,0.363,-0.547,-8.114,11.238,6.792,-4.506,-0.273,-1.229,angry
5.88,3697,3924,3887,3255,380,0,0,0,0,0,0,0,0,0,0,1547,3.881,3.045,8.473,3.715,0.592,-0.849,-7.108,-6.237,13.688,-4.736,0.512,0.121,angry
5.89,3727,3698,3760,3030,489,0,0,0,0,0,0,17,0,0,0,1934,6.223,4.070,9.469,4.680,0.777,-1.343,-11.509,-12.596,19.613,-3.898,0.730,0.534,angry
5.90,3637,2245,2739,2337,0,0,0,0,0,3,0,0,0,0,1685,3125,6.158,5.286,15.342,6.201,-0.091,-2.682,13.556,-6.812,9.991,-3.062,0.104,0.773,angry
5.91,3318,1487,1917,1515,0,0,0,0,0,0,5,0,17,4,2359,3448,8.588,7.223,18.253,6.941,-0.673,-3.927,19.613,-4.171,13.372,-3.753,3.124,0.641,angry
5.92,1882,231,0,68,0,0,0,0,0,0,0,0,175,0,2733,3615,8.823,9.189,11.128,6.652,0.998,-5.550,-2.576,-7.863,19.613,-1.484,2.094,1.167,angry
5.93,1005,0,0,0,0,0,0,0,0,0,0,0,805,0,2911,3629,6.282,13.482,19.613,5.028,1.608,-5.336,3.560,-4.475,11.104,-0.771,2.208,1.184,angry
5.94,464,0,0,0,0,0,0,0,0,3,0,0,1324,0,3053,3687,13.841,3.970,19.613,2.837,0.319,-4.571,-0.223,-4.118,12.967,-0.548,1.678,0.849,angry
5.95,215,0,0,0,0,0,0,0,3,0,0,56,1561,0,3163,3767,19.613,16.099,17.162,0.752,0.393,-2.233,2.662,-3.694,10.625,-0.452,0.969,0.599,angry
5.96,350,0,0,0,0,0,0,0,20,0,0,346,1809,0,3212,3753,19.276,0.139,15.988,-0.939,1.354,-0.479,1.276,-3.577,11.155,-0.337,0.652,0.402,angry
5.97,432,0,0,0,0,0,0,0,57,9,0,764,2085,0,3282,3771,12.385,-0.661,6.704,-1.441,1.118,0.858,0.848,-3.962,11.301,-0.234,0.198,0.256,angry
5.98,487,0,0,0,0,0,0,0,47,29,0,873,2219,0,3363,3781,6.816,-2.866,7.427,-1.537,0.160,1.519,1.506,-2.878,9.910,-0.129,0.141,0.179,angry
5.99,436,0,0,0,0,0,0,0,59,85,0,975,2377,2,3423,3757,7.314,-0.555,7.733,-1.915,-0.473,2.003,1.729,-3.326,10.020,-0.064,0.048,0.080,angry
6.00,440,0,0,0,0,0,0,0,53,301,0,967,2520,2,3439,3733,7.374,1.238,9.270,-2.627,-0.478,2.331,1.774,-3.184,9.495,-0.045,-0.088,-0.000,angry
6.01,458,0,0,0,0,0,0,0,76,398,0,893,2635,2,3421,3691,5.148,1.662,9.524,-3.414,-0.395,2.570,2.212,-3.211,9.697,-0.013,-0.071,-0.048,angry
6.02,404,0,0,0,0,0,0,0,95,491,7,846,2711,1,3371,3631,3.330,2.552,9.278,-3.943,-0.565,2.657,1.973,-2.907,9.486,-0.014,-0.095,-0.070,angry
6.03,447,0,0,0,0,0,0,0,19,525,0,700,2750,0,3301,3544,2.851,3.632,8.768,-4.346,-0.840,2.670,1.946,-2.780,9.155,-0.029,-0.074,-0.055,angry
6.04,411,0,0,0,0,0,0,0,36,535,0,746,2767,1,3189,3469,3.625,4.918,8.176,-4.650,-0.875,2.633,1.753,-2.799,9.333,-0.039,0.002,0.002,angry
6.05,426,0,0,0,0,0,0,0,25,471,0,695,2809,0,3090,3352,3.917,5.988,8.389,-4.829,-0.767,2.602,1.973,-2.768,9.407,-0.033,0.047,0.017,angry
6.06,386,0,0,0,0,0,0,0,0,435,0,697,2855,5,2863,3239,3.488,7.439,9.881,-4.931,-0.920,2.597,1.769,-2.452,9.201,-0.061,0.047,0.066,angry
6.07,433,0,0,0,0,0,0,0,8,537,0,805,2899,28,2671,3148,3.170,8.552,11.080,-4.998,-1.250,2.599,1.745,-2.535,9.371,-0.115,0.048,0.122,angry
6.08,365,0,0,0,0,0,0,0,35,432,0,975,2955,1,2669,3049,3.345,10.326,12.740,-5.131,-1.515,2.567,1.832,-2.533,9.146,-0.185,0.133,0.239,angry
6.09,362,0,0,0,0,0,0,0,74,491,0,1239,3017,0,2602,2923,3.577,11.478,13.994,-5.262,-1.649,2.475,1.908,-2.904,9.347,-0.191,0.172,0.346,angry
6.10,363,0,0,0,0,0,0,0,76,704,2,1471,3093,3,2575,2845,3.069,11.978,14.846,-5.259,-1.799,2.369,2.241,-2.349,8.734,-0.288,0.242,0.444,angry
6.11,352,0,0,0,0,0,0,0,156,1071,5,1975,3125,5,2549,2681,2.155,12.256,15.560,-5.118,-2.079,2.240,1.939,-3.206,9.749,-0.407,0.087,0.487,angry
6.12,304,0,0,0,0,0,0,0,760,1523,0,2511,3116,5,2259,2303,0.213,14.811,17.976,-4.910,-2.494,1.835,2.373,-0.453,10.546,0.039,0.283,0.436,angry
6.13,300,0,0,0,0,0,0,0,1570,1639,5,2843,2963,5,1919,1818,-2.406,15.749,15.249,-4.578,-2.442,0.954,1.453,-3.625,9.618,-0.283,0.084,0.132,angry
6.14,343,0,0,0,122,0,0,0,1983,1682,7,2975,2925,0,1723,1625,-5.085,18.364,7.642,-3.489,-1.656,-0.041,1.477,-3.349,9.598,-0.230,0.085,0.114,angry
6.15,357,0,0,0,61,0,0,0,2601,2125,7,3067,2889,12,456,1035,-10.240,19.613,0.809,-2.279,-1.540,-0.926,1.554,-3.237,9.366,-0.325,0.190,0.108,angry
6.16,391,0,0,0,48,0,0,0,3003,2344,0,3274,2445,1,0,542,-8.693,19.613,-7.353,-0.643,-1.144,-1.238,0.807,-3.843,9.646,-0.369,0.205,0.085,angry
6.17,172,0,0,0,0,0,0,0,3143,2377,0,3367,1938,0,0,427,-1.633,15.799,-10.582,2.414,2.219,-1.817,1.137,-3.333,9.847,-0.382,0.206,0.006,angry
6.18,42,0,0,0,0,0,112,87,3289,2359,94,3447,1563,2,8,371,1.226,12.021,16.922,1.601,3.074,-1.341,1.779,-3.472,9.634,-0.636,0.115,-0.074,angry
6.19,0,0,0,0,208,0,1095,2277,3517,2349,0,3588,867,1,0,219,2.315,-6.721,5.928,3.986,-0.392,-1.670,1.762,-2.665,9.342,-1.488,0.063,-0.096,angry
6.20,0,0,0,0,727,0,2444,3055,3605,2008,0,3597,309,1,0,26,5.775,17.727,18.158,3.208,-0.254,-2.275,1.204,-2.059,9.325,-3.543,0.194,0.112,angry
6.21,0,635,0,0,1808,0,3120,3435,3629,1521,0,3514,239,0,0,29,9.610,7.144,4.987,0.655,3.543,-1.544,2.689,-2.061,9.172,-5.033,0.422,0.408,angry
6.22,349,1892,0,0,2032,0,3254,3573,3439,359,0,2911,7,0,0,28,5.851,5.854,9.155,0.885,2.879,-1.637,4.700,2.186,19.613,-7.336,0.520,1.862,angry
6.23,1088,2609,2065,658,2350,0,3349,3674,1971,20,0,755,25,0,0,0,1.626,2.674,12.352,1.246,1.130,-1.028,4.113,-15.567,16.800,-8.144,0.916,3.504,angry
6.24,1952,2951,2944,1810,2481,0,3360,3696,489,11,0,333,0,0,0,0,2.622,7.242,12.048,0.826,0.404,-0.070,-0.520,-14.621,19.613,-4.964,0.849,4.245,angry
6.25,2622,3191,3133,2263,2609,0,3373,3664,0,0,0,0,0,0,20,0,2.806,4.489,9.143,0.415,0.136,-0.027,7.606,-8.701,14.710,0.162,0.905,4.468,angry
6.26,2935,3344,3280,2511,2726,0,3344,3522,0,0,0,0,0,0,0,0,3.136,4.338,9.031,0.283,-0.027,-0.044,14.964,1.061,7.259,2.668,1.201,1.462,angry
6.27,3029,3431,3344,2583,2755,0,3279,3429,0,0,0,0,0,0,0,0,3.280,4.216,8.763,0.272,-0.054,-0.032,11.535,3.381,6.302,2.815,0.067,-0.288,angry
6.28,3159,3547,3440,2673,2746,0,3084,3164,0,0,0,0,0,0,0,0,3.546,4.147,8.612,0.290,-0.017,-0.042,10.740,1.674,5.420,2.789,-0.974,-1.977,angry
6.29,3261,3607,3485,2738,2791,0,2768,2725,0,0,0,0,0,0,0,0,3.680,4.161,8.602,0.375,-0.050,-0.024,1.008,-0.682,8.198,3.166,-1.938,-3.690,angry
6.30,3356,3675,3543,2787,2705,0,2288,1250,0,0,0,0,5,0,0,0,3.752,4.252,8.370,0.370,-0.026,0.044,-0.091,-3.251,10.269,3.906,-1.081,-3.458,angry
6.31,3475,3764,3579,2818,2649,0,1875,201,0,0,0,5,0,0,0,0,3.677,4.156,8.404,0.387,0.029,0.144,-0.860,-4.197,11.274,4.276,-0.520,-3.061,angry
6.32,3548,3810,3583,2833,2496,0,1374,0,0,0,69,0,0,0,0,0,3.503,4.360,8.294,0.397,0.067,0.178,4.259,-6.112,11.214,4.569,-0.270,-3.124,angry
6.33,3583,3823,3627,2843,2427,0,1123,0,0,0,0,0,0,0,0,0,3.393,4.520,8.301,0.366,0.064,0.172,6.203,-7.582,11.138,4.526,-0.342,-3.570,angry
6.34,3626,3855,3648,2859,2352,0,895,0,0,1,0,0,0,0,0,0,3.491,4.305,8.365,0.343,0.035,0.136,11.997,-9.843,10.364,4.345,-0.161,-4.178,angry
6.35,3659,3858,3655,2880,2342,0,695,0,0,0,0,0,0,0,0,0,3.517,4.515,8.119,0.310,-0.016,0.064,17.312,-14.320,10.544,3.906,0.189,-5.536,angry
6.36,3696,3871,3667,2895,2317,0,637,0,0,0,0,0,37,0,0,0,3.603,4.544,8.162,0.268,-0.057,0.014,18.905,-19.199,9.498,3.276,0.797,-7.074,angry
6.37,3726,3893,3696,2916,2365,0,609,0,0,0,0,0,0,0,0,0,3.575,4.563,8.243,0.229,-0.105,-0.023,15.151,-19.613,8.152,2.582,1.532,-8.138,angry
6.38,3755,3915,3708,2927,2380,0,511,0,0,0,0,0,0,0,0,0,3.677,4.654,8.308,0.195,-0.141,-0.054,10.068,-19.613,6.998,1.875,1.804,-8.153,angry
6.39,3795,3936,3719,2928,2417,0,503,0,0,0,0,0,0,0,0,0,3.673,4.506,8.404,0.202,-0.191,-0.070,10.245,-19.613,4.707,1.338,1.950,-7.574,angry
6.40,3802,3952,3731,2927,2415,0,492,0,0,0,0,0,0,0,0,0,3.632,4.611,8.191,0.232,-0.216,-0.075,9.797,-19.613,-0.381,0.949,1.944,-6.975,angry
6.41,3810,3971,3746,2905,2393,0,447,0,0,0,0,0,0,0,0,0,3.661,4.580,8.140,0.229,-0.205,-0.090,4.659,-19.613,-3.551,0.092,0.634,-6.312,angry
6.42,3835,3997,3758,2864,2352,0,432,0,0,34,2,0,0,0,0,0,3.654,4.571,8.167,0.268,-0.199,-0.094,2.416,-19.613,-2.954,-0.740,-0.897,-5.339,angry
6.43,3822,4007,3760,2732,2099,0,389,0,0,0,0,0,0,0,0,0,3.895,4.865,8.114,0.280,-0.191,-0.118,-0.096,-19.613,-2.686,-1.607,-1.810,-2.699,angry
6.44,3827,4055,3763,2495,1638,0,228,0,0,0,107,0,0,0,0,0,3.807,4.760,8.358,0.261,-0.200,-0.122,-1.030,-19.613,-7.254,-2.093,-0.575,-1.399,angry
6.45,3728,4059,3733,2304,1290,0,225,0,0,0,0,0,0,0,443,1304,3.934,4.523,8.732,0.297,-0.261,-0.182,-5.406,6.227,14.111,-2.476,-0.298,-1.121,angry
6.46,3466,4027,3530,1986,1039,0,320,0,0,0,0,0,31,0,1357,2326,1.853,3.206,10.618,-0.033,-0.633,-0.607,19.613,-16.963,19.613,-3.875,2.774,0.547,angry
6.47,3097,3939,3180,1506,759,0,434,0,0,0,0,0,175,0,1703,2397,-0.733,0.637,13.391,-1.100,-1.731,-2.477,-0.781,-4.259,11.995,-0.846,1.038,0.563,angry
6.48,2320,3399,2701,624,553,0,381,0,0,27,0,0,1657,0,2491,2867,-0.797,3.436,12.821,-2.500,-2.810,-4.668,2.588,-2.911,10.415,-0.919,0.764,1.015,angry
6.49,1735,2689,1161,0,420,0,46,0,264,935,2,181,2675,3,2874,3061,-1.626,5.193,10.293,-4.025,-3.463,-5.962,2.667,-3.728,10.089,-0.658,0.149,0.651,angry
6.50,1071,1155,0,0,428,0,0,0,313,1244,2,317,2920,3,2984,3119,-1.118,14.296,9.139,-4.930,-4.307,-6.059,2.763,-4.616,10.247,-0.331,-0.062,0.428,angry
6.51,493,71,0,0,0,0,0,0,664,1563,0,468,3211,3,3150,3174,3.759,19.613,8.260,-5.567,-3.728,-5.809,2.354,-3.247,8.906,-0.323,-0.121,0.301,angry
6.52,403,17,0,0,278,0,0,0,1061,1833,2,783,3363,2,3239,3199,-0.879,15.239,1.729,-4.649,-3.068,-5.583,2.114,-4.216,9.610,-0.353,-0.191,0.005,angry
6.53,337,2,0,0,45,0,0,0,1180,1952,2,909,3317,3,3247,3208,-0.204,12.661,3.697,-3.724,-2.159,-5.194,2.162,-3.517,8.152,-0.285,-0.120,-0.083,angry
6.54,258,0,0,0,39,0,0,0,1338,2100,5,1511,3293,0,3237,3227,0.824,10.266,4.920,-2.814,-1.594,-4.923,2.069,-3.627,9.819,-0.054,0.125,-0.096,angry
6.55,277,0,0,0,0,0,0,0,1240,2133,0,1609,3207,3,3263,3260,0.960,9.239,6.981,-2.253,-1.400,-4.632,1.753,-3.642,9.641,0.111,0.209,-0.103,angry
6.56,234,0,0,0,58,0,0,0,917,1993,5,1637,3145,2,3321,3260,2.253,7.786,6.457,-1.844,-1.097,-4.238,1.695,-3.254,9.354,0.120,0.202,-0.119,angry
6.57,240,0,0,0,16,0,0,0,430,1739,2,1447,3061,3,3289,3284,3.287,6.187,6.500,-1.419,-0.464,-3.832,1.645,-3.326,9.586,0.114,0.033,-0.238,angry
6.58,199,0,0,0,0,0,0,0,221,1628,0,887,3015,2,3311,3289,6.136,4.695,6.385,-1.015,0.174,-3.244,2.169,-3.323,9.280,0.189,0.112,-0.258,angry
6.59,192,0,0,0,0,0,0,0,125,1395,2,719,3016,9,3315,3299,8.121,3.515,6.812,-0.776,0.537,-2.770,1.877,-3.280,9.495,0.139,0.074,-0.255,angry
6.60,208,0,0,0,0,0,0,0,51,1351,48,595,2938,2,3308,3301,8.894,2.124,7.992,-0.570,0.608,-2.167,1.784,-3.043,9.613,0.161,0.127,-0.224,angry
6.61,209,0,0,0,0,0,0,0,3,1337,0,518,2878,1,3301,3315,8.763,1.156,8.289,-0.435,0.362,-1.549,1.867,-3.175,9.680,0.180,0.078,-0.218,angry
6.62,210,0,0,0,0,0,0,0,0,1215,0,455,2787,0,3309,3323,7.949,0.108,7.824,-0.316,0.145,-1.105,1.824,-3.409,9.867,0.221,0.011,-0.245,angry
6.63,203,0,0,0,0,0,0,0,0,1279,0,446,2723,0,3335,3340,7.254,-0.414,8.514,-0.295,0.116,-0.886,1.511,-2.002,8.636,0.226,0.018,-0.223,angry
6.64,168,0,0,0,0,0,0,0,0,1241,0,435,2633,0,3337,3386,5.935,-0.685,10.295,-0.443,0.057,-0.928,1.788,-2.258,8.468,0.151,-0.009,-0.220,angry
6.65,209,0,0,0,0,0,0,0,0,1247,120,287,2508,0,3299,3388,4.245,-0.754,11.392,-0.737,-0.210,-1.260,1.585,-2.437,8.942,0.110,-0.015,-0.191,angry
6.66,206,0,0,0,0,0,0,0,0,1142,0,298,2350,0,3269,3416,3.486,-0.055,10.427,-1.307,-0.690,-2.261,1.448,-2.624,9.821,0.203,0.088,-0.102,angry
6.67,196,0,0,0,0,0,0,0,3,1093,0,307,2317,0,3260,3453,4.384,1.492,9.448,-1.572,-0.904,-2.804,1.674,-2.483,9.646,0.071,0.062,0.004,angry
6.68,230,0,0,0,0,0,0,0,0,1051,0,237,2229,0,3193,3484,4.999,3.555,8.631,-1.763,-1.122,-3.206,2.121,-2.224,8.837,0.063,0.154,0.060,angry
6.69,177,0,0,0,0,0,0,0,0,1007,0,205,1979,0,3163,3511,5.069,5.492,6.819,-1.888,-1.278,-3.466,2.830,-2.473,8.557,-0.038,0.167,0.051,angry
6.70,160,0,0,0,0,0,0,0,0,937,0,175,1719,0,3063,3550,4.547,6.529,5.040,-1.761,-1.359,-3.687,2.277,-3.620,10.068,0.033,0.226,0.041,angry
6.71,0,0,0,0,0,0,0,0,7,824,0,78,1468,0,2997,3601,6.167,10.230,0.915,-0.906,-1.112,-3.611,2.349,-3.472,9.989,0.048,0.199,-0.078,angry
6.72,0,0,0,0,0,0,0,0,0,795,0,10,1243,0,2973,3624,5.576,10.889,6.029,-0.904,-0.900,-3.187,2.291,-3.666,10.341,0.070,0.121,-0.190,angry
6.73,0,0,0,0,0,0,0,227,5,589,0,37,919,0,2872,3655,6.567,6.151,5.150,-0.733,-0.876,-2.523,3.086,-3.302,9.536,0.173,-0.023,-0.428,angry
6.74,13,0,0,0,0,0,0,858,0,413,0,0,495,0,2824,3631,9.263,1.659,5.928,-0.448,-0.678,-1.829,2.619,-3.299,10.218,0.205,-0.082,-0.593,angry
6.75,0,0,0,0,0,0,0,1762,0,381,0,0,189,0,2764,3684,13.585,0.079,4.712,0.048,-0.594,-1.027,3.519,-3.529,9.756,0.116,-0.066,-0.791,angry
6.76,0,0,0,0,203,0,795,2421,0,9,0,28,51,0,2571,3644,16.494,2.433,3.553,0.693,-0.697,-0.004,5.933,-3.115,8.291,0.011,0.156,-1.146,angry
6.77,0,0,0,0,352,0,1486,2784,0,0,0,0,0,0,2317,3673,9.055,9.912,19.613,-0.064,1.240,-0.321,7.257,-3.883,8.279,-0.096,0.437,-1.639,angry
6.78,0,0,0,0,722,0,1995,2989,8,0,0,0,0,0,1819,3620,2.737,1.295,7.717,0.014,0.398,0.009,9.957,-5.246,8.080,-0.126,0.958,-2.239,angry
6.79,0,149,0,0,995,0,2415,3142,0,0,0,0,0,0,1532,3507,3.385,3.639,9.677,0.154,-0.048,0.023,7.958,-6.160,9.210,0.374,1.934,-2.594,angry
6.80,0,304,0,0,1327,0,2722,3310,0,3,23,0,0,0,1033,3303,3.627,4.099,9.357,-0.054,0.086,0.089,9.438,-6.132,8.145,0.504,2.577,-2.934,angry
6.81,0,601,2,0,1683,0,2967,3445,0,0,0,0,0,0,591,3052,3.055,2.806,9.409,-0.009,0.070,0.063,12.828,-8.248,7.661,0.683,3.194,-3.602,angry
6.82,0,1131,286,48,1961,0,3153,3555,0,0,0,0,0,0,0,2659,3.175,2.081,9.012,0.136,0.004,-0.029,16.072,-9.503,6.541,0.721,3.676,-4.576,angry
6.83,15,1494,1067,260,2259,0,3279,3626,0,0,0,0,0,0,0,2086,3.680,2.385,8.545,0.298,-0.006,-0.154,15.581,-7.341,5.631,0.659,4.352,-5.476,angry
6.84,93,2194,1954,711,2516,0,3393,3670,0,0,2,0,0,0,0,792,3.589,3.409,9.067,0.305,0.021,-0.170,9.045,-11.973,1.448,-1.192,5.166,-6.983,angry
6.85,131,2525,2515,976,2790,0,3458,3692,0,0,0,0,0,0,1,378,3.349,3.390,8.993,0.201,0.035,-0.132,8.028,-7.894,8.851,-2.540,0.875,-5.746,angry
6.86,281,2727,2803,1255,2987,0,3486,3665,0,0,0,0,0,0,0,267,3.100,2.636,9.007,0.322,0.116,-0.284,12.854,-4.571,12.895,-2.611,0.339,-5.212,angry
6.87,406,2907,2983,1594,3082,0,3463,3583,0,0,0,0,0,0,0,155,3.354,4.180,9.632,0.327,0.091,-0.361,5.148,4.468,16.336,-1.529,-0.470,-3.799,angry
6.88,542,2971,3113,1826,3107,0,3383,3472,0,0,0,0,0,0,0,189,3.733,3.493,8.734,0.345,0.158,-0.349,5.528,8.021,15.847,0.211,-0.654,-2.135,angry
6.89,803,3023,3179,2122,3063,0,3211,3309,0,0,0,0,0,0,0,171,3.675,3.603,8.736,0.323,0.094,-0.332,7.125,7.384,14.415,0.984,-0.946,-1.790,angry
6.90,926,3100,3277,2327,2982,0,2800,3094,0,0,0,0,0,0,0,84,3.519,4.494,9.141,0.337,0.052,-0.329,7.824,4.168,10.343,1.719,-1.466,-2.038,angry
6.91,1067,3117,3376,2554,2764,0,2249,2449,0,0,0,0,0,0,0,63,3.424,3.965,8.679,0.261,0.060,-0.282,6.991,-1.712,12.237,1.778,-2.040,-2.788,angry
6.92,1567,3168,3504,2800,2559,0,1841,1789,0,0,20,0,0,0,0,10,3.297,4.056,8.677,0.221,0.069,-0.232,6.325,-3.539,11.382,1.627,-2.032,-3.183,angry
6.93,2086,3247,3609,3007,2303,0,1257,1246,0,0,0,0,0,0,2,0,3.160,3.776,8.746,0.242,0.044,-0.225,5.016,-6.433,11.284,1.278,-1.354,-3.765,angry
6.94,2559,3408,3694,3185,2152,0,625,414,0,0,0,0,0,0,0,0,3.165,4.197,8.792,0.300,-0.022,-0.283,3.445,-9.323,14.837,1.011,-0.941,-4.171,angry
6.95,2893,3531,3760,3325,1917,0,189,0,0,0,0,0,0,0,0,0,3.273,4.056,8.626,0.399,-0.044,-0.351,3.189,-13.194,17.573,1.434,-0.913,-4.518,angry
6.96,3067,3582,3789,3391,1612,0,52,0,0,0,0,0,0,0,0,0,2.569,4.542,8.952,0.439,-0.116,-0.403,-2.701,-12.673,14.913,1.827,-1.181,-4.707,angry
6.97,3221,3623,3817,3452,1199,0,0,0,0,0,0,0,0,0,0,0,2.938,3.378,8.617,0.537,-0.090,-0.416,-4.137,-15.268,9.998,1.710,-1.174,-4.480,angry
6.98,3350,3654,3842,3503,1092,0,0,0,0,0,0,0,0,0,0,0,3.730,3.831,8.657,0.694,-0.083,-0.401,-6.404,-17.418,7.089,1.436,-0.664,-4.044,angry
6.99,3475,3675,3861,3523,888,0,0,0,0,0,0,0,0,0,0,0,3.761,4.432,7.879,0.799,0.043,-0.523,-9.297,-19.613,4.673,1.233,-0.151,-3.288,angry
7.00,3575,3696,3887,3563,1046,0,0,0,0,41,214,0,0,0,0,0,2.622,4.597,9.275,1.038,-0.168,-0.383,-9.579,-19.613,-0.333,0.622,0.214,-2.358,angry
7.01,3707,3690,3893,3583,912,0,0,0,0,0,0,0,0,0,0,0,2.607,4.221,8.780,1.467,-0.043,-0.439,-3.737,-19.613,0.618,-0.710,0.171,-1.247,angry
7.02,3771,3654,3891,3583,682,0,0,0,0,0,0,0,0,22,0,0,3.673,3.994,8.698,1.862,0.019,-0.548,1.733,-18.634,-7.379,-2.366,0.311,-1.772,angry
7.03,3831,3517,3885,3567,841,0,0,0,0,0,0,0,0,0,0,160,3.730,3.244,8.399,2.459,0.060,-0.841,0.113,-19.613,-3.299,-3.056,1.246,-2.020,angry
7.04,3851,2997,3839,3505,826,0,0,0,0,0,0,0,0,0,0,645,4.721,2.990,8.928,3.261,0.148,-1.181,-4.736,7.487,19.613,-2.571,0.807,-1.213,angry
7.05,3877,2506,3737,3280,394,0,0,0,0,0,0,0,0,0,0,1797,5.057,3.311,8.408,4.267,0.288,-1.604,-17.849,7.570,17.171,-5.392,-1.048,-0.750,angry
7.06,3886,2032,3426,2849,99,0,0,0,0,26,0,0,0,0,127,2471,4.015,3.223,10.446,5.041,0.404,-2.201,-1.547,-19.460,19.613,-4.130,-0.136,0.746,angry
7.07,3750,882,2250,2086,0,0,0,0,0,0,0,0,0,0,1631,3337,4.472,8.588,19.192,7.253,0.039,-3.743,4.034,-2.622,10.779,-2.632,-0.006,0.291,angry
7.08,3278,430,844,1415,0,0,0,0,0,0,0,0,0,2,2237,3532,6.558,8.569,18.007,8.145,0.527,-5.007,3.716,-3.812,9.941,-2.356,0.012,0.337,angry
7.09,2455,0,0,64,0,0,0,0,0,0,0,0,0,0,2679,3629,8.851,5.243,19.613,8.731,-0.007,-5.493,19.613,-3.534,15.725,-1.908,1.010,0.588,angry
7.10,1362,0,0,0,0,0,0,0,0,11,0,0,118,0,2871,3695,7.010,8.935,19.613,7.780,0.161,-5.214,0.752,-3.424,10.738,-0.756,1.555,0.762,angry
7.11,454,0,0,0,0,0,0,0,0,0,0,0,207,0,3027,3739,19.613,9.778,19.613,1.184,-0.633,-2.675,0.148,-4.154,13.989,-0.493,1.294,0.579,angry
7.12,374,0,0,0,0,0,0,0,0,0,0,0,283,5,3093,3769,19.613,6.421,10.922,-0.106,-0.495,-0.768,3.733,-3.302,9.622,-0.353,1.227,0.584,angry
7.13,558,0,0,0,0,0,0,0,0,0,0,0,327,0,3125,3796,10.427,-4.005,9.337,-0.401,0.209,0.159,0.259,-2.801,11.538,-0.267,1.096,0.539,angry
7.14,518,0,0,0,0,0,0,0,0,13,0,0,297,0,3132,3813,8.171,-2.004,14.260,-0.793,-1.434,1.104,1.889,-3.175,9.677,-0.229,1.076,0.502,angry
7.15,462,0,0,0,0,0,0,0,0,0,0,27,299,0,3118,3821,9.658,-1.736,14.265,-1.812,-2.126,1.755,1.611,-3.311,10.060,-0.199,0.840,0.456,angry
7.16,417,0,0,0,0,0,0,0,0,5,0,87,218,0,3078,3829,6.519,-0.251,14.669,-3.117,-1.758,2.202,1.781,-3.122,9.864,-0.225,0.709,0.404,angry
7.17,302,0,0,0,0,0,0,0,0,0,0,181,113,0,3015,3816,-0.682,-0.804,14.626,-4.154,-2.015,2.242,0.788,-2.720,10.072,-0.226,0.629,0.378,angry
7.18,265,0,0,0,0,0,0,0,0,0,0,463,115,0,2917,3795,-3.847,-0.740,12.577,-4.729,-2.678,1.890,1.709,-2.586,9.436,-0.257,0.540,0.409,angry
7.19,271,0,0,0,0,0,0,0,0,0,2,612,133,0,2772,3759,-2.576,0.733,10.362,-5.013,-2.683,1.585,-0.402,-1.554,11.387,-0.296,0.320,0.472,angry
7.20,206,0,0,0,0,0,0,0,0,39,0,1033,59,0,2464,3717,-2.064,2.495,11.138,-5.203,-2.275,1.480,1.472,-3.172,9.814,-0.236,0.319,0.493,angry
7.21,174,0,0,0,0,0,0,0,0,0,0,1495,56,0,2147,3640,-1.532,4.566,13.094,-5.379,-2.066,1.655,1.128,-3.033,9.996,-0.202,0.340,0.522,angry
7.22,171,0,0,0,0,0,0,0,0,0,0,1661,127,1,2030,3561,-0.443,6.045,13.637,-5.448,-1.904,2.096,0.915,-2.796,9.663,-0.204,0.328,0.569,angry
7.23,165,0,0,0,0,0,0,0,0,0,0,1941,143,0,1869,3495,-0.781,6.610,14.545,-5.485,-1.600,2.541,1.487,-3.026,9.397,-0.197,0.331,0.584,angry
7.24,164,0,0,0,0,0,0,0,0,0,0,2237,171,0,1875,3432,-1.468,7.841,16.673,-5.560,-1.297,2.849,1.657,-3.778,10.020,-0.192,0.266,0.501,angry
7.25,150,0,0,0,0,0,0,0,0,0,0,2391,138,0,1737,3384,-1.015,8.950,18.177,-5.602,-0.996,3.026,1.362,-2.854,9.337,-0.179,0.259,0.519,angry
7.26,144,0,0,0,0,0,0,0,191,0,0,2577,217,0,1659,3325,0.613,10.204,18.933,-5.639,-0.525,3.181,1.185,-3.733,9.814,-0.213,0.306,0.475,angry
7.27,180,0,0,0,0,0,0,0,397,0,0,2700,260,0,1429,3259,3.472,12.143,19.613,-5.582,0.111,3.348,0.869,-3.371,9.838,-0.277,0.248,0.436,angry
7.28,187,0,0,0,0,0,0,0,1000,16,0,2903,267,0,1440,3173,4.480,15.771,19.613,-5.555,0.738,3.526,1.219,-4.001,10.293,-0.156,0.252,0.337,angry
7.29,162,0,0,0,0,0,0,0,1276,327,0,3032,287,2,1275,3080,1.137,18.538,19.613,-5.465,1.075,3.405,0.819,-3.438,9.776,-0.222,0.183,0.321,angry
7.30,192,0,0,0,0,0,0,0,1767,555,0,3146,447,3,1118,2965,1.693,19.613,15.328,-4.667,1.176,2.328,2.229,-7.623,7.195,0.157,0.276,0.355,angry
7.31,218,0,0,0,11,0,0,0,2253,623,7,3223,633,3,927,2760,-4.496,19.613,7.099,-4.528,1.414,0.576,0.886,-3.426,9.510,-0.173,0.003,0.346,angry
7.32,359,0,0,0,13,0,0,0,2665,697,0,3319,989,5,575,2455,-15.364,19.613,3.191,-3.569,-1.430,-1.019,0.740,-3.110,9.366,-0.265,-0.100,0.331,angry
7.33,443,0,0,0,80,0,0,0,2940,1100,2,3357,1087,4,333,2036,-2.418,19.613,-11.272,-1.730,-1.531,-1.812,1.374,-3.847,8.803,-0.309,-0.140,0.332,angry
7.34,469,0,0,0,64,0,0,0,3288,1693,0,3493,1261,1,0,501,-5.746,19.613,-8.179,0.918,0.948,-1.799,1.508,-3.397,8.916,-0.645,-0.287,0.169,angry
7.35,372,0,0,0,0,0,0,0,3446,1913,0,3551,1311,0,0,251,0.182,19.613,-9.143,2.221,0.941,-2.263,0.273,-3.658,9.239,-0.602,-0.453,0.266,angry
7.36,240,0,0,0,0,0,0,720,3543,2063,0,3611,841,0,0,429,15.756,7.970,5.739,2.119,1.413,-1.428,0.555,-3.153,9.500,-0.690,-0.483,0.346,angry
7.37,234,0,0,0,163,0,107,2544,3623,2076,0,3670,435,0,0,373,8.442,-13.293,16.712,5.123,-1.715,-0.575,0.649,-3.778,8.957,-0.955,-0.645,0.238,angry
7.38,0,0,0,0,57,0,854,3343,3707,1747,0,3763,103,0,0,39,1.223,17.511,19.613,4.370,-1.133,-0.924,1.597,-2.777,11.004,-2.259,0.318,0.082,angry
7.39,0,0,0,0,317,0,2419,3634,3699,1292,0,3767,0,0,0,55,5.899,5.612,12.823,2.591,-0.038,-1.380,5.320,-3.266,10.307,-4.006,1.037,0.362,angry
7.40,0,79,0,0,895,0,2926,3712,3605,885,0,3733,0,0,0,55,8.686,11.988,19.613,1.708,1.819,-1.804,0.970,-5.464,8.856,-5.390,2.086,0.973,angry
7.41,0,905,0,0,1474,0,3179,3771,3161,0,0,3475,0,6,0,6,3.704,5.456,10.190,0.751,2.374,-1.032,4.520,-5.164,10.999,-7.260,2.863,2.782,angry
7.42,0,1738,110,0,1755,0,3314,3823,2793,6,0,2709,0,0,0,0,0.436,6.302,19.613,0.849,1.122,-0.739,19.613,-1.709,19.613,-7.355,3.364,5.966,angry
7.43,0,2415,1902,784,2083,0,3440,3855,0,0,30,444,0,0,0,0,2.969,4.750,11.413,0.492,0.499,-0.406,12.969,-4.559,19.613,-4.543,6.644,5.337,angry
7.44,40,2709,2559,1283,2373,0,3509,3841,0,0,0,23,0,0,0,0,3.359,4.580,9.898,0.326,0.097,-0.173,19.613,-4.831,19.613,-1.148,0.333,-0.734,angry
7.45,125,2931,2854,1603,2557,0,3515,3757,0,0,0,11,3,0,0,0,3.230,3.934,9.242,0.253,-0.078,-0.086,19.613,0.903,14.772,0.014,-0.254,-2.558,angry
7.46,237,3106,3048,1749,2803,0,3504,3615,0,0,0,0,0,0,0,0,3.369,3.349,8.729,0.278,-0.065,-0.101,-0.158,3.783,11.662,1.233,-1.411,-2.853,angry
7.47,286,3242,3191,1805,2922,0,3370,3255,0,0,0,0,0,0,0,0,3.764,3.603,8.696,0.350,-0.043,-0.157,0.168,0.663,14.686,2.880,-1.640,-1.530,angry
7.48,323,3392,3279,1930,2965,0,3144,2709,0,21,0,0,0,0,0,0,3.630,3.716,8.775,0.370,-0.104,-0.193,-0.230,-1.221,13.944,3.764,-1.583,-1.061,angry
7.49,464,3476,3355,2055,2935,0,2864,1997,4,0,0,0,0,0,0,0,3.555,3.639,8.636,0.406,-0.153,-0.244,3.318,-2.535,8.071,4.360,-1.708,-1.229,angry
7.50,498,3568,3425,2162,2853,0,2448,1008,0,0,0,0,0,0,0,0,3.498,3.915,8.432,0.354,-0.094,-0.283,3.026,-4.688,11.155,4.387,-2.004,-2.247,angry
7.51,577,3633,3503,2274,2773,0,2064,418,0,0,0,0,0,0,0,0,3.515,3.845,8.394,0.289,-0.087,-0.331,2.205,-5.274,12.699,4.507,-2.317,-2.571,angry
7.52,768,3696,3563,2367,2757,0,1652,0,0,0,0,0,0,0,0,0,3.579,4.331,8.231,0.150,-0.050,-0.324,-0.139,-6.364,15.538,4.830,-2.508,-2.487,angry
7.53,901,3730,3615,2427,2751,0,1456,0,0,0,2,16,0,0,0,0,3.505,4.336,8.282,0.036,-0.002,-0.285,-1.389,-6.955,17.126,4.933,-2.725,-2.377,angry
7.54,1339,3775,3691,2694,2707,0,1263,0,0,0,0,0,0,0,0,0,3.476,4.451,8.437,-0.039,0.003,-0.241,-3.419,-10.077,19.613,5.166,-3.399,-2.013,angry
7.55,1904,3825,3756,2880,2800,0,1143,0,0,0,0,0,0,0,0,0,3.409,4.118,8.437,0.017,0.019,-0.224,-4.453,-13.194,19.613,5.255,-3.518,-1.863,angry
7.56,2416,3900,3807,3030,2651,0,767,0,0,0,0,0,0,4,0,0,3.498,3.654,8.717,0.189,-0.034,-0.178,-1.197,-19.613,15.826,4.840,-2.249,-1.756,angry
7.57,2787,3967,3861,3151,2301,0,438,0,0,0,0,0,0,0,0,0,3.218,3.941,8.329,0.536,0.015,-0.169,-10.479,-19.613,-1.346,2.321,-1.603,-0.548,angry
7.58,3097,4023,3914,3232,2011,0,345,0,0,0,0,0,0,0,0,0,3.632,3.989,8.387,0.957,0.148,-0.115,-5.909,-19.613,-2.739,0.994,-1.971,-0.760,angry
7.59,3248,4044,3933,3294,1733,0,246,0,0,0,0,0,0,0,0,0,3.486,4.008,8.631,1.208,0.144,-0.143,-4.537,-19.613,-2.598,-0.246,-0.464,-1.621,angry
7.60,3503,4064,3958,3344,1217,0,163,0,0,0,0,0,0,0,0,0,3.764,3.893,8.420,1.615,0.157,-0.277,-8.203,-19.613,3.551,-2.113,0.583,-0.887,angry
7.61,3632,4059,3957,3362,959,0,81,0,0,0,0,0,0,0,0,0,3.596,3.560,8.598,2.028,0.148,-0.338,5.818,-7.968,11.736,-2.300,3.423,-1.280,angry
7.62,3726,4038,3952,3373,783,0,0,0,0,37,0,0,0,0,0,103,3.862,2.954,8.772,2.603,0.396,-0.474,-2.389,15.033,19.613,-3.152,1.317,-1.100,angry
7.63,3791,3980,3921,3353,688,0,0,0,0,18,0,0,0,37,0,749,4.911,3.512,8.662,3.429,0.618,-0.779,-10.489,3.862,5.253,-4.469,0.721,0.013,angry
7.64,3830,3825,3843,3258,611,0,0,0,0,0,0,0,7,0,0,1493,6.041,3.692,8.796,4.527,0.705,-1.227,-7.362,-9.946,19.613,-4.018,1.109,1.140,angry
7.65,3837,2951,3648,3022,426,0,0,0,0,0,0,0,0,0,269,2027,4.092,1.288,12.091,5.565,0.418,-1.760,-3.412,-9.170,18.366,-3.293,0.897,1.100,angry
7.66,3648,2040,2386,2177,0,0,0,0,0,0,0,0,0,0,1783,3046,7.570,12.742,19.613,7.531,-1.011,-3.442,9.242,-4.496,10.515,-2.822,0.064,0.517,angry
7.67,2418,673,0,83,0,0,0,0,0,0,0,0,3,0,2410,3407,10.003,4.154,19.613,8.263,-0.791,-5.669,7.211,-4.393,17.614,-2.106,0.031,0.654,angry
7.68,1239,0,0,0,0,0,0,0,0,0,0,0,159,0,2713,3632,12.110,15.253,19.613,7.438,-0.462,-6.175,2.025,-8.722,8.894,-1.346,1.671,0.594,angry
7.69,611,0,0,0,0,0,0,0,0,0,0,0,339,0,2887,3703,19.613,10.585,19.613,0.980,-1.211,-4.181,-0.697,-3.057,13.113,-0.745,1.580,0.841,angry
7.70,587,0,0,0,0,0,0,0,0,0,0,0,1018,0,3161,3782,19.613,14.540,14.636,-1.196,0.633,-2.169,0.735,-4.278,12.110,-0.346,1.219,0.649,angry
7.71,748,0,0,0,0,0,0,0,0,0,0,0,1299,0,3275,3806,17.873,-4.899,9.883,-1.340,2.285,-0.966,3.974,-3.402,9.361,-0.314,1.121,0.633,angry
7.72,773,0,0,0,7,0,0,0,0,8,0,25,1741,0,3379,3839,11.868,-4.219,11.495,-1.531,0.832,0.556,0.378,-2.938,12.424,-0.405,0.644,0.499,angry
7.73,778,0,0,0,0,0,0,0,0,0,0,87,2083,0,3420,3783,12.668,-3.570,9.685,-1.560,-0.339,1.570,1.750,-2.701,10.116,-0.264,0.645,0.392,angry
7.74,616,0,0,0,0,0,0,0,0,0,0,228,2298,0,3469,3837,12.021,-0.441,11.949,-2.297,-0.555,2.479,1.781,-3.256,9.931,-0.238,0.471,0.319,angry
7.75,511,0,0,0,0,0,0,0,0,29,0,536,2489,0,3497,3818,8.748,0.570,11.574,-3.292,-0.451,3.162,1.923,-2.686,9.653,-0.230,0.389,0.233,angry
7.76,363,0,0,0,0,0,0,0,0,0,0,755,2663,0,3479,3771,4.386,0.515,9.907,-3.929,-0.521,3.372,2.456,-2.808,9.366,-0.259,0.412,0.226,angry
7.77,275,0,0,0,0,0,0,0,0,7,0,940,2715,0,3411,3719,1.705,1.307,9.172,-4.293,-0.808,3.198,2.325,-3.108,9.720,-0.270,0.406,0.236,angry
7.78,176,0,0,0,0,0,0,0,0,151,0,1189,2741,0,3300,3628,1.836,3.120,9.878,-4.597,-0.988,2.852,2.308,-2.868,9.488,-0.265,0.419,0.243,angry
7.79,92,0,0,0,0,0,0,0,0,453,0,1311,2683,3,3161,3517,3.577,5.490,10.326,-4.915,-0.859,2.655,2.157,-2.729,9.268,-0.260,0.409,0.274,angry
7.80,130,0,0,0,0,0,0,0,1,481,25,1629,2533,0,3017,3385,3.917,7.355,11.760,-5.231,-0.783,2.576,1.738,-2.875,9.747,-0.269,0.349,0.389,angry
7.81,186,0,0,0,0,0,0,0,0,343,0,1710,2467,0,2734,3283,3.752,8.784,12.819,-5.460,-1.023,2.610,1.676,-3.021,9.534,-0.289,0.266,0.426,angry
7.82,203,0,0,0,0,0,0,0,22,471,0,2043,2362,3,2377,3158,4.578,10.348,12.989,-5.651,-1.235,2.645,1.518,-3.129,9.495,-0.252,0.240,0.446,angry
7.83,227,0,0,0,0,0,0,0,127,568,5,2167,2257,3,2142,3054,6.747,11.914,13.422,-5.756,-1.178,2.733,1.580,-3.546,9.708,-0.224,0.204,0.407,angry
7.84,245,0,0,0,0,0,0,0,215,599,2,2395,2185,5,2075,2984,8.459,13.484,14.224,-5.668,-0.998,3.064,1.358,-3.388,9.807,-0.165,0.189,0.387,angry
7.85,237,0,0,0,0,0,0,0,351,709,5,2491,2175,0,2039,2890,7.640,14.344,16.336,-5.434,-1.114,3.429,1.571,-2.976,9.345,-0.208,0.136,0.433,angry
7.86,247,0,0,0,0,0,0,0,721,799,7,2611,2197,4,1717,2839,6.337,16.039,19.570,-5.211,-1.556,3.639,1.791,-3.278,9.586,-0.149,0.102,0.296,angry
7.87,208,0,0,0,0,0,0,0,937,821,7,2790,2195,5,1673,2671,6.148,19.350,19.613,-5.192,-1.754,3.560,1.585,-3.242,9.199,-0.265,0.095,0.248,angry
7.88,238,0,0,0,14,0,0,0,1285,1110,5,2887,2232,5,1709,2439,3.476,19.613,18.000,-4.967,-1.711,3.226,1.434,-3.378,9.426,-0.211,0.065,0.157,angry
7.89,276,0,0,0,167,0,0,0,1919,1643,2,3048,2515,6,1415,1703,-7.889,19.613,0.000,-3.386,-1.791,2.004,1.595,-2.806,9.074,-0.225,0.043,0.101,angry
7.90,411,0,0,0,223,0,0,0,2572,1978,2,3243,2809,2,490,1189,-14.447,19.613,-7.207,-1.683,-1.448,-0.046,1.805,-3.524,9.639,-0.176,0.067,0.142,angry
7.91,432,0,0,0,257,0,0,0,2781,2228,2,3302,2751,4,121,559,-8.392,19.613,-9.177,0.297,0.508,-1.080,1.822,-3.067,9.663,-0.345,0.123,0.098,angry
7.92,275,0,0,0,0,0,0,0,3169,2511,0,3553,2005,1,0,567,-1.231,19.283,-11.375,3.357,1.491,-1.424,1.410,-2.909,8.981,-0.619,0.112,-0.047,angry
7.93,0,0,0,0,14,0,133,370,3301,2581,0,3550,1415,98,1,523,12.060,5.164,19.613,2.094,2.333,-0.447,1.923,-3.455,8.662,-0.800,0.099,-0.084,angry
7.94,0,0,0,0,266,0,1013,2838,3507,2443,0,3632,455,0,0,249,-7.831,-6.029,0.675,6.246,-1.187,-1.874,0.769,-2.562,10.927,-2.007,0.009,-0.156,angry
7.95,0,33,0,0,435,0,2448,3414,3565,2152,7,3635,223,21,0,78,7.654,18.426,10.238,3.059,-0.323,-1.778,2.361,-1.317,10.527,-3.490,0.305,-0.229,angry
7.96,0,277,0,0,1451,0,3248,3611,3579,825,0,3445,37,0,0,25,17.181,17.269,7.645,1.621,2.151,-1.508,4.295,-1.504,10.515,-6.814,1.253,0.973,angry
7.97,0,1767,0,0,2187,0,3479,3679,3019,0,0,2707,0,0,0,4,4.506,6.574,12.658,0.652,2.581,-1.334,13.290,-9.057,19.613,-8.731,0.572,4.533,angry
7.98,0,2343,145,0,2538,0,3525,3721,2031,0,0,1279,0,0,0,0,2.512,5.164,13.853,0.617,2.191,-0.975,7.702,-10.702,19.613,-8.731,1.595,4.978,angry
7.99,16,2799,2054,503,2861,0,3607,3760,99,0,0,439,0,0,0,0,4.724,5.454,10.048,0.654,0.878,-0.572,4.506,-19.613,19.613,-5.907,3.030,5.061,angry
8.00,185,3088,2679,1003,3057,0,3654,3718,0,0,0,0,0,0,0,0,3.656,4.365,9.819,0.359,0.151,-0.202,19.613,-5.121,19.613,-0.168,-0.647,3.829,angry
8.01,257,3253,2921,1163,3225,0,3667,3570,0,0,0,42,0,0,0,0,3.373,4.283,9.646,0.222,-0.165,0.004,17.581,4.410,8.497,2.018,0.067,-0.061,angry
8.02,263,3312,2989,971,3297,0,3637,3450,0,0,0,5,0,0,0,0,3.962,4.017,8.837,0.162,-0.229,0.074,12.804,3.421,9.215,1.967,-1.155,-1.732,angry
8.03,206,3346,3014,793,3329,0,3583,3280,0,0,0,0,0,0,0,0,4.250,3.519,8.217,0.141,-0.229,0.071,9.809,0.948,10.118,2.578,-1.179,-2.764,angry
8.04,272,3403,3024,682,3354,0,3531,3092,0,0,0,0,0,0,0,0,4.106,3.783,8.478,0.101,-0.315,0.088,3.560,0.012,11.528,3.256,-1.169,-3.196,angry
8.05,290,3425,3010,491,3363,0,3443,2889,0,0,0,0,3,0,0,0,3.953,3.893,8.643,0.060,-0.358,0.100,-1.709,-0.979,12.390,3.987,-1.381,-3.024,angry
8.06,257,3463,2957,337,3328,0,3310,2517,0,0,0,0,0,0,0,0,4.022,3.651,8.492,0.034,-0.385,0.120,-3.038,-1.820,11.650,4.619,-1.543,-2.462,angry
8.07,187,3486,2912,220,3264,0,3159,2000,0,0,0,0,0,0,0,0,3.948,3.354,8.004,-0.010,-0.205,0.083,-2.009,-3.675,10.446,5.341,-1.430,-1.397,angry
8.08,82,3505,2944,196,3250,0,3060,1408,0,0,0,0,0,0,0,0,4.178,3.297,7.719,0.003,0.069,-0.062,1.456,-6.074,12.874,5.743,-1.720,-1.328,angry
8.09,95,3523,2996,201,3264,0,3031,1088,0,0,0,0,0,0,0,0,4.046,3.084,7.594,-0.003,0.231,-0.163,1.745,-6.687,14.475,5.865,-1.935,-1.579,angry
8.10,5,3536,3056,365,3263,0,2943,911,0,0,0,0,0,0,0,0,4.108,2.717,7.271,0.019,0.405,-0.311,1.132,-7.479,16.606,5.975,-2.212,-1.809,angry
8.11,65,3575,3134,578,3263,0,2836,848,0,0,0,0,0,0,0,0,4.187,2.923,7.197,0.055,0.468,-0.466,0.287,-8.126,18.957,5.955,-2.413,-1.929,angry
8.12,86,3637,3248,1013,3248,0,2737,811,0,13,0,0,0,0,0,0,5.152,2.298,6.404,0.227,0.579,-0.665,-0.488,-9.500,19.613,6.060,-2.468,-1.847,angry
8.13,491,3772,3503,1893,3387,0,2671,752,0,0,0,0,0,0,0,0,3.407,3.651,8.729,0.384,0.342,-0.600,-0.680,-11.284,19.613,6.290,-2.289,-1.545,angry
8.14,1291,3868,3673,2458,3472,0,2511,384,0,0,0,0,0,0,0,3,3.524,4.094,9.347,0.505,0.073,-0.447,-1.544,-19.613,19.422,5.396,-2.214,-0.900,angry
8.15,1943,3973,3775,2745,3312,0,1733,0,0,0,0,5,0,0,0,0,3.907,3.915,8.315,0.489,0.026,-0.290,-8.734,-19.613,-3.184,2.226,-2.095,-0.847,angry
8.16,2482,4049,3850,2948,2352,0,677,0,0,0,0,0,0,0,0,0,3.366,2.167,8.308,1.102,0.119,-0.255,-10.518,-19.613,-5.626,0.844,-2.118,-0.844,angry
8.17,2917,4092,3923,3098,1697,0,660,0,0,0,0,0,0,0,0,0,4.166,3.689,8.763,1.610,0.288,-0.341,-13.003,-19.613,-6.160,-1.204,0.240,-0.742,angry
8.18,3293,4095,3953,3206,1088,0,540,0,0,0,0,0,0,0,0,7,4.245,3.484,8.820,2.346,0.374,-0.516,2.421,-8.143,19.264,-1.440,3.360,-0.633,angry
8.19,3489,4079,3959,3251,881,0,386,0,0,0,0,0,0,0,0,473,4.994,2.610,8.818,3.044,0.561,-0.679,-1.137,19.613,19.613,-3.837,0.475,-0.159,angry
8.20,3630,3989,3917,3263,387,0,228,0,0,0,0,0,0,0,0,1273,6.711,3.663,8.583,4.240,0.867,-1.014,-3.354,-3.318,7.685,-5.150,0.103,0.262,angry
8.21,3728,3707,3819,3137,272,0,0,0,0,0,0,0,0,0,0,1975,6.871,3.445,9.076,5.487,1.007,-1.621,-4.618,-16.537,19.613,-4.085,0.544,0.099,angry
8.22,3706,2589,3398,2817,0,0,0,0,0,0,0,0,0,0,355,2601,4.592,4.345,17.188,6.949,0.071,-2.619,-8.461,0.237,17.411,-3.411,0.347,0.656,angry
8.23,3657,2119,2410,1845,0,0,0,0,0,0,0,0,0,0,1076,3101,9.184,14.664,19.613,8.436,-0.579,-4.049,9.055,-3.812,9.072,-3.140,0.138,0.985,angry
8.24,2913,982,1007,791,0,0,0,0,0,0,0,0,0,0,1607,3488,12.151,8.370,19.613,8.731,0.314,-6.108,9.364,-8.653,11.609,-2.828,0.540,0.564,angry
8.25,1936,478,0,0,0,0,0,0,0,0,7,0,7,0,2523,3657,15.488,13.180,19.613,8.443,0.176,-7.105,15.352,-3.213,19.613,-1.906,1.238,0.907,angry
8.26,960,0,0,0,0,0,0,0,0,0,0,5,127,0,2751,3769,8.918,19.613,19.613,4.866,-0.536,-5.760,4.214,-6.033,8.954,-0.988,1.838,0.783,angry
8.27,167,0,0,0,0,0,0,0,0,0,104,23,206,0,2901,3727,19.613,3.086,19.613,-0.066,0.153,-4.764,-2.892,-5.753,15.337,-0.635,1.346,0.661,angry
8.28,615,0,0,0,0,0,0,0,0,0,0,183,191,0,3015,3859,19.613,-5.909,10.125,-1.830,1.610,-2.034,4.077,-4.154,8.947,-0.249,1.098,0.610,angry
8.29,732,0,0,0,0,0,0,0,0,0,0,299,297,0,3049,3865,17.164,-5.241,9.134,-1.528,1.564,-0.403,1.408,-3.646,9.495,-0.308,0.642,0.435,angry
8.30,755,0,0,0,0,0,0,0,0,0,0,695,327,47,3097,3909,12.888,-2.227,12.220,-1.600,-0.156,1.003,-0.232,-1.793,10.139,-0.236,0.494,0.411,angry
8.31,751,0,0,0,0,0,0,0,0,0,0,1049,329,0,3109,3899,14.025,-1.776,8.380,-1.872,-1.012,2.141,1.990,-3.340,10.144,-0.186,0.573,0.426,angry
8.32,656,0,0,0,0,0,0,0,0,0,0,1341,215,0,3064,3879,11.863,0.637,9.828,-2.503,-0.808,3.029,0.462,-2.677,10.953,-0.259,0.369,0.424,angry
8.33,491,0,0,0,0,0,0,0,0,0,20,1567,213,0,2996,3852,7.099,1.798,11.001,-3.275,-0.932,3.685,1.978,-3.268,9.692,-0.193,0.296,0.374,angry
8.34,299,0,0,0,0,0,0,0,0,0,0,1740,275,0,2852,3805,2.926,1.834,9.979,-3.903,-1.357,3.958,2.394,-3.156,9.586,-0.187,0.246,0.327,angry
8.35,191,0,0,0,0,0,0,0,0,0,0,1772,221,0,2607,3739,0.218,2.109,9.967,-4.298,-1.758,3.852,1.973,-2.861,9.249,-0.187,0.202,0.295,angry
8.36,183,0,0,0,0,0,0,0,0,0,0,1993,152,37,2227,3732,-0.038,3.723,11.365,-4.733,-1.930,3.501,1.757,-2.950,9.270,-0.138,0.191,0.293,angry
8.37,158,0,0,0,0,0,0,0,0,0,0,2163,169,0,1947,3555,0.644,5.511,11.993,-5.261,-1.792,3.101,1.695,-2.703,9.565,-0.177,0.200,0.307,angry
8.38,198,0,0,0,0,0,0,0,0,0,0,2277,179,0,1639,3475,1.765,7.513,13.443,-5.731,-1.576,2.776,1.425,-2.806,9.450,-0.139,0.199,0.316,angry
8.39,143,0,0,0,0,0,0,0,0,11,0,2455,265,0,1567,3389,3.493,9.328,14.212,-6.099,-1.499,2.643,1.276,-2.756,9.579,-0.193,0.180,0.314,angry
8.40,188,0,0,0,0,0,0,0,62,0,0,2539,317,0,1407,3321,5.495,11.272,14.518,-6.282,-1.493,2.755,1.164,-2.816,9.335,-0.263,0.115,0.325,angry
8.41,232,0,0,0,0,0,0,0,198,0,43,2681,303,0,1417,3247,8.543,13.549,16.123,-6.124,-1.541,3.166,0.939,-2.931,9.627,-0.349,0.067,0.355,angry
8.42,272,0,0,0,0,0,0,0,350,0,46,2823,437,0,1331,3213,10.963,15.493,19.367,-6.026,-1.525,3.793,0.800,-3.000,9.527,-0.370,0.023,0.342,angry
8.43,277,0,0,0,0,0,0,0,711,1,0,2941,687,0,1307,3064,14.712,19.003,19.613,-5.776,-1.437,4.263,1.056,-3.819,9.720,-0.314,-0.035,0.239,angry
8.44,294,0,0,0,0,0,0,0,1005,407,7,2985,965,3,1436,2925,16.309,19.613,19.613,-5.469,-1.119,4.753,1.161,-3.859,9.692,-0.294,-0.092,0.149,angry
8.45,402,0,0,0,21,0,0,0,1343,658,7,3153,1514,5,1295,2739,-2.145,19.613,8.205,-4.232,-2.160,4.336,1.415,-3.223,9.697,-0.226,-0.078,0.112,angry
8.46,400,0,0,0,166,0,0,0,2264,1365,2,3359,2366,22,825,1516,-16.233,19.613,-10.664,-1.680,-1.833,2.578,1.317,-3.543,9.625,-0.313,-0.326,0.089,angry
8.47,400,0,0,0,317,0,0,0,2966,1903,0,3530,2648,3,11,741,-14.940,19.613,-10.252,0.557,-0.050,0.290,1.001,-3.517,9.079,-0.463,0.018,0.060,angry
8.48,415,0,0,0,113,0,0,0,3227,2166,0,3611,2155,2,1,439,-3.481,19.613,-2.909,1.696,0.826,-1.638,1.741,-2.198,9.258,-0.491,0.118,-0.003,angry
8.49,55,0,0,0,0,0,48,243,3509,2439,2,3638,1365,22,0,521,14.842,14.368,18.584,2.618,2.549,0.292,1.276,-3.096,9.388,-0.830,-0.055,-0.131,angry
8.50,52,0,0,0,255,0,920,2890,3661,2295,0,3775,339,2,0,227,-16.089,-8.370,7.441,6.292,-1.207,-1.122,1.008,-1.891,10.649,-2.587,-0.067,-0.186,angry
8.51,0,0,0,0,411,0,2384,3422,3720,1870,0,3742,269,0,0,119,4.288,19.613,15.897,3.737,-0.979,-1.742,2.765,-2.416,8.475,-4.350,0.305,-0.142,angry
8.52,0,582,0,0,1485,0,3297,3623,3675,467,0,3474,4,0,0,101,11.827,18.155,7.436,1.706,2.205,-1.720,4.264,-1.537,12.878,-8.060,2.175,1.962,angry
8.53,0,2463,7,0,2382,0,3536,3737,2163,1,0,2132,0,0,0,19,3.814,5.660,15.285,0.705,2.727,-1.658,12.014,-0.532,19.613,-8.731,2.055,6.488,angry
8.54,298,3061,2271,575,2917,0,3601,3750,171,0,0,637,0,0,75,0,2.940,5.892,9.620,0.853,1.174,-0.991,-4.901,-11.011,19.613,-6.882,2.147,6.002,angry
8.55,560,3340,3007,1328,3067,0,3616,3685,0,0,0,0,0,0,0,0,4.872,4.245,8.224,0.565,0.229,-0.439,19.613,-1.827,19.613,-0.738,-0.470,3.887,angry
8.56,786,3504,3235,1841,3216,0,3571,3482,0,1,0,0,7,0,0,0,3.682,4.827,9.455,0.332,-0.008,-0.144,17.748,5.466,14.562,1.867,-1.200,-0.047,angry
8.57,898,3623,3361,1998,3284,0,3423,3113,0,0,0,0,0,0,0,0,3.926,3.917,8.566,0.322,-0.059,-0.099,13.465,4.106,10.676,2.303,-2.053,-1.567,angry
8.58,1023,3695,3442,2042,3218,0,3120,2530,0,0,0,0,0,0,0,0,3.955,3.685,8.191,0.343,0.051,-0.155,-0.069,2.076,13.048,3.827,-2.465,-2.551,angry
8.59,1105,3734,3497,2145,2980,0,2751,1118,0,0,0,0,0,0,0,0,4.288,4.130,8.698,0.391,0.041,-0.259,-4.520,-0.776,12.225,4.968,-2.635,-1.650,angry
8.60,1194,3779,3555,2247,2619,0,1956,0,0,0,0,0,0,0,0,0,3.553,4.092,8.401,0.416,0.042,-0.336,-3.677,-1.671,11.310,5.399,-2.439,-1.206,angry
8.61,1250,3792,3583,2305,2231,0,1150,0,0,4,0,0,0,0,0,0,3.390,4.053,8.523,0.325,0.034,-0.381,-2.828,-3.405,13.233,5.568,-2.432,-0.977,angry
8.62,1368,3814,3619,2382,1969,0,718,0,0,0,0,0,0,0,0,0,3.654,4.745,8.236,0.262,0.017,-0.424,-1.360,-4.405,15.021,5.770,-2.534,-0.978,angry
