timestamp,L1,L2,L3,L4,L5,L6,L7,L8,R1,R2,R3,R4,R5,R6,R7,R8,acc_x_left,acc_y_left,acc_z_left,gyro_x_left,gyro_y_left,gyro_z_left,acc_x_right,acc_y_right,acc_z_right,gyro_x_right,gyro_y_right,gyro_z_right,mood
0.00,3409,3397,0,2352,3058,0,1979,0,1579,2558,0,2501,2585,1659,1561,3121,3.677,4.329,8.212,0.124,0.029,-0.037,-1.429,-2.758,9.938,-0.728,0.507,0.234,angry
0.01,3431,3406,0,2431,2992,0,1717,0,1579,2591,0,2493,2585,1655,1559,3117,3.565,4.307,8.447,0.140,0.029,-0.059,-0.941,-3.986,9.637,-0.630,0.556,0.322,angry
0.02,3442,3408,0,2452,2942,0,1392,0,1579,2566,0,2488,2583,1656,1553,3125,3.601,4.652,8.143,0.076,0.018,-0.037,0.273,-3.675,9.139,-0.563,0.653,0.432,angry
0.03,3479,3418,0,2483,2937,0,1328,0,1579,2571,12,2493,2587,1659,1563,3157,3.701,4.475,8.147,0.039,0.046,-0.021,0.077,-4.338,9.723,-0.533,0.719,0.413,angry
0.04,3505,3424,0,2506,2942,0,1296,0,1577,2567,0,2503,2588,1659,1563,3122,3.539,4.374,8.289,0.089,0.052,-0.040,1.116,-4.281,9.464,-0.376,0.768,0.362,angry
0.05,3527,3440,0,2583,2874,0,1065,0,1579,2565,0,2503,2587,1658,1563,3117,3.620,4.525,8.210,0.115,0.086,-0.033,1.348,-4.542,9.100,-0.325,0.798,0.311,angry
0.06,3546,3431,0,2659,2735,0,719,0,1580,2557,0,2494,2587,1657,1561,3119,3.531,4.434,8.337,0.139,0.101,-0.034,1.671,-4.393,7.906,-0.302,0.831,0.096,angry
0.07,3570,3429,0,2688,2559,0,655,0,1579,2557,0,2495,2585,1658,1561,3116,3.335,4.657,8.205,0.069,0.058,-0.023,2.557,-4.949,9.402,-0.292,0.721,-0.246,angry
0.08,3583,3422,0,2711,2460,0,725,0,1581,2565,0,2501,2588,1659,1563,3122,3.388,4.606,8.334,0.007,0.075,-0.007,2.892,-4.901,9.136,-0.098,0.698,-0.454,angry
0.09,3607,3399,0,2733,2237,0,845,0,1579,2567,0,2501,2587,1660,1563,3123,3.505,4.372,8.337,0.020,0.075,-0.006,3.057,-4.106,7.424,-0.263,0.571,-0.819,angry
0.10,3618,3389,0,2704,1999,0,843,0,1580,2573,0,2506,2591,1645,1568,3127,3.491,4.424,8.545,0.060,0.076,-0.011,3.316,-5.076,7.875,-0.333,0.535,-1.331,angry
0.11,3580,3318,0,2613,1945,0,853,0,1578,2568,0,2504,2591,1663,1567,3125,3.457,4.602,8.286,-0.015,0.079,-0.010,2.634,-4.659,6.381,-0.412,0.478,-1.534,angry
0.12,3618,3270,0,2627,1966,0,1023,150,1577,2535,0,2493,2585,1656,1559,3165,3.397,4.374,8.365,-0.025,0.105,0.008,2.557,-4.353,6.381,-0.756,0.320,-1.842,angry
0.13,3604,3145,0,2626,1799,0,1257,491,0,0,0,0,0,0,0,0,3.340,4.539,8.349,-0.041,0.112,0.009,1.547,-5.684,9.148,-0.518,0.144,-1.844,angry
0.14,3578,2938,0,2641,1866,0,1438,831,1578,2584,0,2503,2591,1659,1563,3113,3.371,4.575,8.394,-0.073,0.128,0.028,0.280,-4.717,8.353,-0.354,0.380,-1.642,angry
0.15,3541,2839,0,2693,1712,0,1657,1386,1577,2557,0,2495,2587,1652,1560,3097,3.481,4.254,8.428,-0.088,0.169,0.033,1.104,-4.439,9.366,-0.036,0.397,-1.477,angry
0.16,3485,2864,0,2655,1776,0,1968,2017,1579,2568,0,2502,2585,1657,1561,3123,3.081,4.118,8.811,-0.100,0.160,0.044,2.449,-3.630,11.916,0.889,0.237,-1.641,angry
0.17,3398,2806,0,2663,1798,0,2236,2455,1577,2569,7,2505,2557,1657,1563,3125,2.974,4.144,8.777,-0.177,0.225,0.017,1.353,-2.018,9.658,1.449,0.247,-2.083,angry
0.18,3244,2754,0,2644,1867,0,2423,2791,1578,2569,0,2504,2590,1695,1463,3127,3.048,4.070,9.041,-0.191,0.280,-0.037,3.201,-8.557,11.677,1.697,0.450,-1.551,angry
0.19,3006,2649,0,2384,1913,0,2425,2940,1581,2584,0,2525,2607,1661,1568,3146,3.682,5.203,8.478,-0.302,0.402,-0.079,2.121,-3.177,8.835,1.886,0.108,-0.321,angry
0.20,2495,2336,0,1757,1535,0,2326,2983,1580,2579,5,2523,2602,1647,1567,3151,4.853,6.069,7.626,-0.426,0.443,-0.056,3.326,-5.021,9.737,1.819,0.155,0.432,angry
0.21,1853,1710,0,1049,784,0,1753,2880,2153,1599,33,3076,133,5,16,7,2.646,3.826,9.005,-0.399,0.281,-0.005,1.523,-4.324,9.287,1.720,-0.073,0.601,angry
0.22,1471,985,0,375,507,0,592,1807,2079,1814,48,3194,793,16,16,13,3.984,7.326,8.849,-0.517,0.011,-0.303,0.792,-2.887,7.738,1.120,-0.047,0.558,angry
0.23,1242,496,0,0,614,0,288,0,2079,1820,40,3157,1993,17,43,23,-6.809,19.613,7.570,-1.276,-2.417,-2.922,1.664,-4.259,9.548,0.803,-0.083,0.340,angry
0.24,999,347,0,0,806,0,269,0,2099,1833,43,3281,2431,19,133,17,4.173,18.708,-4.980,-1.397,-2.291,-2.617,1.501,-3.369,9.450,0.700,-0.060,0.241,angry
0.25,863,422,0,0,848,0,328,66,1966,1927,17,3338,2911,63,725,8,3.677,11.909,4.472,-0.800,-1.146,-2.457,1.405,-1.858,10.096,0.063,0.057,-0.009,angry
0.26,777,252,0,0,562,0,107,0,1976,1775,20,3371,2793,11,1271,7,2.459,10.922,6.364,-0.849,-1.282,-2.565,1.058,-3.436,9.641,0.097,0.082,0.001,angry
0.27,713,71,0,0,253,0,0,0,1929,1758,17,3378,2637,11,1416,277,2.969,11.310,6.687,-0.829,-1.372,-2.457,0.931,-3.105,8.657,0.226,0.107,0.012,angry
0.28,615,0,0,0,294,0,0,0,1629,1447,23,3305,2215,17,1973,1525,3.780,5.533,4.283,-0.153,-1.230,-2.257,1.403,-3.184,9.548,0.187,0.133,-0.107,angry
0.29,528,0,0,0,32,0,0,0,879,1236,0,3077,2041,1,2219,2250,4.223,5.310,6.843,0.345,-0.378,-2.314,1.101,-3.409,9.697,0.228,0.168,-0.099,angry
0.30,449,0,0,0,0,0,0,0,371,743,7,2808,1839,7,2339,2493,4.731,4.413,8.368,0.562,-0.321,-2.251,1.305,-3.881,9.076,0.297,0.035,-0.003,angry
0.31,467,0,0,0,0,0,0,0,184,359,7,2293,1653,5,2504,2685,4.563,2.811,11.078,0.642,-0.715,-2.171,1.391,-3.685,9.831,0.358,0.117,-0.271,angry
0.32,528,0,0,0,0,0,0,0,20,105,0,1891,1396,1,2601,2797,4.685,2.215,11.528,0.365,-0.873,-2.100,1.762,-3.809,9.598,0.409,0.062,-0.343,angry
0.33,461,0,0,0,0,0,0,0,7,7,0,1621,1133,0,2718,2925,4.044,0.421,12.249,0.305,-1.222,-2.272,1.506,-4.345,10.104,0.481,-0.017,-0.536,angry
0.34,455,0,0,0,0,0,0,0,0,0,2,1292,1055,0,2741,2955,3.701,-0.060,11.770,0.139,-1.424,-2.323,1.595,-3.579,9.625,0.482,0.018,-0.672,angry
0.35,401,0,0,0,0,0,0,0,0,0,0,970,1013,0,2775,3048,3.783,-0.419,10.345,-0.043,-1.475,-2.455,1.609,-3.840,9.210,0.490,-0.043,-0.962,angry
0.36,404,0,0,0,0,0,0,0,0,0,0,735,794,0,2858,3093,4.123,0.077,10.314,-0.228,-1.466,-2.495,2.818,-4.673,9.060,0.373,-0.033,-1.326,angry
0.37,375,0,0,0,0,0,0,0,0,0,0,557,701,0,2871,3149,5.636,0.031,9.203,-0.373,-1.200,-2.498,3.548,-4.709,8.665,0.290,0.037,-1.719,angry
0.38,374,0,0,0,0,0,0,0,2,0,0,407,658,0,2935,3159,6.847,-1.820,9.625,-0.454,-1.020,-2.438,3.048,-4.247,8.624,0.157,0.123,-2.123,angry
0.39,315,0,0,0,0,0,0,0,0,0,0,375,663,0,2996,3171,7.374,-0.630,10.704,-0.655,-0.841,-2.201,3.376,-5.133,8.720,0.064,0.217,-2.498,angry
0.40,302,0,0,0,0,0,0,0,0,0,0,73,636,0,3033,3153,7.690,-0.802,10.628,-0.733,-0.828,-1.948,2.514,-4.355,8.229,-0.030,0.354,-2.783,angry
0.41,308,0,0,0,0,0,0,0,0,0,0,0,831,0,3087,3174,8.150,-1.415,10.326,-0.811,-0.762,-1.727,0.917,-2.128,9.249,-0.034,0.479,-2.723,angry
0.42,297,0,0,0,0,0,0,0,0,0,0,0,915,0,3126,3161,8.334,-0.759,10.791,-0.892,-0.689,-1.514,-0.321,-1.944,9.919,-0.155,0.603,-2.458,angry
0.43,289,0,0,0,0,0,0,0,0,1,0,0,1115,0,3187,3175,7.946,-1.092,11.210,-0.987,-0.688,-1.266,-0.895,-0.620,10.379,-0.198,0.577,-2.109,angry
0.44,288,0,0,0,0,0,0,0,0,0,0,0,1251,26,3255,3196,7.762,-1.101,10.731,-1.055,-0.715,-1.067,-0.441,-0.852,10.441,-0.198,0.496,-1.792,angry
0.45,289,0,0,0,0,0,0,0,0,0,0,0,1359,0,3259,3221,7.678,-1.085,10.946,-1.107,-0.715,-0.923,0.034,-1.408,9.646,-0.228,0.473,-1.585,angry
0.46,274,0,0,0,0,0,0,0,0,0,0,39,1591,0,3309,3209,7.779,-0.594,11.265,-1.179,-0.739,-0.815,-0.388,-1.092,10.022,-0.390,0.474,-1.466,angry
0.47,284,0,0,0,0,0,0,0,37,0,0,215,1790,0,3359,3188,7.999,-0.412,11.387,-1.276,-0.814,-0.719,-0.172,-1.451,10.003,-0.473,0.516,-1.287,angry
0.48,299,0,0,0,0,0,0,0,0,0,17,502,1945,0,3375,3180,7.973,-0.433,11.128,-1.376,-0.918,-0.626,1.006,-1.808,9.546,-0.527,0.581,-1.209,angry
0.49,272,0,0,0,0,0,0,0,0,0,0,891,2083,0,3388,3144,7.879,-0.797,10.602,-1.459,-0.994,-0.548,1.008,-2.289,9.859,-0.572,0.591,-1.216,angry
0.50,297,0,0,0,0,0,0,0,0,0,0,1162,2148,0,3373,3135,7.882,-0.903,10.489,-1.516,-1.060,-0.483,0.697,-3.031,9.761,-0.568,0.632,-1.295,angry
0.51,291,0,0,0,0,0,0,0,0,0,0,1341,2211,0,3349,3091,8.080,-0.457,10.570,-1.591,-1.005,-0.385,0.397,-3.247,9.524,-0.518,0.698,-1.403,angry
0.52,291,0,0,0,0,0,0,0,0,0,0,1496,2269,0,3307,3032,7.805,-0.206,10.319,-1.669,-0.896,-0.262,-0.314,-3.187,9.357,-0.562,0.789,-1.468,angry
0.53,295,0,0,0,0,0,0,0,0,0,0,1715,2355,0,3262,3015,7.008,0.235,9.950,-1.727,-0.858,-0.158,-0.524,-2.825,9.572,-0.558,0.779,-1.474,angry
0.54,287,0,0,0,0,0,0,0,0,0,0,1915,2439,0,3217,2971,6.337,1.027,9.531,-1.749,-0.911,-0.083,-0.874,-2.018,9.584,-0.580,0.768,-1.357,angry
0.55,283,0,0,0,0,0,0,0,0,0,0,2153,2579,0,3143,2919,6.220,2.236,8.109,-1.745,-0.921,-0.039,-0.603,0.524,10.853,-0.491,0.695,-1.097,angry
0.56,278,0,0,0,0,0,0,0,0,1,0,2287,2672,0,3061,2840,5.892,3.795,6.637,-1.650,-0.786,0.035,-0.144,-0.285,10.661,-0.530,0.576,-0.859,angry
0.57,302,0,0,0,0,0,0,0,0,334,0,2476,2779,6,2951,2775,5.097,6.244,5.947,-1.481,-0.629,0.100,0.670,-0.560,10.331,-0.450,0.438,-0.592,angry
0.58,305,0,0,0,0,0,0,0,95,635,69,2629,2835,5,2773,2615,2.878,9.074,5.138,-1.311,-0.558,0.092,1.099,-1.209,11.061,-0.292,0.243,-0.377,angry
0.59,259,0,0,0,0,0,0,0,127,805,2,2730,2924,5,2392,2363,0.570,11.538,3.065,-1.120,-0.578,-0.121,1.465,-1.822,9.811,-0.280,0.136,-0.225,angry
0.60,192,0,0,0,12,0,0,0,536,1359,7,2815,2952,5,2037,1335,0.704,11.873,-3.687,-0.114,-0.028,-0.618,1.094,-2.495,9.732,-0.232,0.025,-0.194,angry
0.61,48,0,0,0,62,0,0,0,845,1959,7,2863,2669,4,1430,604,-0.022,13.757,-1.377,0.752,0.879,-0.640,1.171,-2.703,9.527,-0.455,-0.010,-0.283,angry
0.62,0,0,0,0,382,0,370,2097,1387,2163,20,3095,2403,5,327,159,4.693,-6.493,9.316,1.414,0.371,-0.419,1.293,-2.818,9.555,-0.751,0.021,-0.329,angry
0.63,0,0,0,0,748,0,1781,3148,1481,2359,0,3112,2173,3,103,107,0.972,6.912,14.166,1.904,0.046,-1.312,1.966,-3.156,9.311,-0.898,0.041,-0.378,angry
0.64,0,0,0,0,900,0,2531,3395,1591,2595,17,2523,2681,1688,1594,3147,4.673,-1.875,4.645,0.068,1.231,-0.283,1.360,-1.532,8.871,-1.629,-0.558,-0.349,angry
0.65,99,506,0,0,1424,0,2893,3520,1592,2583,12,2518,2602,1677,1579,3141,1.815,3.419,8.212,0.229,0.248,-0.344,3.915,-4.798,13.470,-4.222,0.178,-0.012,angry
0.66,307,1327,0,277,1514,0,3114,3642,1583,2582,12,2517,2598,1671,1578,3135,2.464,3.618,10.412,0.036,0.092,-0.203,6.855,-5.576,15.019,-4.366,1.567,0.832,angry
0.67,363,1535,0,409,1875,0,3301,3717,1568,2586,0,2514,2599,1683,1582,3141,3.790,3.833,8.727,0.046,0.022,-0.324,19.484,-5.313,19.613,-4.366,4.068,4.366,angry
0.68,293,1510,1574,655,2069,0,3406,3763,1575,2589,0,2532,2615,1701,1599,3161,5.088,4.092,8.133,0.030,0.126,-0.204,5.890,-5.107,19.613,-3.863,4.366,4.366,angry
0.69,431,1558,1823,862,2128,0,3440,3795,1577,2655,0,2599,2661,1791,1656,3223,4.310,3.189,8.179,0.093,0.203,-0.135,19.613,8.578,19.613,-0.584,3.029,3.904,angry
0.70,477,1760,2286,1157,2223,0,3415,3787,1555,2670,0,2599,2649,1791,1677,3230,3.484,3.493,8.612,0.239,0.281,-0.244,18.931,7.479,10.523,1.422,-0.196,-1.451,angry
0.71,599,1888,2608,1619,2162,0,3280,3750,1571,2664,0,2599,2657,1787,1669,3227,3.100,3.910,9.038,0.179,0.126,-0.129,4.937,6.464,13.096,2.232,-2.512,-1.811,angry
0.72,647,1981,2740,1819,2059,0,3126,3659,1573,2651,0,2571,2659,1788,1769,3199,2.844,3.780,9.086,0.165,-0.042,-0.068,1.338,4.872,15.972,3.093,-2.314,-1.135,angry
0.73,693,2023,2886,1989,2011,0,2974,3509,1581,2613,0,2579,2654,1743,1641,3195,3.055,3.455,8.677,0.208,-0.079,-0.103,-0.881,0.907,11.583,4.366,-3.141,0.003,angry
0.74,703,2158,0,2235,2135,0,2835,3326,1571,7,0,45,2651,1763,1683,0,3.220,3.694,8.624,0.256,-0.070,-0.154,3.371,-2.401,11.758,4.366,-3.224,-0.249,angry
0.75,704,2323,0,2464,2247,0,2686,3165,0,0,0,0,0,0,0,0,2.947,3.697,8.578,0.283,-0.020,-0.195,3.194,-3.431,13.597,4.366,-3.435,-0.785,angry
0.76,822,2430,0,2635,2322,0,2624,3050,0,0,0,0,0,0,0,0,2.880,3.845,8.780,0.278,-0.023,-0.188,3.491,-3.816,14.545,4.366,-3.479,-1.291,angry
0.77,959,2580,0,2778,2404,0,2545,2896,0,0,0,0,0,0,0,0,3.170,4.080,8.835,0.284,-0.022,-0.167,2.962,-4.082,15.440,4.366,-3.308,-1.799,angry
0.78,1194,2761,0,2927,2473,0,2479,2657,0,0,0,0,0,0,0,0,3.146,4.286,8.880,0.251,-0.046,-0.152,3.534,-4.027,15.749,4.131,-2.800,-2.116,angry
0.79,1579,2903,0,3044,2556,0,2331,2122,0,0,0,0,0,0,0,0,3.091,4.120,8.815,0.204,-0.072,-0.144,5.169,-6.776,18.182,3.752,-1.994,-2.550,angry
0.80,1954,3054,0,3152,2640,0,2038,1092,0,0,0,0,0,0,0,0,3.134,4.096,8.978,0.180,-0.119,-0.134,0.809,-10.977,19.197,3.527,-2.203,-3.253,angry
0.81,2384,3279,0,3257,2768,0,1519,0,1577,2556,0,2492,2585,1657,1560,3113,3.208,3.912,8.712,0.268,-0.082,-0.132,-1.290,-19.613,19.613,3.515,-1.537,-4.281,angry
0.82,2729,3477,0,3345,2394,0,783,0,1565,2565,0,2479,2577,1685,1565,3111,3.318,3.627,8.540,0.455,0.047,-0.204,-12.924,-19.613,1.398,3.039,-0.896,-3.983,angry
0.83,3011,3634,0,3419,1743,0,471,0,1575,2583,0,2553,2603,1685,1605,3117,3.644,4.065,8.294,1.023,0.101,-0.170,-18.232,-19.613,-6.031,1.832,-0.889,-2.793,angry
0.84,3312,3714,0,3502,1264,0,429,0,0,0,0,0,0,0,0,0,3.850,4.240,8.164,1.310,0.354,-0.282,-13.824,-19.613,-3.867,-0.704,0.178,-0.693,angry
0.85,3450,3732,0,3536,972,0,323,0,0,0,0,0,0,0,0,0,3.249,4.159,8.150,1.663,0.279,-0.233,-7.717,-19.613,-7.448,-2.646,1.783,-0.323,angry
0.86,3575,3708,3970,3566,532,0,200,0,0,0,0,0,0,0,0,45,4.173,3.529,8.734,2.032,0.391,-0.246,-5.329,2.682,19.613,-2.200,3.903,0.117,angry
0.87,3682,3583,305,3573,374,0,150,0,1580,2553,0,2519,2585,1655,1558,3113,3.541,3.225,8.459,2.607,0.455,-0.283,0.318,14.262,19.613,-2.206,1.045,-0.679,angry
0.88,3774,2655,3899,3504,71,0,91,0,1567,2605,0,2527,2657,1719,1619,3160,5.748,4.300,8.243,3.733,0.806,-0.606,-7.044,-12.014,19.613,-3.092,0.100,-0.024,angry
0.89,3810,1833,3569,3136,0,0,0,0,1582,2641,0,2547,2658,1705,1603,2013,9.127,5.748,9.392,4.543,1.153,-1.439,-4.367,-2.612,11.880,-2.617,-0.144,-0.197,angry
0.90,3715,950,2387,2112,0,0,0,0,1577,2620,0,2541,2632,1739,1612,3171,7.111,8.119,18.495,6.201,0.402,-3.501,5.344,-3.462,10.451,-2.820,-0.622,0.125,angry
0.91,2706,0,0,785,0,0,0,0,1227,1,0,6,2253,2021,2420,3507,11.885,8.191,19.613,6.968,0.266,-5.598,4.781,-8.114,13.635,-1.170,1.151,0.274,angry
0.92,531,0,0,0,0,0,0,0,1589,2602,2,2531,2604,1683,1594,3155,15.977,7.142,19.613,3.034,-0.185,-4.761,-0.670,-2.854,11.933,-0.461,1.231,0.475,angry
0.93,0,0,0,0,0,0,0,0,1591,2618,0,2556,2619,1717,1620,3175,19.613,1.097,18.055,-0.809,0.114,-1.588,1.539,-2.662,10.714,-0.216,0.890,0.383,angry
0.94,0,0,0,0,0,0,0,0,1594,2606,79,2543,2621,1711,1607,3164,14.729,-6.258,14.497,-1.576,-0.406,0.054,1.365,-2.969,9.922,-0.240,0.402,0.269,angry
0.95,0,0,0,0,0,0,0,0,1567,2619,0,2535,2615,1653,1627,3163,13.901,-1.640,14.746,-2.431,-2.008,1.722,1.053,-2.514,9.610,-0.252,0.272,0.189,angry
0.96,0,0,0,0,0,0,0,0,1581,2616,0,2547,2623,1717,1615,3171,6.634,-1.645,10.906,-3.486,-1.773,2.887,2.014,-2.679,9.340,-0.160,0.183,0.167,angry
0.97,0,0,0,0,0,0,0,0,1591,2587,5,2535,2622,1699,1609,3165,1.518,-0.007,10.558,-3.816,-2.181,2.946,-0.218,-0.622,11.056,-0.210,0.406,0.369,angry
0.98,0,0,0,0,0,0,0,0,1591,2605,5,2571,2621,1704,1609,3167,2.794,3.879,12.227,-4.369,-1.698,2.918,1.405,-0.654,10.190,-0.268,0.474,0.428,angry
0.99,0,0,0,0,0,0,0,0,1590,2623,33,2565,2636,1722,1623,3183,3.235,6.225,13.233,-4.669,-1.316,3.147,1.137,-2.579,9.390,-0.560,0.112,0.513,angry
1.00,0,0,0,0,0,0,0,0,1589,2628,0,2566,2636,1754,1587,3187,4.310,7.614,13.767,-4.612,-0.967,3.613,0.792,-3.017,9.809,-0.446,-0.037,0.450,angry
1.01,0,0,0,0,0,0,0,0,1589,2616,12,2555,2633,1711,1618,3181,5.883,9.754,16.407,-4.499,-0.342,3.953,1.992,-4.140,10.252,-0.418,-0.128,0.363,angry
1.02,0,0,0,0,0,0,0,0,318,611,140,2351,2437,19,2009,2776,9.254,16.980,19.613,-4.648,1.163,4.189,1.276,-3.421,10.106,-0.219,-0.009,0.200,angry
1.03,0,0,0,0,0,0,0,0,1359,1251,20,2646,2792,13,1645,2044,1.226,19.613,19.613,-4.892,0.597,4.039,1.049,-3.349,9.723,-0.203,0.105,0.184,angry
1.04,67,0,0,0,67,0,0,0,1705,1573,17,2809,2812,5,1087,1461,-10.719,19.613,4.317,-4.503,-2.229,2.589,2.037,-3.503,9.550,-0.237,-0.052,0.132,angry
1.05,176,0,0,0,319,0,0,0,2391,2123,2,3049,2652,1,1,667,-14.645,19.613,-19.613,-1.790,-3.193,0.482,1.367,-0.747,9.742,-0.479,-0.112,0.034,angry
1.06,106,0,0,0,95,0,0,0,2936,2377,2,3193,2089,2,3,301,-9.141,19.613,-8.887,0.039,-0.022,-0.867,1.279,-2.964,8.557,-0.800,0.009,-0.277,angry
1.07,0,0,0,0,123,0,121,997,3091,2424,2,3206,1723,3,0,147,8.578,19.613,-15.289,3.486,1.863,-0.431,0.709,-2.229,9.687,-1.260,0.109,-0.384,angry
1.08,0,0,0,0,365,0,915,3182,2961,1639,0,2719,427,0,0,170,-4.877,1.784,18.603,7.325,-3.086,-1.206,3.077,-1.908,10.527,-3.483,-0.064,-0.741,angry
1.09,0,0,0,0,471,0,2505,3661,1611,2577,2,2515,2597,1669,1575,3131,11.341,19.221,15.510,3.106,-0.263,-2.084,2.399,-11.444,14.425,-4.366,1.650,0.831,angry
1.10,0,51,0,0,1459,0,3216,3762,1585,2553,0,2475,2577,1651,1558,3087,7.441,17.102,2.679,1.523,2.374,-1.791,2.708,-4.599,19.613,-4.366,2.470,4.360,angry
1.11,0,1291,0,0,2063,0,3478,3818,1532,2577,0,2471,2555,1677,1579,3108,6.069,3.730,11.629,0.597,2.345,-1.195,8.440,-12.859,19.613,-4.366,3.434,4.366,angry
1.12,0,2021,0,663,2650,0,3571,3814,1549,2651,0,2584,2645,1787,1678,3213,4.022,4.484,10.154,0.574,1.014,-0.691,19.613,-11.499,19.613,-1.641,1.001,3.825,angry
1.13,0,2386,0,1141,2841,0,3601,3760,1565,7,0,0,0,35,0,0,4.185,4.379,9.960,0.420,0.264,-0.360,19.613,5.131,18.047,0.727,1.715,2.861,angry
1.14,78,2547,0,1342,2958,0,3563,3673,0,0,0,0,0,0,0,0,2.844,4.197,10.554,0.296,0.045,-0.193,19.613,6.644,14.528,0.971,0.255,0.645,angry
1.15,96,2631,0,1360,3034,0,3484,3515,0,0,89,0,0,0,0,25,3.531,2.885,8.662,0.331,-0.078,-0.167,19.091,5.449,10.511,1.080,-1.242,-1.006,angry
1.16,139,2689,0,1322,3071,0,3361,3276,0,0,0,0,0,58,0,0,3.651,3.567,8.155,0.350,-0.004,-0.159,14.214,5.282,11.791,1.759,-1.485,-2.139,angry
1.17,149,2769,0,1354,3055,0,3161,2992,0,0,0,0,0,0,0,0,4.240,2.976,8.140,0.407,0.023,-0.236,7.211,3.723,12.383,2.414,-1.911,-2.866,angry
1.18,163,2846,0,1583,2967,0,2846,2608,0,0,0,0,27,0,0,0,4.238,2.971,8.339,0.505,0.125,-0.338,1.166,2.686,13.896,3.184,-2.438,-2.991,angry
1.19,240,2910,0,1770,2854,0,2400,2101,0,0,0,0,0,0,0,0,3.761,2.749,8.509,0.577,0.124,-0.472,-1.195,0.754,13.460,3.919,-2.831,-2.844,angry
1.20,301,2979,0,1985,2700,0,1996,1228,0,0,0,0,0,0,0,0,3.697,3.642,8.444,0.639,0.092,-0.545,-2.614,-0.029,11.425,4.366,-2.607,-2.516,angry
1.21,393,3038,0,2139,2330,0,1481,162,3,0,0,0,43,0,0,0,3.486,3.797,8.492,0.620,0.116,-0.618,-3.282,-0.426,10.163,4.366,-2.457,-2.306,angry
1.22,374,3121,0,2327,2131,0,981,0,0,0,0,1,0,0,5,0,3.170,4.254,8.533,0.539,0.121,-0.677,-2.677,-2.569,12.110,4.366,-2.227,-2.088,angry
1.23,598,3211,0,2549,1835,0,621,0,0,0,0,0,0,0,0,0,2.373,2.478,8.526,0.209,0.224,-0.520,-1.812,-3.965,13.645,4.366,-2.160,-1.998,angry
1.24,976,3284,0,2761,1680,0,371,0,0,0,0,0,0,0,0,0,3.457,3.675,8.526,0.440,0.086,-0.604,-1.891,-4.961,14.789,4.366,-2.167,-1.920,angry
1.25,1490,3365,0,2947,1387,0,326,0,0,0,0,17,3,0,0,0,3.587,5.071,8.401,0.596,0.041,-0.435,-2.303,-6.122,16.214,4.366,-2.379,-1.767,angry
1.26,2038,3410,0,3042,1275,0,319,0,0,7,0,0,0,0,0,0,3.328,4.760,8.499,0.531,0.005,-0.358,-1.542,-6.730,18.950,4.366,-2.622,-1.562,angry
1.27,2421,3520,0,3181,1209,0,251,0,0,0,0,0,0,0,0,0,2.746,4.590,8.562,0.608,-0.003,-0.279,-1.666,-8.140,19.613,4.366,-2.792,-1.324,angry
1.28,2704,3583,0,3258,971,0,240,0,0,0,0,0,0,0,0,0,2.983,4.286,8.598,0.720,-0.007,-0.226,-0.919,-10.707,19.613,4.366,-3.152,-1.203,angry
1.29,2907,3648,0,3302,1107,0,178,0,0,0,0,0,0,0,0,0,3.182,4.673,8.464,0.838,0.021,-0.233,-2.638,-13.460,19.613,4.366,-3.446,-1.494,angry
1.30,3121,3701,0,3355,1175,0,111,0,0,0,0,0,0,0,0,0,3.340,4.867,8.296,0.970,0.045,-0.242,-5.827,-19.613,19.613,4.366,-3.828,-1.770,angry
1.31,3299,3745,3947,3398,1023,0,0,0,1581,2633,0,2493,2587,1657,1556,3160,3.481,4.329,7.939,1.133,0.121,-0.209,-0.678,-19.613,19.613,4.366,-3.067,-1.836,angry
1.32,3569,3761,3960,3446,546,0,0,0,0,1,0,0,0,0,0,0,3.677,4.424,8.394,1.603,0.266,-0.208,-17.533,-19.613,-7.075,2.633,-2.235,-1.202,angry
1.33,3692,3739,3983,3472,563,0,0,0,0,0,0,0,0,0,0,0,2.928,4.441,8.377,1.925,0.401,-0.196,-13.199,-19.613,-7.439,1.086,-2.077,-0.626,angry
1.34,3780,3664,3957,3481,539,0,0,0,1,0,23,0,0,0,0,0,3.771,4.561,8.164,2.353,0.591,-0.204,-14.839,-19.613,-6.675,-0.145,-0.286,-1.274,angry
1.35,3834,3481,3946,3452,288,0,0,0,41,0,0,0,0,0,0,0,4.173,3.867,7.611,2.932,0.702,-0.378,-13.767,-19.613,-6.199,-2.143,0.650,-1.081,angry
1.36,3869,2797,3904,3377,106,0,0,0,0,0,0,0,85,0,0,159,5.258,3.869,7.903,3.663,0.886,-0.591,-2.210,-8.950,19.137,-1.451,3.865,-0.706,angry
1.37,3887,2419,3769,3248,0,0,0,0,0,0,0,0,0,0,4,1015,5.009,3.163,7.930,4.545,1.278,-0.911,-7.465,19.613,12.783,-4.162,0.905,0.477,angry
1.38,3860,1879,3327,2837,0,0,0,0,0,0,0,0,0,7,12,2040,6.177,7.309,16.563,5.315,1.132,-1.638,-8.734,-4.932,8.657,-4.366,1.431,1.351,angry
1.39,3769,1267,2450,1986,0,0,0,0,0,0,0,0,0,0,725,2671,7.633,8.030,19.613,6.685,0.218,-3.034,-8.171,-19.613,19.613,-4.366,0.696,0.572,angry
1.40,3133,354,1319,1692,0,0,0,0,0,0,0,0,11,0,1517,3046,9.637,10.903,19.613,8.002,0.040,-4.650,6.895,-2.720,18.646,-3.273,1.556,0.944,angry
1.41,1520,129,0,299,0,0,0,0,0,0,0,0,10,0,2039,3317,10.051,9.397,19.613,7.373,0.328,-5.276,8.497,-5.727,10.580,-3.312,0.883,0.041,angry
1.42,390,11,0,48,0,0,0,0,0,0,2,1,303,0,2677,3911,3.208,-0.596,19.613,2.648,-0.472,-5.690,-8.059,-11.935,17.327,-2.380,2.096,0.352,angry
1.43,0,0,0,39,0,0,0,0,0,0,0,1,711,0,2803,3677,19.613,-7.762,12.378,-0.875,0.236,-5.409,0.534,-1.516,14.834,-1.619,2.486,0.739,angry
1.44,0,0,0,16,0,0,0,0,0,0,0,0,1436,0,3080,3951,19.613,0.498,17.327,-1.382,1.406,-1.556,1.432,-7.578,19.367,-1.260,1.478,0.444,angry
1.45,0,0,0,2,0,0,0,0,0,70,0,235,1567,0,3177,3923,19.613,-4.860,13.171,-1.824,0.986,1.284,0.848,-2.883,12.371,-0.831,0.910,0.271,angry
1.46,0,0,0,0,0,0,0,0,0,0,0,947,1782,0,3209,3913,13.159,-5.883,18.050,-2.078,-0.688,2.519,0.625,-4.549,12.000,-0.299,0.292,0.213,angry
1.47,0,0,0,0,0,0,0,0,5,0,0,1242,2004,0,3279,3887,8.686,-3.381,17.119,-2.836,-1.866,3.069,0.761,-3.127,10.783,-0.201,-0.016,-0.014,angry
1.48,0,0,0,0,0,0,0,0,0,0,0,1383,2190,0,3349,3853,7.307,-2.284,12.893,-3.615,-1.824,3.207,0.733,-2.284,9.785,-0.221,-0.127,-0.089,angry
1.49,0,0,0,0,0,0,0,0,0,1,0,1447,2327,0,3261,3788,4.178,-0.292,11.224,-4.178,-1.289,3.028,1.583,-2.363,10.096,-0.290,-0.179,-0.119,angry
1.50,0,0,0,0,0,0,0,0,5,0,0,1455,2393,0,3066,3765,2.279,1.496,11.662,-4.560,-1.158,2.733,2.725,-0.366,9.730,-0.326,-0.079,-0.028,angry
1.51,0,0,0,0,0,0,0,0,0,3,61,1128,2413,0,2893,3549,3.093,4.080,11.586,-4.836,-1.098,2.508,3.057,-3.534,9.038,-0.444,-0.029,-0.128,angry
1.52,0,0,0,0,0,0,0,0,0,0,0,1228,2351,0,2511,3403,4.022,5.784,11.923,-5.036,-0.905,2.408,1.784,-2.107,9.225,-0.345,0.244,0.256,angry
1.53,0,0,0,0,0,0,0,0,0,31,5,1499,2203,0,2196,3291,4.427,7.202,12.783,-5.148,-0.851,2.470,0.498,-2.971,10.240,-0.424,0.240,0.339,angry
1.54,0,0,0,0,0,0,0,0,0,223,0,1693,1959,0,1819,3129,2.957,8.135,13.776,-5.221,-1.097,2.525,2.152,-2.198,9.646,-0.408,0.143,0.329,angry
1.55,0,0,0,0,0,0,0,0,0,253,0,1931,1815,0,1593,3015,1.987,8.495,13.556,-5.170,-1.458,2.437,1.559,-3.235,9.519,-0.411,0.071,0.300,angry
1.56,0,0,0,0,0,0,0,0,9,435,0,1991,1759,1,1621,2877,3.541,9.965,14.293,-5.075,-1.364,2.246,1.154,-3.199,9.651,-0.323,0.022,0.263,angry
1.57,0,0,0,0,0,0,0,0,17,429,0,2137,1801,16,1480,2771,4.070,11.219,15.455,-5.002,-1.070,2.064,1.571,-2.981,9.541,-0.238,0.089,0.249,angry
1.58,0,0,0,0,0,0,0,0,92,536,2,2187,1894,5,1435,2613,7.084,13.266,16.573,-4.954,-0.540,1.870,1.791,-3.017,9.426,-0.203,0.076,0.251,angry
1.59,0,0,0,0,0,0,0,0,263,589,7,2397,1947,5,1437,2395,10.463,17.301,19.613,-4.805,-0.229,1.998,1.556,-4.032,9.852,-0.197,0.037,0.171,angry
1.60,0,0,0,0,0,0,0,0,557,726,5,2493,2125,5,1433,2169,11.717,19.613,19.613,-4.861,-0.828,2.654,0.855,-2.002,9.220,-0.282,0.021,0.105,angry
1.61,0,0,0,0,0,0,0,0,781,1151,5,2637,2391,6,1387,1931,8.171,19.613,14.971,-4.613,-1.920,3.295,1.161,-3.110,8.911,-0.165,-0.007,0.117,angry
1.62,0,0,0,0,0,0,0,0,1191,1416,2,2807,2555,5,1263,1714,-12.833,19.613,4.901,-3.853,-3.772,3.177,0.979,-2.938,10.767,-0.292,-0.009,0.062,angry
1.63,33,0,0,0,0,0,0,0,1935,1967,10,3062,2711,5,313,979,-6.905,19.613,-12.735,-1.422,-1.998,1.787,1.420,-2.514,9.495,-0.226,0.050,0.080,angry
1.64,57,0,0,0,228,0,0,0,2175,2283,2,3151,2709,7,0,684,-17.791,19.613,-4.843,0.235,0.061,-0.034,3.182,-2.945,9.131,-0.792,-0.051,-0.124,angry
1.65,69,0,0,0,126,0,0,0,2592,2573,0,3263,2342,1,0,235,2.349,19.613,-9.708,2.543,0.233,-0.765,1.489,-2.569,9.591,-0.685,0.040,-0.120,angry
1.66,0,0,0,0,160,0,48,497,2767,2557,0,3289,1981,4,2,123,8.138,19.613,-8.744,2.754,3.946,-0.007,1.856,-2.114,9.833,-1.411,0.030,-0.082,angry
1.67,0,0,0,0,384,0,987,2982,3227,2317,0,3303,687,1,0,115,-16.149,-1.429,17.186,7.660,-1.858,-1.200,1.970,-1.006,9.325,-4.173,-0.149,0.086,angry
1.68,0,0,0,0,475,0,2366,3549,3207,1655,0,3141,277,0,0,140,6.208,19.613,15.359,3.120,-0.254,-1.969,7.259,-4.525,9.737,-4.366,0.203,0.421,angry
1.69,0,102,0,0,1121,0,3233,3718,1587,2611,0,2537,2611,1687,1607,3162,13.144,17.210,7.779,1.980,2.677,-1.931,6.194,-4.781,19.613,-4.366,0.890,3.439,angry
1.70,0,1351,0,0,2143,0,3445,3783,1562,2557,0,2483,2573,1657,1559,3111,4.350,4.365,13.285,0.703,2.673,-1.333,5.358,-4.855,19.613,-4.366,2.480,4.366,angry
1.71,170,2000,0,813,2491,0,3511,3824,1571,2657,0,2585,2647,1800,1653,3224,4.693,5.399,9.989,0.717,1.006,-0.848,5.571,-3.883,19.613,-3.561,1.907,4.366,angry
1.72,335,2371,0,1500,2688,0,3539,3793,1553,2676,0,2599,2648,1806,1683,3097,2.780,3.364,10.271,0.476,0.326,-0.375,19.613,12.972,19.613,2.298,1.416,4.053,angry
1.73,421,2624,0,1834,2814,0,3515,3688,1467,2723,0,2653,2299,1897,1747,3293,2.497,3.847,9.752,0.350,0.026,-0.192,15.368,5.667,11.760,2.918,-1.010,-0.501,angry
1.74,463,2789,0,1958,2852,0,3347,3377,1423,0,0,0,1,45,0,0,4.645,2.969,7.331,0.446,0.223,-0.343,15.189,2.586,9.057,3.248,-1.807,-2.128,angry
1.75,640,2923,0,2273,2672,0,2903,2967,0,0,0,0,0,0,0,0,4.046,3.479,8.648,0.596,0.299,-0.505,-0.912,-0.409,12.866,4.366,-2.274,-2.984,angry
1.76,768,2970,0,2512,2358,0,2457,2588,0,0,0,0,0,0,0,0,3.888,3.110,8.806,0.642,0.292,-0.568,-3.809,-1.516,11.612,4.366,-2.737,-2.468,angry
1.77,844,3022,0,2704,1712,0,1582,2026,0,0,0,0,0,1,0,0,3.527,4.638,9.383,0.593,0.078,-0.495,-4.039,-2.239,10.898,4.366,-2.449,-1.700,angry
1.78,1233,3025,0,2811,1183,0,921,1040,0,0,0,0,0,0,0,20,3.089,4.142,8.878,0.471,0.022,-0.419,-4.173,-3.007,11.732,4.366,-2.117,-0.916,angry
1.79,1780,3071,3645,2931,1058,0,527,0,0,0,0,0,0,0,0,0,3.527,3.776,8.296,0.388,0.009,-0.472,-3.098,-4.779,14.509,4.366,-2.240,-0.377,angry
1.80,2118,3118,3543,3042,1059,0,288,0,1,0,0,0,1,0,0,0,3.067,4.238,8.464,0.468,-0.038,-0.474,-0.579,-6.203,15.543,4.366,-2.461,-0.231,angry
1.81,2457,3152,3736,3147,886,0,189,0,0,0,0,0,0,0,0,0,2.902,4.137,8.349,0.479,-0.064,-0.572,1.599,-7.185,16.707,4.366,-2.759,-0.397,angry
1.82,2686,3215,3776,3245,640,0,120,0,0,0,0,0,0,0,0,0,3.280,4.705,8.550,0.519,-0.082,-0.540,2.921,-8.780,19.515,4.366,-3.067,-0.952,angry
1.83,2869,3248,3810,3344,789,0,89,0,0,0,0,0,0,0,0,0,3.031,4.927,8.480,0.563,-0.082,-0.503,0.496,-8.643,19.613,4.366,-3.577,-1.498,angry
1.84,3039,3299,3855,3417,659,0,52,0,0,17,0,0,0,0,0,0,2.995,4.851,8.382,0.606,-0.053,-0.421,-0.838,-11.815,19.613,4.366,-4.055,-1.889,angry
1.85,3199,3367,3873,3472,848,0,0,0,0,0,0,0,0,0,0,0,3.203,4.645,8.327,0.704,0.006,-0.331,-2.272,-15.388,19.613,4.366,-3.527,-2.001,angry
1.86,3334,3431,3888,3527,525,0,0,0,1579,2567,0,2475,2585,1656,1556,3087,3.053,4.683,8.413,0.816,0.062,-0.237,-4.884,-19.613,19.613,4.366,-3.214,-2.039,angry
1.87,3536,3505,3938,3583,587,0,0,0,0,0,0,0,0,0,0,0,3.306,4.934,8.310,1.178,0.258,-0.127,-13.680,-19.613,-0.237,3.082,-1.969,-1.529,angry
1.88,3646,3502,3955,3630,473,0,0,0,0,0,0,0,0,0,0,0,3.304,4.413,8.399,1.416,0.371,-0.087,-17.870,-19.613,-6.158,1.416,-2.693,-1.048,angry
1.89,3738,3463,3970,3651,476,0,0,0,0,0,0,0,4,0,0,0,3.486,4.341,8.375,1.765,0.507,-0.076,-10.180,-19.613,-7.080,-0.091,-1.497,-1.295,angry
1.90,3810,3308,3970,3663,487,0,0,0,0,0,7,0,0,0,0,0,3.428,4.314,8.332,2.152,0.611,-0.125,-16.379,-19.613,-5.715,-1.303,-0.133,-1.402,angry
1.91,3857,2821,3945,3657,457,0,0,0,0,0,0,0,0,0,0,0,4.422,3.725,8.198,2.794,0.722,-0.250,-13.489,-19.613,2.456,-1.915,-0.255,-0.422,angry
1.92,3895,2631,201,3630,69,0,0,0,0,0,0,0,0,0,0,59,5.638,4.913,7.784,3.432,0.956,-0.509,8.753,-6.900,12.026,-2.079,3.072,-0.628,angry
1.93,3917,2309,3787,3495,0,0,0,0,0,0,0,0,0,0,0,831,4.872,4.278,8.842,4.237,0.972,-0.877,-5.507,19.613,18.998,-4.298,0.123,-0.403,angry
1.94,3903,1869,3315,3200,0,0,0,0,0,30,0,0,0,0,0,2072,5.203,2.595,10.008,5.117,1.152,-1.562,-4.604,0.503,2.708,-4.366,0.213,1.235,angry
1.95,3854,1293,2608,2256,0,0,0,0,0,0,0,0,0,0,375,2776,5.727,4.573,15.716,6.362,0.142,-2.813,-4.709,-19.613,19.613,-4.366,0.904,0.866,angry
1.96,3498,362,1859,1847,0,0,0,0,0,0,0,3,0,1,1379,3563,6.093,6.699,19.613,7.523,-0.375,-4.361,6.773,-5.547,19.613,-3.621,1.344,0.920,angry
1.97,2464,272,35,922,0,0,0,0,0,0,53,0,0,0,2025,3768,8.586,9.665,19.613,8.308,0.175,-5.392,9.361,-7.408,8.114,-3.340,0.883,0.325,angry
1.98,1153,0,0,0,0,0,0,0,0,0,0,11,183,0,2667,3861,14.576,13.891,18.182,8.195,0.834,-6.285,-11.265,-14.609,19.613,-2.068,1.853,1.440,angry
1.99,511,0,0,0,0,0,0,0,0,11,0,0,419,0,2904,3977,11.396,16.891,19.613,3.402,-1.302,-4.915,0.687,-5.193,13.391,-1.432,2.015,0.773,angry
2.00,111,0,0,0,0,0,0,0,0,0,0,0,787,0,3089,4007,19.613,19.048,19.613,0.285,0.106,-4.402,1.307,-7.010,15.792,-0.745,1.897,0.728,angry
2.01,322,0,0,0,0,0,0,0,0,55,0,103,1391,0,3068,3861,19.613,-3.282,16.237,-2.249,1.390,-2.269,1.245,-3.280,10.568,-0.489,1.336,0.586,angry
2.02,430,0,0,0,0,0,0,0,8,109,7,165,1544,0,3125,3897,17.025,-2.064,10.345,-2.358,0.960,-0.691,1.044,-3.290,10.992,-0.417,0.822,0.437,angry
2.03,423,0,0,0,0,0,0,0,3,163,12,557,1865,0,3211,3932,12.780,-2.330,9.752,-2.164,-0.768,0.637,0.639,-3.546,11.621,-0.304,0.388,0.366,angry
2.04,355,0,0,0,0,0,0,0,3,486,7,895,2099,0,3261,3921,14.257,0.441,9.290,-2.383,-1.813,1.936,1.425,-2.828,9.720,-0.324,0.166,0.264,angry
2.05,229,0,0,0,0,0,0,0,1,483,5,827,2335,0,3215,3871,12.763,2.401,8.550,-3.016,-1.648,3.033,1.836,-2.919,9.890,-0.389,0.137,0.272,angry
2.06,140,0,0,0,0,0,0,0,0,457,2,1133,2473,1,3155,3797,8.236,2.641,9.038,-3.551,-1.363,3.768,2.114,-3.079,9.610,-0.348,0.167,0.245,angry
2.07,144,0,0,0,0,0,0,0,1,436,2,1391,2555,2,3020,3655,4.070,3.036,9.433,-3.971,-1.437,4.137,2.083,-2.607,9.237,-0.387,0.228,0.272,angry
2.08,144,0,0,0,0,0,0,0,1589,469,0,1341,2649,1850,2525,3497,1.547,3.553,9.524,-4.333,-1.644,4.191,2.054,-2.871,9.285,-0.470,0.262,0.319,angry
2.09,126,0,0,0,0,0,0,0,41,531,43,1735,2613,9,2424,3273,0.996,4.341,10.817,-4.825,-1.374,3.721,1.377,-3.098,10.041,-0.464,0.201,0.297,angry
2.10,84,0,0,0,0,0,0,0,38,765,28,2045,2607,2,1836,3029,1.683,6.510,13.044,-5.152,-1.236,3.484,1.417,-2.758,9.510,-0.490,0.192,0.329,angry
2.11,93,0,0,0,0,0,0,0,63,943,0,2287,2591,4,1631,2662,1.803,8.159,14.796,-5.483,-1.259,3.312,1.695,-3.084,9.606,-0.446,0.150,0.198,angry
2.12,96,0,0,0,0,0,0,0,115,1126,2,2367,2585,4,1437,2261,2.887,10.151,16.240,-5.701,-1.376,3.198,1.669,-4.262,9.972,-0.556,0.111,0.134,angry
2.13,121,0,0,0,0,0,0,0,365,1291,12,2505,2553,5,1353,1727,5.966,12.258,17.301,-5.823,-1.348,3.162,1.841,-3.622,9.550,-0.302,0.191,0.096,angry
2.14,134,0,0,0,0,0,0,0,821,1529,7,2703,2377,6,709,1385,10.683,18.131,17.411,-5.552,-0.849,3.754,1.714,-4.087,9.895,-0.311,0.139,0.038,angry
2.15,145,0,0,0,0,0,0,0,1527,1608,0,2903,1855,0,4,1127,9.349,19.613,12.479,-4.674,0.284,4.466,1.738,-3.457,9.234,-0.368,0.176,0.099,angry
2.16,165,0,0,0,0,0,0,0,1635,1605,0,2951,1480,0,7,1039,-0.034,19.613,10.008,-3.915,-0.023,3.925,1.709,-3.211,9.122,-0.425,0.156,0.038,angry
2.17,196,0,0,0,0,0,0,0,1989,1531,0,2999,1245,1,0,575,-7.147,19.613,2.289,-2.791,-1.233,2.987,0.627,-4.338,9.847,-0.345,0.057,-0.026,angry
2.18,250,0,0,0,0,0,0,0,2168,1604,0,3081,1195,5,2,403,-9.728,19.613,-5.950,-1.310,-2.092,2.694,1.425,-3.721,8.116,-0.451,0.036,-0.029,angry
2.19,265,0,0,0,0,0,0,0,2548,1675,0,3206,762,0,0,233,-6.223,19.613,-12.179,0.149,-1.227,2.603,2.243,-3.792,8.777,-0.475,0.170,-0.105,angry
2.20,225,0,0,0,79,0,0,0,2743,1887,58,3272,583,43,2,119,-7.975,19.613,-9.594,1.055,0.540,2.154,2.423,-4.920,8.648,-0.592,0.085,-0.102,angry
2.21,100,0,0,0,0,0,0,0,2931,1915,0,3359,356,1,0,123,-16.465,19.613,-9.199,2.848,0.211,1.294,1.932,-2.928,9.122,-0.968,0.058,-0.114,angry
2.22,16,0,0,0,0,0,0,214,3069,1481,0,3406,201,1,0,121,-4.812,19.613,-5.368,3.866,0.114,0.310,1.669,-2.904,9.668,-1.412,0.000,-0.080,angry
2.23,0,0,0,0,106,0,496,2059,3210,1353,7,3475,201,0,0,85,-2.409,-5.626,19.139,3.720,0.045,-1.294,1.537,-2.514,9.699,-2.356,0.043,-0.019,angry
2.24,0,0,0,0,272,0,2197,3281,3293,1085,5,3480,48,0,35,18,5.224,11.408,12.656,4.954,-2.021,-2.827,3.201,-1.743,9.924,-3.490,0.416,0.038,angry
2.25,0,511,0,0,1332,0,3219,3566,1627,2633,0,2577,2651,1757,1638,3245,19.613,19.613,8.571,0.761,2.770,-1.747,3.172,0.781,9.347,-4.366,1.056,1.049,angry
2.26,0,1955,0,339,2141,0,3312,3602,1587,2663,0,2603,2659,1764,1659,3231,-2.840,8.981,19.613,1.256,2.652,-1.631,5.009,-8.930,19.613,-4.366,1.180,3.675,angry
2.27,0,2641,0,1554,2629,0,3406,3632,1581,2654,0,2595,2658,1759,1647,3220,0.807,4.642,10.333,0.801,0.734,-0.747,4.341,-8.650,19.613,-4.366,0.729,4.366,angry
2.28,320,2847,0,2229,2864,0,3451,3613,1579,2651,0,2590,2664,1773,1655,3212,3.393,4.685,10.008,0.497,0.198,-0.420,6.038,-1.283,19.613,-1.477,-0.468,4.366,angry
2.29,554,3037,0,2544,3011,0,3443,3498,0,0,0,0,0,0,0,8,3.536,4.688,9.033,0.315,0.048,-0.229,18.361,8.648,16.819,2.047,0.096,3.428,angry
2.30,686,3135,0,2650,3091,0,3392,3394,0,0,0,0,0,0,0,13,3.472,3.960,8.890,0.269,-0.007,-0.199,18.699,1.867,7.769,2.269,-1.211,0.656,angry
2.31,729,3202,0,2707,3093,0,3289,3245,0,0,0,0,0,0,0,0,3.716,3.347,8.533,0.326,0.054,-0.237,14.135,1.434,6.922,2.286,-2.475,-1.311,angry
2.32,848,3258,0,2757,3012,0,3106,3044,0,0,0,0,0,0,13,0,3.508,4.005,8.861,0.316,-0.030,-0.262,8.284,0.649,8.497,2.656,-2.651,-2.425,angry
2.33,987,3291,0,2794,2912,0,2891,2803,3,0,0,0,0,0,0,0,3.572,4.252,8.622,0.282,-0.042,-0.242,0.177,0.263,10.613,3.174,-2.888,-2.611,angry
2.34,1086,3331,0,2813,2727,0,2645,2535,17,0,0,0,0,0,0,0,3.546,4.005,8.404,0.263,-0.030,-0.221,-4.599,-0.007,10.367,3.737,-3.240,-2.065,angry
2.35,1243,3350,0,2865,2099,0,1915,1762,0,0,0,0,0,0,8,0,3.517,3.862,8.363,0.260,-0.011,-0.226,-5.124,-0.232,9.390,4.125,-3.159,-1.234,angry
2.36,1424,3365,0,2913,1972,0,1504,1088,0,0,0,0,0,0,0,0,3.546,4.164,8.246,0.251,-0.000,-0.206,-4.480,-0.725,10.381,4.366,-2.836,-0.520,angry
2.37,1699,3407,0,3012,1895,0,934,167,0,0,0,0,0,0,0,0,3.244,4.077,8.243,0.173,0.002,-0.239,-5.040,-3.950,13.230,4.366,-3.340,0.392,angry
2.38,1845,3427,0,3087,1767,0,829,0,12,0,0,0,0,0,25,0,3.242,4.092,8.485,0.171,-0.029,-0.267,-4.219,-5.298,13.860,4.366,-3.729,0.770,angry
2.39,2023,3469,0,3157,1835,0,533,0,0,0,12,0,7,0,0,0,3.311,4.326,8.329,0.210,-0.036,-0.236,-1.494,-7.262,15.021,4.366,-4.122,1.023,angry
2.40,2288,3508,0,3219,1744,0,375,0,0,11,0,0,0,0,0,0,3.302,4.257,8.351,0.287,-0.022,-0.189,-2.121,-8.696,16.075,4.366,-4.366,0.848,angry
2.41,2482,3547,0,3280,1594,0,336,0,0,0,0,0,0,0,0,0,3.357,4.130,8.452,0.348,0.027,-0.156,-5.095,-10.453,15.428,4.366,-4.366,0.655,angry
2.42,2685,3583,0,3340,1425,0,130,0,0,13,0,0,0,2,0,0,3.259,4.152,8.459,0.477,0.029,-0.137,-17.334,-12.744,15.105,4.366,-4.366,1.013,angry
2.43,2863,3622,0,3394,1221,0,155,0,0,0,0,0,0,0,0,0,3.268,4.293,8.657,0.657,0.039,-0.121,-19.613,-16.261,14.382,4.366,-4.366,2.795,angry
2.44,3024,3658,0,3438,934,0,87,0,0,0,0,0,0,0,0,0,3.606,3.852,8.598,0.929,0.098,-0.135,-19.613,-17.037,4.233,2.018,-3.872,4.366,angry
2.45,3201,3697,0,3477,893,0,0,0,0,0,0,0,0,0,0,0,3.512,4.096,8.686,1.236,0.169,-0.168,-19.613,-19.613,8.207,1.625,-2.296,4.366,angry
2.46,3392,3706,128,3507,481,0,0,0,1577,2664,0,2584,2646,1747,1653,3213,3.871,3.055,8.796,1.787,0.296,-0.187,-7.863,-19.613,8.401,0.147,-2.365,4.366,angry
2.47,3635,3648,0,3531,186,0,0,0,0,0,0,0,20,0,22,3,2.519,4.860,9.163,2.525,0.638,-0.094,-7.889,-18.498,8.554,0.869,3.347,1.350,angry
2.48,3696,3542,3941,3499,182,0,0,0,1,0,2,45,209,0,687,377,3.033,4.238,9.615,2.954,0.783,-0.006,-10.750,-1.899,9.689,1.940,4.366,0.736,angry
2.49,3749,2559,3825,3258,49,0,0,0,12,1,2,0,629,0,1835,2009,6.005,-0.476,10.127,4.731,1.056,-0.456,-11.035,12.723,13.173,-0.054,2.624,1.370,angry
2.50,3605,1769,2865,2416,0,0,0,0,0,807,0,63,1428,0,2355,3229,8.076,6.505,19.613,7.105,0.882,-0.868,-2.863,-6.735,19.613,-1.044,1.508,0.110,angry
2.51,2234,482,0,239,0,0,0,0,7,1340,2,767,1594,1,2570,3769,7.760,11.748,17.406,6.186,3.545,-1.679,5.061,-3.297,10.740,-1.307,0.412,0.120,angry
2.52,848,0,0,0,65,0,0,0,57,1511,7,937,1691,3,2772,3917,-1.044,-10.568,19.613,0.688,2.770,-1.784,-0.172,-3.661,10.602,-0.569,0.517,-0.100,angry
2.53,346,0,0,0,0,0,0,0,149,1747,2,1678,1719,3,2845,4095,17.459,-1.856,17.516,-1.820,3.944,-0.546,1.930,-3.397,9.618,-0.483,0.371,-0.380,angry
2.54,240,0,0,0,0,0,0,0,341,2023,12,1773,1675,7,2815,4095,16.424,-1.927,5.241,-3.052,3.399,1.722,-0.433,-3.838,9.768,-0.130,0.362,-0.340,angry
2.55,3,0,0,0,0,0,0,0,489,2134,7,1870,1721,27,2720,4043,14.341,1.097,2.885,-3.088,2.520,3.376,-0.508,-3.244,9.826,-0.066,0.197,-0.229,angry
2.56,0,0,0,0,0,0,0,0,679,2223,7,2010,1792,4,2733,4028,12.680,2.291,2.957,-3.212,2.401,3.923,0.622,-3.278,9.598,-0.062,0.111,-0.128,angry
2.57,0,0,0,0,0,0,0,0,623,2261,0,2040,1759,5,2654,3929,11.116,3.189,2.255,-3.313,2.100,4.320,1.037,-3.455,9.780,-0.121,0.073,-0.074,angry
2.58,0,0,0,0,0,0,0,0,786,2311,7,2107,1779,0,2648,3881,11.078,4.116,2.095,-3.021,1.534,4.622,1.300,-3.340,9.481,-0.117,0.051,-0.011,angry
2.59,0,0,0,0,0,0,0,0,783,2327,7,2094,1801,3,2557,3774,15.476,7.290,1.312,-2.639,1.438,4.899,1.530,-3.270,9.613,-0.114,0.039,0.025,angry
2.60,0,0,0,0,0,0,0,0,905,2356,0,2079,1907,5,2508,3740,19.613,13.748,1.010,-2.282,1.754,5.796,1.669,-3.462,9.421,-0.108,0.011,0.072,angry
2.61,0,0,0,0,0,0,0,0,931,2331,5,2035,1912,4,2407,3609,19.613,18.799,-4.429,-1.700,2.410,7.492,1.628,-3.254,9.177,-0.068,0.065,0.082,angry
2.62,0,0,0,0,0,0,0,0,1063,2361,0,1879,2065,7,2444,3720,19.613,19.613,-9.175,-0.450,2.878,8.731,1.887,-3.472,9.285,-0.106,0.057,0.076,angry
2.63,0,0,0,0,0,0,0,0,1172,2261,7,1863,2139,5,2301,3685,17.923,19.613,-10.829,1.077,3.116,8.731,1.779,-3.642,9.359,-0.093,0.039,0.089,angry
2.64,11,0,0,0,0,0,0,0,1252,2159,0,1916,2213,0,2329,3685,14.480,19.613,-12.364,2.547,3.531,8.731,1.566,-3.677,9.471,-0.041,-0.010,0.094,angry
2.65,319,669,50,58,210,0,0,0,1335,1753,7,1911,2377,5,2469,3701,-15.737,19.613,8.854,1.266,3.960,8.526,1.484,-3.582,9.701,-0.023,-0.087,0.106,angry
2.66,576,1658,0,731,464,0,81,0,1065,1359,2,1781,2382,5,2473,3763,1.944,19.613,-2.495,1.569,2.464,4.191,0.843,-3.326,9.888,0.160,-0.089,0.178,angry
2.67,961,2427,0,1317,1060,0,251,0,955,1203,5,1559,2303,7,2255,3703,6.359,11.032,6.232,-0.793,0.747,1.645,0.211,-2.737,10.274,0.193,-0.165,0.359,angry
2.68,1263,2705,0,1680,1683,0,1399,71,349,817,10,953,1955,4,1945,3685,3.024,-2.339,10.025,-0.297,-0.264,-0.422,-0.484,-0.661,10.257,0.188,-0.676,1.605,angry
2.69,1471,2803,0,2061,2225,0,2843,2197,136,478,33,29,1508,1,821,2851,3.510,3.862,8.988,-0.470,0.165,-0.434,1.760,0.318,10.956,0.586,-1.406,3.663,angry
2.70,1776,2879,3370,2416,2471,0,3193,2801,61,447,35,0,1059,0,251,1945,4.065,3.000,8.720,-0.138,0.229,-0.539,1.992,-2.796,11.636,0.703,-1.987,4.352,angry
2.71,2117,2955,3474,2684,2559,76,3309,2999,0,284,115,0,421,0,0,1444,5.303,4.178,8.001,0.019,0.139,-0.371,0.484,-6.254,11.044,0.218,-3.465,4.028,angry
2.72,2350,3045,417,2879,2693,0,3328,3071,0,0,0,0,136,0,5,931,3.768,3.879,8.607,0.162,0.174,-0.070,1.274,-5.827,9.155,0.388,-4.366,2.128,angry
2.73,2500,3082,3577,2985,2690,0,3258,3042,0,0,0,0,9,0,0,789,3.661,3.893,8.619,0.258,0.280,0.093,-2.037,-7.400,10.987,0.870,-4.366,1.282,angry
2.74,2608,3071,3583,3057,2559,0,3086,2979,0,0,0,2,0,0,0,484,2.887,3.792,9.000,0.250,0.261,0.167,-6.469,-6.800,7.910,2.047,-3.739,2.749,angry
2.75,2652,3098,3500,3090,2529,0,2865,2875,0,0,0,0,0,0,0,245,2.507,4.001,8.851,0.259,0.200,0.225,-16.994,-7.690,10.989,2.661,-1.097,4.366,angry
2.76,2688,3105,3597,3109,2384,0,2630,2669,0,0,0,0,0,0,0,155,2.851,4.132,8.887,0.222,0.180,0.225,-10.197,-8.468,11.337,2.630,-0.214,4.366,angry
2.77,2714,3104,2547,3139,2142,0,2358,2421,0,0,0,0,0,0,5,99,3.077,3.833,8.729,0.234,0.225,0.189,-4.051,-6.330,9.538,2.434,0.894,4.366,angry
2.78,2744,3117,0,3152,1909,0,2214,2311,0,0,0,0,0,0,0,62,3.261,4.175,8.607,0.191,0.187,0.123,0.304,-5.499,8.363,2.410,1.039,4.366,angry
2.79,2769,3110,0,3166,1871,0,2153,2206,0,0,0,0,0,0,0,56,3.261,3.960,8.370,0.157,0.152,0.068,2.571,-4.492,8.612,2.409,0.938,4.366,angry
2.80,2807,3093,3554,3189,1864,0,2114,2138,0,0,0,0,0,0,0,11,3.634,4.113,8.497,0.101,0.106,0.035,3.622,-3.603,7.997,2.455,0.444,4.366,angry
2.81,2835,3103,0,3223,2013,0,2128,2112,39,0,0,0,16,0,0,0,3.847,3.948,8.270,0.035,0.065,-0.004,3.469,-3.081,7.669,2.438,-0.018,4.366,angry
2.82,2864,3120,2921,3245,2117,0,2155,2123,0,48,0,0,0,0,0,13,3.768,4.137,8.516,0.019,0.068,-0.001,2.057,-3.613,8.392,2.444,-0.344,4.285,angry
2.83,2897,3155,0,3307,2261,0,2225,2082,0,0,0,0,0,0,0,6,3.220,4.137,8.701,0.047,0.079,0.060,2.167,-7.219,8.650,2.627,-0.248,4.051,angry
2.84,2932,3223,0,3345,2337,0,2236,1913,0,0,0,0,0,0,0,17,2.799,4.022,8.760,0.102,0.046,0.178,3.455,-8.981,6.900,2.542,-0.091,3.821,angry
2.85,2960,3280,0,3376,2399,0,2191,1480,0,0,115,0,0,25,0,6,1.889,4.029,9.129,0.211,0.072,0.355,5.523,-11.406,6.053,2.326,-0.058,3.383,angry
2.86,2994,3343,0,3390,2470,0,2064,615,0,0,0,0,0,0,0,25,1.705,3.613,9.124,0.399,0.189,0.601,6.725,-13.439,3.472,1.773,-0.000,2.792,angry
2.87,3041,3407,0,3413,2389,0,1710,0,0,0,2,0,0,5,0,701,1.846,3.338,9.311,0.667,0.326,0.861,11.926,-19.613,-12.459,-1.636,-1.765,1.640,angry
2.88,3097,3460,0,3438,1633,0,848,0,19,18,28,0,21,17,17,1363,2.708,2.622,9.357,0.927,0.370,0.962,19.613,-19.613,16.992,-0.956,-0.621,1.486,angry
2.89,3181,3536,0,3455,1018,0,496,0,1,5,5,0,51,33,51,1629,3.247,4.614,10.791,1.428,0.512,0.787,6.697,-14.485,6.905,-0.366,-0.368,-0.023,angry
2.90,3280,3413,3846,3421,715,0,400,0,0,0,0,0,0,4,815,2167,4.156,3.642,8.947,1.980,0.665,0.443,19.613,-19.613,19.613,0.764,1.220,0.449,angry
2.91,3366,2736,3663,3314,104,0,149,0,0,0,0,279,246,0,1677,2777,5.933,4.573,8.531,2.456,1.209,-0.101,10.839,1.020,11.418,0.039,0.133,0.171,angry
2.92,3386,1605,3292,3279,0,0,0,0,0,0,2,629,299,0,1942,2999,10.053,12.060,10.870,2.055,1.871,-1.406,0.268,-7.736,15.555,-0.541,0.055,0.251,angry
2.93,3223,382,1883,2805,0,0,0,0,0,0,0,1060,378,0,2291,3227,14.435,7.590,11.665,2.012,3.187,-4.328,1.822,-2.911,9.055,0.051,0.141,0.170,angry
2.94,1798,0,0,715,0,0,0,0,2,0,0,1093,792,0,2683,3427,19.613,11.143,9.055,1.826,5.362,-7.172,1.760,-2.593,10.092,-0.035,0.040,0.221,angry
2.95,642,0,0,0,0,0,0,0,0,0,0,1165,1049,0,2854,3500,19.613,19.613,13.053,1.243,7.775,-4.460,1.185,-2.732,10.120,-0.068,0.080,0.189,angry
2.96,422,0,0,0,0,0,0,0,0,0,0,1337,1244,0,2886,3575,19.613,16.652,5.332,1.639,3.922,2.945,1.645,-2.418,9.428,-0.048,0.107,0.188,angry
2.97,646,0,0,0,0,0,0,0,0,0,0,1367,1407,0,3023,3615,19.613,2.586,1.293,1.780,3.523,5.483,1.856,-3.426,9.450,-0.046,0.090,0.200,angry
2.98,565,0,0,0,0,0,0,0,0,0,0,1543,1507,0,3063,3513,12.799,1.195,11.847,2.043,2.025,6.393,1.453,-2.875,9.902,-0.104,0.096,0.162,angry
2.99,162,0,0,0,0,0,0,0,0,0,2,1648,1627,0,3064,3635,7.858,-2.950,15.969,1.335,0.339,5.834,1.015,-2.789,9.823,-0.115,0.081,0.122,angry
3.00,0,0,0,0,0,0,0,0,0,0,0,1719,1675,0,3046,3594,9.591,-3.895,13.522,0.267,0.146,5.109,0.972,-2.691,9.773,-0.128,0.052,0.095,angry
3.01,0,0,0,0,0,0,0,0,0,0,0,1747,1607,0,2968,3531,9.464,-2.602,12.208,-0.776,0.512,4.646,0.800,-2.492,9.792,-0.158,-0.055,0.091,angry
3.02,0,0,0,0,0,0,0,0,0,0,0,1803,1645,0,2871,3419,8.954,-1.800,9.584,-1.608,0.601,4.529,0.852,-2.495,9.397,-0.178,-0.119,0.103,angry
3.03,0,0,0,0,0,0,0,0,0,0,0,1655,1788,0,2748,3188,9.067,-0.321,7.989,-2.007,0.436,4.629,0.599,-2.729,9.900,-0.264,-0.162,0.170,angry
3.04,0,0,0,0,0,0,0,0,18,5,0,1516,1865,0,2351,2759,9.321,2.009,7.561,-2.321,0.261,4.782,0.493,-3.002,9.907,-0.267,-0.197,0.260,angry
3.05,0,0,0,0,0,0,0,0,17,37,0,1587,1919,7,2031,2421,9.407,4.089,7.922,-2.640,0.098,4.923,1.216,-3.096,10.008,-0.278,-0.187,0.370,angry
3.06,0,0,0,0,0,0,0,0,89,404,7,1799,1981,3,1845,2423,9.385,5.983,8.234,-2.917,-0.038,4.975,1.027,-2.794,9.282,-0.266,-0.276,0.559,angry
3.07,0,0,0,0,0,0,0,0,175,589,7,1838,2111,4,1653,2297,9.574,7.424,9.143,-3.171,-0.189,4.934,0.761,-4.202,9.809,-0.331,-0.390,0.680,angry
3.08,0,0,0,0,0,0,0,0,279,637,7,1937,2313,0,1620,2220,9.974,8.705,10.295,-3.413,-0.360,4.772,0.481,-3.256,9.457,-0.224,-0.381,0.876,angry
3.09,0,0,0,0,0,0,0,0,595,1159,2,2116,2536,5,1414,2044,10.599,9.699,11.581,-3.622,-0.561,4.442,0.694,-5.851,6.079,0.209,-0.333,1.226,angry
3.10,0,0,0,0,0,0,0,0,1043,1467,7,2314,2751,0,1500,1833,11.061,11.260,13.788,-3.722,-0.946,4.090,2.380,-2.614,8.866,-0.110,-0.409,1.335,angry
3.11,0,0,0,0,0,0,0,0,1533,1903,7,2487,3032,5,1271,1451,14.933,15.091,11.095,-3.469,-1.196,3.777,1.858,-3.247,9.345,-0.100,-0.334,1.254,angry
3.12,0,0,0,0,0,0,0,0,2182,2457,7,2783,3255,7,662,575,-5.217,19.613,19.613,-2.810,-3.186,4.116,2.698,-4.238,7.506,-0.025,-0.185,0.669,angry
3.13,0,0,0,0,0,0,0,0,2469,2615,2,2903,3140,0,75,505,-1.252,19.613,15.591,-2.756,-4.385,3.700,1.587,-2.787,9.867,-0.182,-0.173,0.508,angry
3.14,0,0,0,0,0,0,0,0,2619,2729,0,3036,3061,2,0,574,-6.254,19.613,3.412,-2.582,-2.543,3.472,1.190,-2.342,9.218,-0.457,-0.104,0.151,angry
3.15,29,0,0,0,0,0,0,0,2856,2837,5,3126,3027,3,10,487,-14.248,19.613,-9.936,-1.411,0.239,2.342,1.513,-3.409,9.294,-0.438,-0.169,0.058,angry
3.16,112,0,0,0,0,0,0,0,3021,2931,0,3256,2829,25,1,410,-15.476,19.613,-9.874,-0.242,2.065,0.629,1.525,-3.311,9.328,-0.436,-0.241,-0.002,angry
3.17,79,0,0,0,0,0,0,0,3172,2953,0,3257,2019,1,0,152,-8.571,19.613,-13.027,3.076,0.900,0.335,0.591,-2.658,9.290,-1.692,-0.197,-0.076,angry
3.18,0,0,0,0,0,0,106,336,3316,2872,5,3237,1554,1,0,91,0.742,19.340,0.776,2.082,5.312,0.822,1.767,-1.745,9.340,-2.714,-0.013,-0.060,angry
3.19,0,0,0,0,299,0,746,2155,3357,2639,0,3177,1143,1,0,61,-9.002,-19.613,19.613,3.660,1.098,0.781,2.526,-2.332,9.792,-3.829,0.196,-0.154,angry
3.20,0,0,0,0,226,0,1535,3375,3337,2203,0,3052,823,1,0,69,5.559,19.613,19.613,3.750,-0.071,-3.363,5.976,-2.919,10.762,-4.366,0.357,-0.099,angry
3.21,0,0,0,0,375,0,2793,3725,2925,967,63,1625,139,16,11,47,13.726,-0.029,10.348,2.343,0.066,-0.893,6.407,-1.738,19.613,-4.366,2.068,1.879,angry
3.22,0,48,0,0,1137,0,3343,3761,1354,2665,0,2406,2479,1763,1661,3083,14.753,17.818,11.356,0.547,1.784,-1.075,-2.155,-11.909,19.613,-4.366,2.120,4.366,angry
3.23,0,596,0,0,1805,0,3504,3853,1337,2761,0,2468,2513,1773,1711,3167,0.354,4.489,15.694,0.382,0.948,-0.551,2.344,-19.613,19.613,-4.366,1.216,4.366,angry
3.24,0,1307,0,0,2384,0,3601,3856,0,0,0,0,0,0,0,0,3.632,2.772,9.464,0.192,0.621,-0.261,13.070,-14.387,19.613,-0.357,0.081,4.366,angry
3.25,0,1535,0,23,2526,0,3618,3835,0,0,0,0,0,0,0,0,3.493,3.098,10.257,0.258,0.286,-0.193,19.613,14.703,19.613,3.445,1.254,4.366,angry
3.26,0,1699,0,176,2672,0,3632,3792,0,0,0,0,0,0,0,0,3.606,2.909,9.258,0.333,0.120,-0.226,19.613,5.574,14.559,3.709,-0.117,2.098,angry
3.27,0,1866,0,218,2806,0,3616,3680,0,0,0,0,0,0,0,4,4.219,2.947,8.241,0.353,0.129,-0.257,19.091,3.677,14.111,3.863,-1.759,-0.319,angry
3.28,0,2065,0,299,2883,0,3567,3489,0,0,23,0,0,0,0,0,4.738,2.885,8.224,0.460,0.185,-0.316,15.924,-0.050,15.210,4.366,-2.416,-2.274,angry
3.29,0,2174,0,348,2946,0,3487,3217,0,5,0,0,0,0,0,0,4.860,3.519,9.290,0.475,0.189,-0.342,8.760,-2.406,14.820,4.366,-2.537,-3.318,angry
3.30,0,2287,0,459,2933,0,3366,2927,0,0,0,0,0,0,0,0,4.116,3.373,9.014,0.367,-0.007,-0.211,0.048,-2.421,13.458,4.366,-2.698,-3.586,angry
3.31,0,2352,0,551,2880,0,3139,2579,0,0,0,0,0,0,0,0,4.044,2.784,8.799,0.363,-0.103,-0.223,-5.358,-3.467,12.287,4.366,-3.021,-3.148,angry
3.32,0,2480,0,677,2881,0,2943,2226,0,16,0,0,0,0,0,0,3.974,3.115,8.246,0.383,-0.092,-0.293,-5.090,-5.255,12.119,4.366,-2.815,-2.244,angry
3.33,0,2559,0,761,2861,0,2775,1874,0,0,0,0,0,0,0,0,3.864,3.924,8.495,0.320,-0.089,-0.283,-2.729,-6.488,11.389,4.366,-2.333,-1.508,angry
3.34,0,2653,0,928,2846,0,2599,1158,0,0,0,0,0,0,0,0,3.996,2.914,7.649,0.317,0.010,-0.343,-0.560,-7.582,13.396,4.366,-2.015,-1.122,angry
3.35,39,2800,0,1129,2873,0,2340,609,0,0,0,0,0,0,0,0,4.264,2.832,7.367,0.382,0.160,-0.492,3.021,-9.926,17.298,4.366,-1.983,-1.281,angry
3.36,4,2939,0,1377,2903,0,2142,181,0,46,0,0,0,0,0,0,4.087,3.541,7.992,0.410,0.251,-0.612,3.261,-11.605,19.613,4.366,-2.404,-1.862,angry
3.37,108,3086,0,1807,2959,0,1984,0,0,0,0,0,0,0,0,0,4.369,3.462,7.884,0.470,0.315,-0.797,2.808,-12.380,19.613,4.366,-2.820,-2.310,angry
3.38,394,3225,0,2147,3018,0,1919,0,0,0,0,0,0,0,0,0,3.493,3.895,8.574,0.484,0.273,-0.793,3.122,-16.436,19.613,4.366,-2.730,-2.499,angry
3.39,747,3381,0,2509,3051,0,1722,0,0,0,0,0,0,0,0,0,3.543,4.238,9.182,0.504,0.225,-0.754,-2.866,-18.019,19.613,4.366,-3.106,-2.747,angry
3.40,1394,3533,0,2778,3038,0,1361,0,0,0,0,0,0,0,0,0,2.840,3.718,8.928,0.496,0.192,-0.539,-6.072,-19.613,17.420,4.366,-1.457,-1.225,angry
3.41,2006,3665,0,2960,2750,0,848,0,0,0,0,0,0,0,0,0,3.886,4.175,8.550,0.625,0.076,-0.322,-10.884,-19.613,17.779,4.366,-1.805,-0.162,angry
3.42,2496,3765,0,3094,2147,0,714,0,0,0,0,0,0,0,0,0,3.503,3.654,8.868,1.013,0.117,-0.299,-15.000,-19.613,0.326,3.396,-3.259,-0.357,angry
3.43,2841,3842,0,3216,1874,0,789,0,0,0,0,3,0,0,0,0,3.158,4.178,8.528,1.308,0.153,-0.283,-12.993,-19.613,-4.693,2.266,-3.125,0.413,angry
3.44,3120,3887,0,3294,1569,0,688,0,0,0,0,3,0,0,0,0,3.737,4.539,8.274,1.509,0.362,-0.348,-6.797,-19.613,-3.519,0.932,-1.679,-0.463,angry
3.45,3359,3911,0,3343,1266,0,629,0,0,0,0,0,0,0,0,0,4.259,3.371,9.007,1.909,0.310,-0.364,-12.948,-19.613,-6.352,-0.431,-0.383,-1.140,angry
3.46,3551,3915,0,3371,1168,0,432,0,0,0,0,0,0,2,0,0,4.173,3.757,8.741,2.465,0.381,-0.459,-12.797,-19.613,-1.405,-1.563,-0.109,-0.429,angry
3.47,3706,3845,0,3401,775,0,351,0,0,0,0,0,0,0,0,0,6.539,3.287,8.329,3.188,0.599,-0.553,5.222,-19.613,-2.193,-3.154,0.566,-1.924,angry
3.48,3801,3716,3967,3403,583,0,126,0,0,0,0,1,0,6,0,245,6.199,4.298,8.823,4.150,0.848,-0.935,-2.492,9.230,19.613,-1.193,1.880,-0.950,angry
3.49,3848,3280,3883,3297,294,0,0,0,0,0,0,0,0,0,0,1303,7.786,5.583,8.710,5.403,1.183,-1.701,-14.863,19.613,7.980,-4.366,-1.766,-0.402,angry
3.50,3857,1967,0,2880,10,0,0,0,0,0,0,0,0,0,0,2164,4.870,4.812,16.441,7.341,0.164,-2.792,-4.202,-19.604,19.613,-4.366,0.802,1.530,angry
3.51,3777,1348,2401,1843,0,0,0,0,0,0,0,0,0,0,414,2931,10.082,12.277,19.613,8.731,-0.323,-4.750,-1.966,-18.431,19.613,-4.366,-0.154,0.688,angry
3.52,2229,143,0,207,0,0,0,0,0,0,5,0,40,0,1903,3731,10.963,3.828,19.613,8.731,-0.214,-7.565,3.888,-5.832,12.730,-3.634,-0.657,0.405,angry
3.53,586,0,0,0,0,0,0,0,0,0,0,0,219,0,2649,3887,6.349,16.216,19.613,6.876,-1.432,-6.522,19.613,-1.707,19.613,-2.509,-0.473,0.683,angry
3.54,0,0,0,0,0,0,0,0,0,0,0,0,205,0,2961,3961,19.613,2.624,19.613,-0.199,-1.100,-4.963,5.459,-8.480,12.699,-0.826,0.923,0.567,angry
3.55,44,0,0,0,0,0,0,0,0,0,0,0,680,0,3048,3629,19.613,0.323,13.623,-1.658,0.720,-1.728,-1.046,-2.804,12.890,-0.247,0.944,0.340,angry
3.56,144,0,0,0,0,0,0,0,2,0,0,0,1207,0,3373,3977,19.613,-2.753,10.862,-1.843,1.797,-0.048,6.493,-3.256,8.071,-0.071,1.094,0.377,angry
3.57,210,0,0,0,0,0,0,0,0,25,0,0,1525,0,3435,3965,12.756,-3.127,13.472,-2.002,-0.056,1.577,1.159,-2.377,10.800,-0.094,1.008,0.273,angry
3.58,180,0,0,0,0,0,0,0,0,0,0,0,1749,0,3463,3849,12.926,-1.961,11.176,-2.177,-1.483,2.779,2.162,-1.930,9.060,-0.235,1.010,0.337,angry
3.59,121,0,0,0,0,0,0,0,0,0,115,0,1879,0,3311,3816,11.375,-1.642,10.321,-3.269,-1.005,3.507,2.658,-2.610,10.008,-0.260,1.015,0.330,angry
3.60,102,0,0,0,0,0,0,0,0,0,0,0,1977,44,3181,3747,6.254,3.033,11.121,-3.818,-0.719,3.957,2.516,-2.085,8.847,-0.347,1.074,0.363,angry
3.61,16,0,0,0,0,0,0,0,0,0,0,0,2003,0,3030,3626,0.567,2.957,12.328,-4.456,-1.158,3.912,3.019,-2.339,9.179,-0.418,1.225,0.470,angry
3.62,16,0,0,0,0,0,0,0,0,0,0,0,2005,0,2808,3483,-0.165,3.888,11.341,-4.974,-1.541,3.574,1.389,-2.902,10.180,-0.402,0.728,0.420,angry
3.63,0,0,0,0,0,0,0,0,0,0,0,0,1863,11,2281,3339,1.298,5.217,10.113,-5.370,-1.384,3.135,2.172,-3.036,9.728,-0.333,0.528,0.430,angry
3.64,0,0,0,0,0,0,0,0,0,0,0,9,1788,0,2223,3211,2.897,7.271,11.389,-5.670,-0.992,2.833,1.468,-2.200,9.246,-0.415,0.434,0.451,angry
3.65,0,0,0,0,0,0,0,0,0,279,0,182,1880,0,2205,3095,4.108,9.249,12.933,-5.880,-0.934,2.773,1.401,-2.478,8.990,-0.471,0.340,0.480,angry
3.66,0,0,0,0,0,0,0,0,0,367,0,601,2021,0,2159,2957,6.395,10.846,13.501,-5.977,-1.014,2.931,1.635,-2.861,9.388,-0.474,0.246,0.488,angry
3.67,0,0,0,0,0,0,0,0,3,611,7,1193,2253,0,1993,2809,8.327,12.955,15.924,-6.032,-0.937,3.273,1.568,-2.842,10.214,-0.572,0.212,0.460,angry
3.68,0,0,0,0,0,0,0,0,24,821,2,1689,2328,23,1967,2601,9.340,14.540,18.265,-6.016,-0.897,3.601,1.937,-5.669,11.013,-0.588,0.225,0.371,angry
3.69,0,0,0,0,0,0,0,0,313,1143,17,1930,2392,5,1908,2386,10.513,16.264,19.613,-5.856,-0.997,3.836,2.078,-3.524,10.187,-0.343,0.138,0.256,angry
3.70,0,0,0,0,0,0,0,0,645,1480,63,2158,2525,7,1823,2201,11.150,19.613,18.067,-5.356,-0.107,3.968,1.844,-2.904,9.242,-0.274,0.115,0.242,angry
3.71,0,0,0,0,0,0,0,0,1467,1875,12,2632,2825,7,1380,1703,-5.442,19.613,11.629,-4.397,-2.688,2.721,1.283,-3.254,8.880,-0.253,0.200,0.181,angry
3.72,112,0,0,0,0,0,0,0,2295,2332,7,2876,2781,5,16,828,-15.814,19.613,-11.349,-2.256,-2.646,1.683,1.583,-3.031,9.718,-0.439,0.252,-0.006,angry
3.73,203,0,0,0,90,0,0,0,2570,2507,2,2991,2588,3,3,759,-14.315,19.613,-11.418,-0.094,-0.355,0.047,1.707,-4.527,8.753,-0.629,0.206,-0.146,angry
3.74,256,0,0,0,0,0,0,0,2996,2638,5,3117,2007,5,11,379,-5.538,19.613,-3.912,1.667,-0.063,-0.848,1.504,-2.559,9.929,-1.159,0.072,-0.189,angry
3.75,20,0,0,0,66,0,423,1177,3355,2431,0,3006,902,0,0,150,5.353,4.602,18.052,2.168,3.020,0.281,1.788,-1.731,9.512,-3.408,0.095,-0.309,angry
3.76,81,0,0,0,541,0,1331,2804,3511,2127,0,3028,423,0,0,139,-13.877,-19.613,19.446,7.893,-1.990,-1.697,2.421,-1.650,8.466,-4.366,0.359,-0.245,angry
3.77,0,0,0,0,407,0,2932,3568,3114,1065,61,2418,203,0,0,41,3.402,19.613,17.947,4.124,-0.501,-2.827,4.867,-4.295,8.198,-4.366,0.412,0.603,angry
3.78,0,558,0,0,1775,0,3409,3746,1583,2553,0,2488,2579,1645,1554,3112,4.470,5.224,-0.354,1.065,3.591,-1.399,0.831,0.055,19.613,-4.366,0.710,4.366,angry
3.79,0,1867,0,91,2451,0,3504,3783,1576,2711,0,2645,2643,1734,1707,3289,9.481,7.252,8.842,0.887,2.378,-1.284,-1.848,-17.346,19.613,-4.366,-0.293,4.366,angry
3.80,192,2384,0,1317,2797,0,3543,3817,1513,0,0,21,2339,1863,2023,0,6.941,7.106,8.442,0.593,0.607,-0.580,17.626,3.218,19.613,-0.628,-0.380,4.366,angry
3.81,362,2717,0,1883,2976,0,3538,3731,0,0,0,0,0,0,0,0,4.566,4.635,9.239,0.512,0.176,-0.308,18.665,7.573,19.613,3.649,3.036,2.287,angry
3.82,396,2805,0,2023,3055,0,3472,3601,0,0,0,0,0,0,0,0,3.658,4.396,9.474,0.440,0.046,-0.226,13.951,5.744,12.028,4.288,0.682,0.248,angry
3.83,410,2885,0,2059,3102,0,3361,3389,0,0,0,0,0,0,0,0,3.141,3.790,9.493,0.416,-0.053,-0.172,13.060,3.764,6.749,4.366,-0.855,-1.164,angry
3.84,400,2943,0,2025,3087,0,3152,3135,0,0,0,0,0,0,0,0,3.924,3.694,8.614,0.464,-0.061,-0.216,8.717,2.258,10.635,4.366,-1.147,-2.153,angry
3.85,476,2992,0,2096,2981,0,2849,2821,0,0,0,0,0,0,0,0,3.888,3.723,8.365,0.500,-0.011,-0.264,2.392,-1.516,11.590,4.366,-1.546,-2.508,angry
3.86,575,3036,0,2201,2839,0,2522,2323,0,0,28,0,0,0,0,0,3.757,3.304,8.406,0.530,0.051,-0.322,-1.925,-2.387,10.388,4.366,-2.206,-2.241,angry
3.87,658,3068,0,2277,2614,0,1979,1263,0,0,0,0,0,0,0,0,3.936,3.534,8.341,0.520,-0.039,-0.386,-1.748,-3.668,9.704,4.366,-2.291,-1.650,angry
3.88,655,3107,0,2347,2117,0,1323,128,0,0,0,0,0,0,0,0,3.383,3.919,8.557,0.436,-0.082,-0.497,-1.602,-4.135,9.474,4.366,-1.954,-1.048,angry
3.89,723,3158,0,2394,2016,0,885,0,0,0,0,0,0,0,0,0,3.268,4.082,8.466,0.292,-0.117,-0.586,-0.982,-5.239,11.468,4.366,-1.882,-0.584,angry
3.90,799,3217,0,2476,1936,0,498,0,0,0,0,0,0,0,0,10,3.565,3.790,8.021,0.203,-0.136,-0.667,1.262,-6.369,13.862,4.366,-2.184,-0.463,angry
3.91,861,3290,0,2590,1745,0,411,0,0,0,28,0,0,0,0,0,3.682,4.398,8.114,0.120,-0.092,-0.611,3.103,-7.580,16.214,4.366,-2.579,-0.727,angry
3.92,1262,3373,0,2747,1686,0,394,0,0,0,0,0,0,0,0,0,3.290,5.255,8.619,0.195,-0.207,-0.666,4.336,-8.645,18.754,4.366,-2.889,-1.234,angry
3.93,1568,3455,0,2893,1856,0,233,0,0,0,0,0,0,79,0,0,3.795,4.822,8.052,0.211,-0.213,-0.617,1.365,-8.693,19.613,4.366,-3.340,-1.745,angry
3.94,1946,3521,0,3024,1690,0,128,0,0,0,0,0,0,0,0,0,3.704,4.834,8.665,0.226,-0.232,-0.563,0.122,-12.031,19.613,4.366,-3.884,-1.867,angry
3.95,2316,3611,0,3113,1903,0,74,0,0,0,0,0,0,0,0,0,3.208,5.052,8.468,0.352,-0.191,-0.378,-0.929,-15.625,19.613,4.366,-3.694,-1.913,angry
3.96,2611,3683,0,3181,1839,0,54,0,0,0,0,0,0,0,0,0,3.029,4.729,8.490,0.490,-0.162,-0.199,-4.484,-16.403,19.613,4.366,-3.516,-2.046,angry
3.97,2825,3777,0,3242,1817,0,29,0,0,0,0,0,0,0,0,0,3.201,4.259,8.313,0.703,-0.081,-0.120,-2.933,-19.613,16.099,4.366,-2.107,-1.393,angry
3.98,2999,3835,0,3277,1637,0,9,0,0,0,0,2,0,0,0,0,3.654,4.448,7.963,0.943,0.031,-0.109,-10.896,-19.613,6.812,3.482,-2.591,-1.478,angry
3.99,3182,3888,0,3312,1287,0,0,0,0,0,0,0,0,0,0,0,3.941,4.302,8.155,1.228,0.113,-0.177,-14.609,-19.613,-5.827,2.043,-3.105,-0.903,angry
4.00,3374,3916,0,3347,1082,0,0,0,0,0,0,0,0,0,0,0,4.156,3.931,8.143,1.527,0.244,-0.256,-10.642,-19.613,-4.858,0.758,-2.272,-0.517,angry
4.01,3533,3917,0,3376,1085,0,0,0,0,0,0,0,0,0,0,0,4.264,4.453,8.045,1.861,0.372,-0.335,-12.428,-19.613,-2.998,-0.324,-0.631,-1.055,angry
4.02,3662,3882,3987,3395,1007,0,0,0,0,0,0,4,0,0,0,0,4.738,3.929,8.593,2.356,0.568,-0.408,-14.004,-19.613,1.314,-1.090,-0.145,-0.516,angry
4.03,3761,3783,3981,3405,796,0,0,0,0,0,0,0,1,0,0,0,5.557,3.780,8.121,3.117,0.744,-0.727,8.023,-19.613,-5.116,-4.044,2.491,-1.464,angry
4.04,3824,3544,3931,3382,693,0,0,0,0,0,0,0,0,0,0,749,3.577,2.409,8.576,4.198,0.819,-1.294,-7.104,19.613,19.613,-1.932,1.578,0.064,angry
4.05,3823,2895,3728,3141,418,0,0,0,0,0,0,0,0,0,0,1997,4.954,2.492,9.838,5.283,1.055,-1.903,-6.962,8.224,0.340,-4.366,-0.087,0.753,angry
4.06,3830,1803,2935,2160,193,0,0,0,0,0,33,0,0,0,81,2679,10.891,8.626,13.434,6.739,0.277,-3.165,0.388,-19.613,19.613,-4.325,0.857,1.254,angry
4.07,2996,656,1363,1456,0,0,0,0,0,0,0,0,0,0,1485,3693,10.786,10.728,19.613,8.636,-0.610,-5.938,7.367,-2.933,8.408,-3.304,0.693,0.330,angry
4.08,1854,129,0,250,0,0,0,0,0,0,0,0,11,0,2214,3652,12.596,5.559,19.613,8.564,-0.853,-6.983,9.488,-3.840,19.613,-2.509,0.045,0.437,angry
4.09,726,0,0,0,0,0,0,0,0,0,0,11,189,0,2568,3573,3.773,19.132,19.613,6.967,-0.730,-6.828,-1.690,-12.493,12.495,-2.126,1.404,0.690,angry
4.10,83,0,0,0,0,0,0,0,5,0,0,0,483,0,2858,3899,19.613,8.040,19.613,-0.566,-0.402,-4.883,-0.876,-4.288,15.328,-1.364,1.395,0.653,angry
4.11,219,0,0,0,0,0,0,0,0,0,0,103,804,0,2957,3877,19.613,5.303,17.265,-1.584,0.768,-1.729,3.254,-3.833,10.372,-0.602,0.944,0.453,angry
4.12,477,0,0,0,0,0,0,0,0,0,0,237,1042,0,2788,3548,19.613,-2.708,6.563,-2.088,3.149,-0.166,1.286,-3.275,11.794,-0.296,0.740,0.446,angry
4.13,497,0,0,0,0,0,0,0,1,0,33,555,1305,0,3091,3938,10.503,-3.333,12.261,-1.963,1.169,1.367,0.785,-2.478,10.623,-0.218,0.435,0.368,angry
4.14,473,0,0,0,0,0,0,0,0,0,0,679,1528,0,3154,3955,10.745,-2.184,12.050,-2.069,-0.966,2.474,0.989,-2.291,10.501,-0.240,0.233,0.267,angry
4.15,453,0,0,0,0,0,0,0,0,0,0,866,1747,0,3147,3939,11.667,0.275,10.654,-2.892,-0.837,3.162,1.686,-2.638,10.068,-0.210,0.166,0.228,angry
4.16,432,0,0,0,0,0,0,0,0,0,0,829,1881,0,3059,3855,6.515,1.573,11.262,-3.818,-0.345,3.461,2.296,-2.569,9.522,-0.288,0.223,0.251,angry
4.17,350,0,0,0,0,0,0,0,0,0,0,887,1979,0,2856,3751,0.567,1.879,11.827,-4.535,-0.762,3.405,2.512,-2.444,9.388,-0.287,0.282,0.259,angry
4.18,320,0,0,0,0,0,0,0,0,7,0,1045,1900,0,2585,3543,-1.068,2.466,10.851,-5.033,-1.447,3.016,1.808,-1.911,9.108,-0.329,0.310,0.348,angry
4.19,347,0,0,0,0,0,0,0,0,0,0,1341,1798,0,2121,3423,0.302,3.903,10.590,-5.478,-1.578,2.524,1.968,-2.282,9.493,-0.391,0.351,0.471,angry
4.20,379,0,0,0,0,0,0,0,0,51,0,1365,1661,0,2087,3284,2.169,5.995,11.598,-5.905,-1.348,2.125,1.788,-2.488,9.586,-0.444,0.278,0.538,angry
4.21,411,0,0,0,0,0,0,0,0,393,2,1547,1611,7,1829,3161,3.220,8.219,13.238,-6.227,-1.340,1.997,1.820,-3.129,9.421,-0.427,0.231,0.568,angry
4.22,422,0,0,0,0,0,0,0,1,599,2,1684,1709,0,1592,3031,4.247,9.606,13.791,-6.356,-1.616,2.114,1.532,-3.175,9.455,-0.437,0.193,0.574,angry
4.23,459,0,0,0,0,0,0,0,15,585,5,1933,1756,0,1691,2975,5.698,11.102,14.650,-6.320,-1.782,2.399,1.274,-2.899,9.462,-0.468,0.107,0.494,angry
4.24,479,0,0,0,0,0,0,0,18,624,2,2119,1875,1,1637,2915,6.864,12.943,18.107,-6.251,-1.876,2.756,1.173,-2.974,8.961,-0.388,0.084,0.429,angry
4.25,471,0,0,0,0,0,0,0,85,789,2,2296,1863,4,1484,2739,8.911,15.301,19.613,-6.054,-1.998,3.082,1.602,-3.093,9.215,-0.313,0.155,0.293,angry
4.26,415,0,0,0,0,0,0,0,349,1203,12,2475,2037,10,1463,2535,11.535,19.613,19.613,-5.837,-1.810,3.606,1.604,-3.170,10.221,-0.264,0.134,0.135,angry
4.27,384,0,0,0,0,0,0,0,626,1301,7,2647,2213,6,1557,2219,-1.279,19.613,19.613,-5.242,-2.012,4.028,1.499,-3.797,10.379,-0.253,0.063,0.086,angry
4.28,474,0,0,0,0,0,0,0,1789,1716,2,2860,2601,5,909,1597,-7.345,19.613,-3.812,-3.342,-1.649,2.927,1.992,-3.534,10.039,-0.167,0.182,0.138,angry
4.29,494,0,0,0,79,0,0,0,2636,2103,7,3043,2373,6,60,893,-18.617,19.613,-11.155,-0.706,-1.543,1.341,1.822,-2.370,9.680,-0.556,0.127,0.022,angry
4.30,530,0,0,0,100,0,0,0,2963,2277,7,3172,2023,1,1,862,-12.000,19.613,-8.674,1.063,0.175,0.272,1.597,-4.046,9.345,-0.654,0.204,-0.098,angry
4.31,429,0,0,0,0,0,0,0,3319,2406,0,3345,1397,1,1,357,4.398,19.613,-6.735,3.657,0.784,0.028,1.913,-2.895,9.412,-1.063,0.094,-0.174,angry
4.32,65,0,0,0,31,0,107,573,3451,2327,0,3357,836,6,0,316,10.058,5.725,19.252,2.421,1.936,0.286,1.556,-1.669,9.924,-1.978,-0.025,-0.238,angry
4.33,0,0,0,0,443,0,1141,2962,3659,1849,2,3302,183,0,0,101,-9.922,1.887,0.029,7.581,-2.325,-1.714,0.721,-1.686,9.321,-4.366,0.438,-0.145,angry
4.34,0,0,0,0,449,0,2958,3537,3477,1032,0,2805,217,0,0,95,10.846,19.613,10.195,3.273,0.049,-2.109,1.999,-2.174,6.699,-4.366,0.496,0.217,angry
4.35,0,843,0,0,1648,0,3296,3696,1513,2677,0,2533,2591,1755,1674,3205,0.522,5.203,11.897,1.064,3.947,-1.903,10.932,-7.271,19.613,-4.366,1.033,3.712,angry
4.36,313,1807,0,433,2187,0,3392,3789,1573,2649,0,2589,2675,1815,1653,3363,7.623,11.193,13.443,0.829,2.178,-1.135,5.327,-5.756,19.613,-4.366,0.413,4.366,angry
4.37,772,2160,0,1373,2449,0,3425,3818,1571,2661,0,2659,2663,1819,1657,3221,4.508,4.726,8.808,0.442,0.591,-0.484,9.263,-10.781,19.613,-3.532,-1.433,4.366,angry
4.38,853,2377,0,1872,2623,0,3437,3745,0,0,0,0,0,0,0,23,3.797,4.202,9.045,0.451,0.229,-0.295,19.613,11.023,19.613,3.451,1.566,3.415,angry
4.39,1037,2544,432,2082,2690,0,3423,3712,0,0,0,0,0,0,0,33,3.292,4.468,9.349,0.398,0.094,-0.200,16.307,2.947,12.984,3.782,0.222,1.520,angry
4.40,1141,2662,0,2256,2772,0,3344,3583,0,0,0,0,0,0,0,9,3.144,3.838,9.172,0.323,0.034,-0.137,13.956,3.405,9.294,3.905,-1.614,-0.054,angry
4.41,1265,2753,3239,2357,2816,0,3200,3429,0,0,0,0,0,0,0,0,3.706,3.819,8.748,0.339,0.002,-0.137,13.127,-0.014,7.757,4.106,-2.281,-1.651,angry
4.42,1393,2835,48,2540,2705,0,2832,3028,0,0,0,0,0,0,0,0,3.428,4.051,8.701,0.388,0.055,-0.144,-1.044,-2.974,11.202,4.366,-3.148,-2.776,angry
4.43,1584,2949,0,2683,2557,0,2320,2608,0,0,0,0,0,0,0,0,3.340,4.075,8.722,0.351,-0.023,-0.127,-3.709,-3.010,10.195,4.366,-3.214,-2.428,angry
4.44,1669,3049,0,2802,2363,0,1665,1637,0,0,0,0,0,0,0,0,3.239,4.159,8.583,0.285,-0.074,-0.110,-3.318,-3.958,13.506,4.366,-2.119,-0.960,angry
4.45,1753,3125,0,2896,2064,0,1179,167,0,0,0,0,0,0,0,0,3.290,4.305,8.322,0.199,-0.049,-0.114,-0.050,-6.029,15.909,4.366,-2.392,-0.607,angry
4.46,1813,3185,0,2960,1968,0,943,0,0,0,0,0,0,0,0,0,3.400,4.099,8.502,0.151,-0.042,-0.125,0.615,-6.958,18.651,4.366,-2.626,-0.720,angry
4.47,1872,3273,0,3024,1972,0,621,0,0,0,0,0,0,0,0,0,3.512,3.840,8.363,0.180,-0.064,-0.132,-0.263,-8.746,19.613,4.366,-3.044,-0.877,angry
4.48,1995,3345,0,3092,1973,0,346,0,0,0,0,0,0,0,0,0,3.326,4.161,8.502,0.167,-0.090,-0.174,2.404,-11.868,19.613,4.366,-2.923,-1.052,angry
4.49,2209,3460,0,3147,2129,0,289,0,0,0,0,0,0,0,0,0,3.268,4.152,8.509,0.193,-0.140,-0.209,1.599,-15.601,19.613,4.366,-2.813,-1.648,angry
4.50,2435,3507,0,3199,2065,0,282,0,0,0,0,0,0,0,0,0,3.354,4.393,8.396,0.250,-0.118,-0.205,-2.152,-19.613,19.613,4.366,-3.211,-2.228,angry
4.51,2605,3575,0,3234,1915,0,265,0,0,0,0,0,0,0,0,0,3.378,4.017,8.440,0.424,-0.102,-0.173,-0.737,-19.613,16.791,4.178,-2.330,-2.297,angry
4.52,2802,3643,0,3293,1685,0,131,0,0,0,0,0,0,0,0,0,3.273,3.946,8.605,0.661,-0.112,-0.183,-7.195,-19.613,4.022,3.387,-1.996,-2.593,angry
4.53,2963,3703,0,3327,1335,0,114,0,0,0,0,0,25,0,0,0,3.397,4.166,8.270,0.843,-0.035,-0.170,-13.566,-19.613,-4.401,1.682,-2.108,-2.667,angry
4.54,3115,3775,0,3369,1314,0,0,0,0,27,0,0,0,0,0,0,3.627,4.278,8.195,1.021,0.081,-0.173,-11.487,-19.613,-4.827,0.245,-1.711,-2.360,angry
4.55,3254,3818,0,3408,754,0,0,0,0,0,0,0,35,0,0,0,3.891,4.377,8.124,1.246,0.281,-0.284,-10.465,-19.613,-1.865,-0.765,-0.773,-2.329,angry
4.56,3411,3889,0,3394,566,0,0,0,0,0,0,0,0,0,0,0,3.776,3.891,8.396,1.513,0.298,-0.233,-12.529,-19.613,-0.826,-1.451,-0.382,-1.834,angry
4.57,3542,3828,16,3451,617,0,0,0,0,0,0,0,0,0,0,0,4.137,4.252,8.938,1.844,0.383,-0.276,-5.205,-4.286,5.001,-2.868,-0.257,-1.642,angry
4.58,3664,3824,0,3430,652,0,0,0,0,0,0,0,0,0,0,57,4.175,3.223,8.645,2.365,0.544,-0.406,7.008,-10.393,1.523,-1.263,2.790,-1.594,angry
4.59,3738,3619,0,3447,332,0,0,0,1554,2681,33,2657,2344,1861,1720,3270,4.638,3.807,8.923,3.042,0.864,-0.616,-14.147,19.613,19.613,-2.861,0.474,-0.585,angry
4.60,3789,2551,3760,3237,0,0,0,0,0,0,0,0,0,0,0,2069,4.729,2.176,7.906,4.909,0.898,-1.466,-14.291,3.946,3.223,-4.366,0.140,0.849,angry
4.61,3758,1808,3257,2777,0,0,0,0,0,4,0,0,0,0,425,2826,6.929,4.915,16.838,5.714,0.199,-2.379,-9.936,-19.613,19.613,-4.366,0.973,1.535,angry
4.62,3583,1348,2340,1751,0,0,0,0,1576,17,15,82,2665,1829,1685,3469,9.469,7.724,19.613,7.138,-0.809,-3.522,2.054,-6.448,17.255,-3.833,0.657,1.314,angry
4.63,2318,273,0,368,0,0,0,0,29,0,0,0,349,0,2775,3847,5.667,13.314,19.613,7.166,-0.895,-5.237,-1.396,-11.617,18.189,-2.630,1.613,0.924,angry
4.64,561,0,0,0,0,0,0,0,155,0,0,7,1819,0,3020,3665,14.911,9.804,19.613,0.725,-0.993,-6.121,-0.505,-5.492,15.716,-1.553,1.602,1.058,angry
4.65,208,0,0,0,0,0,0,0,277,87,0,0,2201,0,3287,3925,19.613,12.151,10.774,-0.806,0.411,-4.367,2.102,-6.127,13.812,-1.174,0.698,0.431,angry
4.66,420,0,0,0,0,0,0,0,379,269,0,215,2493,5,3357,3927,19.613,-1.958,11.660,-1.636,1.292,-1.731,0.311,-3.019,11.669,-0.832,0.243,0.109,angry
4.67,528,0,0,0,0,0,0,0,547,363,7,635,2693,4,3379,3914,12.866,-2.945,6.800,-1.336,-0.464,1.712,0.960,-3.438,9.778,-0.606,-0.165,-0.032,angry
4.68,449,0,0,0,0,0,0,0,600,325,20,1149,2964,3,3355,3819,7.853,-0.797,7.934,-1.466,-1.497,3.209,1.733,-3.371,9.522,-0.348,-0.060,-0.002,angry
4.69,304,0,0,0,0,0,0,0,729,860,63,1531,3045,9,3115,3553,2.282,0.340,9.550,-2.512,-1.219,3.572,2.090,-3.814,9.345,-0.303,0.146,-0.014,angry
4.70,287,0,0,0,0,0,0,0,792,1049,0,1735,3043,7,2867,3410,-0.692,0.723,10.077,-3.129,-1.166,3.248,1.982,-3.474,8.921,-0.275,0.180,-0.068,angry
4.71,313,0,0,0,0,0,0,0,995,1055,2,1873,2998,4,2531,3247,-3.342,2.131,10.913,-4.121,-1.385,2.121,1.585,-3.493,9.268,-0.222,0.223,-0.082,angry
4.72,375,0,0,0,0,0,0,0,1171,1098,12,2123,2772,3,1883,2925,-0.048,5.892,10.546,-4.865,-1.459,0.963,1.219,-3.273,9.129,-0.143,0.271,-0.046,angry
4.73,411,0,0,0,0,0,0,0,1274,727,2,2427,2185,3,1368,2637,2.468,9.498,10.432,-5.088,-1.444,0.669,1.444,-3.852,9.316,0.031,0.275,0.044,angry
4.74,451,0,0,0,0,0,0,0,1507,683,2,2553,1791,5,943,2397,2.612,10.843,10.185,-4.954,-1.692,0.662,1.539,-3.373,9.357,0.071,0.236,0.132,angry
4.75,435,0,0,0,0,0,0,0,1759,589,5,2653,1641,4,773,2149,3.141,12.407,9.208,-4.553,-1.860,0.661,1.539,-3.364,9.261,-0.012,0.140,0.146,angry
4.76,384,0,0,0,0,0,0,0,1999,735,5,2617,1564,5,362,1880,2.207,13.522,7.269,-3.734,-2.005,0.577,1.798,-3.972,9.026,0.184,0.274,0.180,angry
4.77,194,0,0,0,0,0,0,0,2011,840,5,2847,1581,4,75,1515,-1.207,14.834,3.824,-2.336,-2.629,0.430,1.171,-3.208,8.825,0.022,0.164,0.107,angry
4.78,146,0,0,0,313,0,0,0,2189,987,0,2891,1449,0,4,1355,-12.167,7.839,13.376,-2.029,-0.172,-1.056,1.020,-3.668,10.348,-0.125,0.031,0.022,angry
4.79,112,173,0,0,373,0,0,0,2316,1207,0,3013,1269,3,0,1067,-19.613,19.613,12.309,-2.255,-3.162,-2.219,0.589,-3.642,9.524,-0.196,0.082,0.011,angry
4.80,237,832,0,0,741,0,0,0,2631,1311,0,3079,711,1,3,633,-17.212,19.613,-4.645,-1.864,-0.345,-4.047,1.628,-3.639,8.782,-0.390,-0.107,-0.097,angry
4.81,432,1104,0,0,1135,0,176,0,2840,1452,0,3192,599,1,0,342,-9.500,19.613,5.473,-0.553,2.133,-3.433,1.906,-3.187,9.749,-0.634,-0.098,-0.144,angry
4.82,675,1522,0,585,1757,0,1776,1318,2899,1619,0,3196,427,0,1,184,-8.001,4.413,-0.685,0.079,1.209,-0.938,1.856,-1.235,10.388,-1.510,-0.092,-0.195,angry
4.83,1310,2031,0,1859,2103,0,2647,2901,2855,1518,0,2959,179,0,0,93,4.082,5.662,7.999,0.848,0.149,-0.127,2.179,-0.500,9.919,-4.270,0.281,-0.288,angry
4.84,2027,2270,0,2265,2002,0,2725,3081,1509,2557,2,2490,2582,1747,1559,3116,5.744,4.472,7.106,0.593,0.220,0.341,1.379,4.599,17.796,-4.366,-0.446,-0.606,angry
4.85,2386,2586,0,2582,2225,0,2907,3214,1501,2681,2,2548,2613,1806,1693,3198,1.413,5.449,9.199,0.178,0.185,0.130,6.359,-2.555,19.474,-4.366,-0.185,-0.376,angry
4.86,2639,2786,0,2787,2463,501,2976,3344,71,0,23,253,0,0,0,0,2.346,4.295,9.067,0.165,0.148,0.040,-10.175,6.251,19.613,-2.552,1.145,2.558,angry
4.87,2786,2861,0,2935,2531,675,3017,3346,1581,2663,0,2600,2652,1747,1654,3231,2.674,4.434,8.859,0.140,0.047,-0.003,11.976,4.611,14.995,1.599,2.862,3.009,angry
4.88,2883,2991,0,3014,2592,65,2983,3309,1577,2649,0,2589,2652,1756,1651,3212,2.966,4.319,8.787,0.154,-0.010,-0.006,16.917,-1.549,11.969,2.707,2.883,1.435,angry
4.89,2951,3071,0,3047,2638,0,2823,3175,1567,2696,0,2639,2661,1813,1709,3263,3.326,4.302,8.605,0.175,-0.015,0.017,15.404,1.630,3.551,2.917,1.716,-2.522,angry
4.90,2983,3092,0,3042,2559,0,2679,2917,0,0,0,0,0,0,0,0,3.395,4.254,8.428,0.143,-0.021,0.004,7.029,-2.176,6.991,2.813,0.865,-4.366,angry
4.91,2993,3120,0,3028,2528,0,2559,2794,1579,2616,0,2490,2631,1717,1609,3176,3.400,4.264,8.507,0.126,-0.038,-0.002,3.005,-2.392,7.159,2.881,0.855,-4.366,angry
4.92,3011,3183,0,3005,2499,0,2421,2611,1521,2661,0,2613,2523,1845,1689,3223,3.378,4.338,8.380,0.088,-0.076,-0.021,3.165,-4.302,8.543,2.969,0.921,-4.366,angry
4.93,3024,3216,0,2978,2511,0,2352,2502,0,0,0,0,0,0,0,0,3.467,4.149,8.464,0.037,-0.136,-0.042,12.878,-11.186,7.585,3.146,1.956,-4.366,angry
4.94,3035,3230,0,2951,2558,0,2391,2519,0,0,0,0,0,0,0,0,3.359,4.118,8.543,0.031,-0.185,-0.047,19.613,-17.585,4.257,2.789,2.538,-4.366,angry
4.95,3015,3201,0,2896,2608,0,2409,2525,0,0,0,0,0,0,0,0,3.115,4.252,8.471,0.023,-0.210,-0.046,19.613,-19.613,0.218,2.003,2.859,-4.366,angry
4.96,3056,3239,0,2882,2683,0,2481,2559,0,0,0,0,0,0,1,0,3.361,4.250,8.581,0.012,-0.212,-0.044,15.366,-19.613,-3.304,0.854,2.889,-4.366,angry
4.97,3067,3219,0,2753,2704,0,2527,2608,0,0,0,0,0,0,0,0,3.426,4.116,8.803,0.049,-0.250,-0.076,2.583,-19.613,1.563,-0.196,4.244,-4.366,angry
4.98,3071,3232,0,2453,2725,0,2539,2511,0,0,0,0,0,0,0,0,3.232,4.113,8.933,0.036,-0.268,-0.093,-4.429,-19.613,-5.624,-1.399,3.155,-4.366,angry
4.99,3060,3280,0,2190,2800,0,2545,2084,0,0,0,341,0,0,0,0,2.516,3.972,9.756,-0.109,-0.331,-0.209,-0.055,-19.613,1.659,-1.127,2.380,-4.366,angry
5.00,2951,3184,0,1943,2800,0,2608,2234,1575,2555,0,2491,2583,1653,1558,3115,0.407,2.289,11.040,-0.626,-0.570,-0.654,-1.041,-1.255,9.189,-0.309,0.783,-2.705,angry
5.01,2687,2833,0,1527,2500,0,2559,2480,149,1383,17,1707,1377,0,16,0,-4.520,0.069,13.836,-1.334,-1.043,-2.029,4.223,-2.792,7.702,0.751,-0.013,-0.011,angry
5.02,2253,2430,0,871,1447,0,1810,2611,1493,2587,12,2517,2595,1659,1576,3145,-9.297,1.812,14.320,-2.062,-1.791,-4.434,3.103,-4.365,9.644,1.184,0.129,0.193,angry
5.03,1822,1771,0,55,461,0,965,2413,504,1982,12,2203,3188,0,1678,3,-4.338,6.764,11.387,-2.843,-2.334,-6.208,1.975,-3.582,8.993,0.468,0.036,0.370,angry
5.04,1143,176,0,0,236,0,0,1015,463,2439,2,2488,2797,73,2153,3455,1.563,14.315,10.654,-3.842,-2.638,-6.804,1.070,-2.222,9.546,0.366,0.238,-0.260,angry
5.05,707,0,0,0,0,0,0,0,625,2099,58,2409,3343,5,2747,1469,0.766,19.613,13.786,-4.267,-3.217,-7.219,1.906,-1.968,9.809,0.144,0.311,-0.339,angry
5.06,752,0,0,0,0,0,0,0,809,2137,12,2520,3181,5,2457,1316,-4.501,18.972,2.227,-4.124,-5.023,-6.977,1.312,-2.816,9.479,-0.376,0.236,-0.573,angry
5.07,619,0,0,0,0,0,0,0,1051,2287,17,2696,3021,0,1958,731,-0.400,16.623,-1.413,-3.286,-3.845,-6.706,1.080,-3.603,9.670,-0.459,0.411,-1.240,angry
5.08,548,0,0,0,0,0,0,0,1111,2373,17,2780,2907,6,1900,584,-0.067,12.941,2.512,-2.293,-2.218,-5.967,0.869,-3.440,9.505,-0.526,0.620,-1.672,angry
5.09,528,0,0,0,0,0,0,0,1395,2697,25,2451,2474,1991,2189,3419,1.410,10.228,4.805,-1.660,-1.205,-5.000,0.917,-3.716,9.507,-0.630,1.077,-2.577,angry
5.10,487,0,0,0,0,0,0,0,1595,2647,194,2583,2648,1718,1640,3208,3.515,5.926,4.094,-1.001,-0.435,-4.180,0.433,-3.675,9.455,-0.680,1.210,-3.109,angry
5.11,464,0,0,0,0,0,0,0,1593,2611,38,2547,2622,1701,1609,3172,7.369,3.764,7.779,-0.507,0.474,-3.062,0.438,-3.642,9.244,-0.826,1.113,-3.178,angry
5.12,474,0,0,0,0,0,0,0,1299,2359,25,2169,2623,2056,2211,105,6.922,1.563,10.281,-0.429,0.494,-1.812,1.125,-3.450,9.548,-0.686,1.088,-2.765,angry
5.13,511,0,0,0,0,0,0,0,1481,2713,20,2653,2031,0,198,19,5.466,-0.084,10.297,-0.431,0.484,-1.190,1.159,-3.112,9.574,-0.424,1.009,-2.123,angry
5.14,493,0,0,0,0,0,0,0,1590,2636,17,2551,2631,1741,1612,3179,3.359,0.464,11.248,-0.678,0.324,-1.240,1.592,-3.077,9.455,-0.317,0.945,-1.776,angry
5.15,526,0,0,0,0,0,0,0,1531,2675,0,2811,1975,0,109,0,2.670,1.571,11.315,-1.009,0.180,-1.580,1.451,-3.306,9.354,-0.255,0.671,-1.385,angry
5.16,546,0,0,0,0,0,0,0,1641,2684,0,2872,2027,0,62,0,2.042,2.155,9.962,-1.180,0.019,-1.856,1.338,-3.077,9.364,-0.271,0.582,-1.238,angry
5.17,555,0,0,0,0,0,0,0,1695,2731,2,2999,1967,0,95,0,2.473,2.938,8.339,-1.248,-0.030,-2.218,1.104,-3.266,9.534,-0.313,0.573,-1.176,angry
5.18,538,0,0,0,0,0,0,0,1893,2747,0,3019,1874,0,155,0,2.600,4.583,8.526,-1.313,-0.148,-2.612,0.912,-3.330,9.567,-0.369,0.605,-1.183,angry
5.19,496,0,0,0,0,0,0,0,2039,2741,23,3067,1845,0,150,0,2.660,6.474,8.090,-1.453,-0.485,-3.052,0.678,-3.299,9.613,-0.432,0.671,-1.227,angry
5.20,498,0,0,0,0,0,0,0,2229,2769,0,3118,1701,0,57,0,4.515,8.073,4.985,-1.524,-0.638,-3.514,0.716,-3.644,9.445,-0.524,0.716,-1.321,angry
5.21,480,0,0,0,0,0,0,0,2251,2643,0,3045,1561,0,51,0,6.773,10.218,2.107,-1.456,-0.687,-3.732,0.536,-3.393,9.421,-0.679,0.732,-1.455,angry
5.22,432,0,0,0,0,0,0,0,2312,2463,0,2963,1306,0,11,0,8.241,11.270,-1.298,-1.185,-0.990,-3.576,0.232,-3.570,9.385,-0.879,0.694,-1.621,angry
5.23,263,0,0,0,0,0,0,0,2155,2069,0,2699,893,19,9,69,13.817,13.223,-12.019,0.577,-2.868,-2.642,0.244,-3.627,9.565,-1.194,0.689,-1.746,angry
5.24,175,0,0,0,0,0,0,1155,2477,2205,66,3113,792,3,0,5,18.629,8.188,-5.152,0.968,-1.225,-1.451,0.505,-3.091,9.385,-1.466,0.652,-1.755,angry
5.25,414,0,0,0,545,0,970,2406,1608,2653,15,2607,2669,1835,1677,3207,6.946,1.434,-19.613,-0.746,-0.942,0.703,1.561,-3.227,9.342,-1.870,0.666,-1.762,angry
5.26,694,690,0,331,1115,0,2186,2859,1559,2661,28,2607,2487,1853,1693,3220,1.669,-0.697,8.382,0.752,-0.163,-0.692,0.572,-2.931,9.845,-2.908,1.188,-1.669,angry
5.27,704,1335,2022,1182,1405,0,2698,3124,1623,2616,0,2552,2631,1711,1615,3175,4.238,6.823,9.124,0.065,0.013,-0.187,1.535,-4.480,10.915,-3.865,2.086,-1.348,angry
5.28,777,1598,2524,1609,1603,0,3018,3330,1584,2631,0,2569,2639,1718,1627,3191,4.415,3.610,8.487,0.077,0.091,-0.164,10.240,-2.739,18.466,-4.366,4.220,1.400,angry
5.29,799,1665,2759,2000,1967,0,3173,3439,1559,2649,0,2568,2633,1752,1644,3196,3.440,3.778,8.763,0.162,0.059,-0.158,13.396,-1.690,19.163,-4.366,4.366,4.366,angry
5.30,1035,1835,2899,2217,2159,284,3254,3546,1565,2657,0,2583,2645,1761,1651,3213,3.043,4.075,9.158,0.072,0.075,-0.084,14.925,-15.191,15.282,-4.366,4.366,3.546,angry
5.31,1094,1943,3010,2320,2281,257,3235,3545,1575,2661,0,2587,2663,1788,1662,3227,3.057,3.553,8.983,0.065,0.043,-0.043,19.613,2.682,19.613,1.196,1.289,0.834,angry
5.32,1195,2026,3042,2414,2388,0,3313,3547,1543,2665,0,2599,2653,1781,1661,3223,3.055,3.745,8.880,0.100,0.003,-0.033,13.786,2.751,7.779,2.563,0.572,-3.640,angry
5.33,1175,2217,3107,2489,2461,0,3278,3543,1511,2693,0,2585,2645,1813,1693,3221,3.127,3.677,8.875,0.114,-0.002,-0.039,4.341,2.277,13.029,2.983,-0.481,-3.695,angry
5.34,1238,2204,3152,2541,2416,0,3179,3443,1575,2663,0,2606,2664,1799,1661,3230,3.055,3.579,8.784,0.128,-0.021,-0.062,3.448,-0.194,13.202,4.252,-1.093,-2.629,angry
5.35,1227,2209,105,2547,2354,0,2992,3234,1576,2671,0,2617,2663,1807,1673,3241,3.019,3.620,8.856,0.168,-0.050,-0.105,2.176,-2.567,8.212,4.366,-1.212,-1.556,angry
5.36,1227,2357,0,2593,2305,0,2547,3014,1582,2681,0,2607,2666,1814,1677,3264,2.753,3.572,8.842,0.162,-0.078,-0.165,4.185,-4.319,9.201,4.366,-1.194,-1.298,angry
5.37,1177,2387,0,2640,2273,0,2211,2041,1575,2681,0,2679,2660,1829,1685,3351,2.562,3.646,8.842,0.128,-0.103,-0.266,5.107,-5.737,11.777,4.366,-1.845,-1.510,angry
5.38,1392,2523,0,2738,2319,0,2007,1762,242,0,0,0,2,24,0,0,2.243,3.397,8.787,0.034,-0.246,-0.582,5.545,-7.317,13.582,4.366,-2.276,-1.974,angry
5.39,1801,2802,0,2960,2449,0,1733,1465,0,0,0,0,0,51,0,0,3.270,3.900,8.365,-0.124,-0.346,-0.994,6.627,-7.755,14.808,4.366,-2.416,-2.208,angry
5.40,2221,3056,0,3135,2474,0,1247,448,0,0,0,0,0,0,0,0,3.919,4.063,8.327,-0.084,-0.295,-1.136,4.290,-13.709,17.066,4.207,-2.640,-3.604,angry
5.41,2635,3218,0,3331,2124,0,712,0,0,0,0,0,0,0,0,0,3.728,3.922,8.464,0.102,-0.277,-1.117,-5.533,-19.613,7.666,1.597,-1.162,-3.825,angry
5.42,2832,3307,0,3412,1855,0,416,0,0,0,0,0,0,0,0,0,3.405,4.161,9.146,0.315,-0.196,-1.034,-10.142,-19.613,11.430,1.248,-0.606,-3.300,angry
5.43,3010,3379,0,3478,1568,0,323,0,0,0,0,0,0,0,0,0,3.290,3.385,8.859,0.823,-0.162,-0.775,-6.294,-19.613,9.273,1.269,-0.400,-2.938,angry
5.44,3184,3466,0,3541,1387,0,294,0,0,0,0,0,0,0,0,0,3.589,4.125,8.492,0.936,-0.179,-0.629,-9.376,-19.613,-0.455,1.063,0.055,-1.991,angry
5.45,3326,3505,0,3581,1104,0,228,0,0,0,0,0,0,0,0,3,3.467,4.075,8.480,1.168,-0.150,-0.471,-11.660,-19.613,-8.248,-0.265,-0.049,-1.032,angry
5.46,3443,3535,0,3621,1156,0,103,0,0,0,0,11,0,0,0,0,3.649,3.687,8.677,1.417,-0.064,-0.287,-5.279,-19.613,-8.835,-2.257,0.413,-0.867,angry
5.47,3566,3536,3937,3642,1016,0,0,0,0,7,0,0,0,0,0,300,3.244,3.546,9.021,1.866,-0.137,-0.201,-1.508,-19.613,-3.168,-3.419,1.220,-1.673,angry
5.48,3675,3389,3920,3631,784,0,0,0,1561,2702,0,2653,2431,1839,1715,3279,5.531,3.263,8.796,3.010,0.290,-0.479,-12.299,-2.423,19.613,-1.935,0.767,-1.148,angry
5.49,3741,2443,3792,3456,165,0,0,0,0,0,5,0,0,0,542,2481,7.061,5.361,8.413,4.447,0.526,-1.457,-9.436,-0.285,13.436,-2.894,0.139,0.980,angry
5.50,3744,1766,3397,3068,0,0,0,0,0,0,0,0,1,0,1127,2709,7.508,6.615,10.862,5.453,0.078,-2.622,7.290,-6.697,9.936,-2.957,-0.253,0.443,angry
5.51,3677,1087,2644,2430,0,0,0,0,1587,2635,0,2573,2643,1734,1630,3189,11.667,8.502,17.396,6.477,-0.396,-4.248,-2.437,-17.808,14.178,-1.499,1.135,1.669,angry
5.52,2661,129,0,558,0,0,0,0,19,21,17,0,476,0,2839,3710,8.866,5.571,19.613,6.738,0.238,-6.628,1.867,-6.991,15.139,-0.393,1.294,0.579,angry
5.53,1183,0,0,0,0,0,0,0,0,0,0,17,869,0,2745,3477,7.977,13.396,19.613,4.774,0.009,-6.658,1.350,-2.105,9.582,-0.141,0.889,0.355,angry
5.54,134,0,0,0,0,0,0,0,895,2508,0,2300,2568,2083,2231,2602,19.613,-0.089,19.613,0.327,-0.501,-6.227,2.342,-3.831,10.582,-0.156,0.388,0.196,angry
5.55,144,0,0,0,0,0,0,0,1597,2684,97,2632,2668,1835,1693,3261,19.613,-8.238,16.307,-1.323,0.284,-2.068,1.599,-2.528,10.305,-0.155,0.191,0.191,angry
5.56,0,0,0,0,0,0,0,0,3,0,0,283,1791,0,3373,3783,15.701,-7.166,12.792,-1.360,-1.876,1.342,1.216,-2.586,10.092,-0.064,0.182,0.128,angry
5.57,0,0,0,0,0,0,0,0,30,2599,0,2584,1117,39,2156,1977,11.394,-5.504,11.174,-1.560,-2.532,2.467,1.240,-2.227,9.771,-0.089,0.227,0.184,angry
5.58,0,0,0,0,0,0,0,0,1593,2703,10,2648,2633,1855,1705,3281,6.349,-4.460,14.650,-2.135,-2.543,2.954,2.418,-2.148,8.772,-0.231,0.272,0.276,angry
5.59,0,0,0,0,0,0,0,0,1593,2708,12,2637,2663,1839,1688,3263,-0.002,-1.666,14.633,-3.433,-2.514,2.898,1.678,-2.140,9.237,-0.359,0.266,0.456,angry
5.60,0,0,0,0,0,0,0,0,1589,2687,12,2635,2663,1835,1696,3260,-0.656,1.305,12.888,-4.282,-1.981,2.434,1.032,-2.330,10.475,-0.388,0.299,0.662,angry
5.61,0,0,0,0,0,0,0,0,1583,2685,28,2632,2685,1959,1693,3256,1.149,4.219,13.400,-4.734,-1.478,2.272,1.901,-2.957,9.486,-0.380,0.332,0.725,angry
5.62,0,0,0,0,0,0,0,0,1568,2695,30,2641,2653,1835,1703,3263,3.323,6.462,14.873,-4.802,-1.250,2.802,0.950,-2.947,9.704,-0.285,0.144,0.561,angry
5.63,0,0,0,0,0,0,0,0,1580,2759,30,2631,2662,1835,1695,3263,4.326,8.715,17.588,-4.744,-0.911,3.318,1.501,-3.077,9.376,-0.301,0.118,0.556,angry
5.64,0,0,0,0,0,0,0,0,1581,2686,51,2649,2651,1835,1701,3271,5.133,10.982,19.613,-4.807,-0.229,3.284,2.093,-2.957,9.321,-0.097,0.274,0.407,angry
5.65,0,0,0,0,0,0,0,0,1583,2727,74,2639,2661,1828,1696,3263,5.234,19.613,19.613,-4.805,0.417,3.030,1.554,-2.998,9.917,-0.151,0.248,0.259,angry
5.66,0,0,0,0,0,0,0,0,1589,2696,76,2643,2659,1817,1701,3273,-3.895,19.613,17.013,-4.494,-2.016,2.473,1.231,-3.120,10.020,-0.212,-0.094,0.145,angry
5.67,73,0,0,0,0,0,0,0,1597,2713,74,2649,2654,1833,1707,3284,-14.279,19.613,-13.168,-2.749,-3.317,1.638,1.458,-3.364,9.316,-0.197,-0.099,0.110,angry
5.68,195,0,0,0,3,0,0,0,1579,2724,0,2661,2379,1865,1737,3287,-14.937,19.613,-11.693,0.006,0.185,0.214,0.836,-3.096,9.201,-0.696,0.097,-0.126,angry
5.69,192,0,0,0,0,0,0,0,1656,2701,30,2647,2703,1834,1707,3277,-10.084,19.613,-7.535,2.116,0.645,-1.180,1.156,-3.306,9.333,-0.747,0.031,-0.255,angry
5.70,0,0,0,0,386,0,411,1808,1625,2703,28,2651,2471,1861,1722,3257,2.799,-18.984,19.613,2.262,1.089,-1.520,1.403,-3.096,10.123,-2.050,0.015,-0.597,angry
5.71,0,0,0,0,410,0,1627,3248,3020,1125,0,3181,44,0,0,85,4.104,13.949,10.484,4.966,-0.996,-2.577,0.656,-4.132,8.645,-4.366,0.687,-0.683,angry
5.72,0,0,0,0,502,0,3001,3671,2983,502,53,3283,10,5,0,40,10.999,7.736,14.882,2.345,0.294,-2.095,4.197,-13.467,9.220,-4.366,2.464,-0.180,angry
5.73,0,404,0,0,1678,0,3361,3748,1513,2603,0,2457,2541,1685,1593,3111,3.563,7.396,12.246,0.790,3.052,-1.529,17.133,-9.946,19.613,-4.366,2.455,4.366,angry
5.74,0,1569,0,101,1968,0,3470,3792,1575,2637,0,2572,2643,1741,1635,3195,5.358,7.506,11.753,0.547,1.444,-0.800,10.420,16.522,19.613,-2.441,2.540,4.366,angry
5.75,175,2000,0,871,2205,0,3535,3844,1571,2667,2,2604,2647,1799,1669,3209,5.241,4.925,9.385,0.353,0.556,-0.446,19.613,-1.118,19.613,-1.245,0.659,2.405,angry
5.76,422,2206,0,1200,2313,0,3541,3830,0,11,5,0,0,0,0,1,3.874,3.881,9.160,0.324,0.272,-0.292,15.974,7.628,18.522,1.734,0.545,-0.697,angry
5.77,522,2284,0,1458,2368,0,3504,3788,0,42,7,0,0,0,0,5,3.515,3.967,9.191,0.249,0.167,-0.201,13.302,6.685,13.546,2.309,-1.009,-1.675,angry
5.78,576,2347,0,1502,2416,0,3430,3735,0,0,58,0,0,0,0,0,3.488,3.563,8.969,0.215,0.120,-0.156,7.810,5.006,13.321,3.050,-1.503,-2.202,angry
5.79,606,2426,0,1567,2394,0,3334,3647,0,3,0,0,0,0,18,0,3.745,3.618,8.679,0.221,0.105,-0.130,0.733,3.682,13.961,3.968,-1.931,-2.162,angry
5.80,649,2469,0,1714,2326,0,3183,3522,1572,2664,0,2611,2665,1827,1673,3230,3.687,3.498,8.871,0.240,0.117,-0.142,-2.897,1.719,13.206,4.366,-2.611,-1.729,angry
5.81,752,2479,0,1897,2044,0,2911,3245,0,0,0,2,0,0,0,0,3.512,3.673,8.739,0.159,-0.013,-0.097,-1.999,-2.143,11.849,4.366,-2.127,-0.550,angry
5.82,762,2485,0,1984,1850,0,2743,3146,0,0,0,0,0,0,0,0,3.460,3.666,8.547,0.153,-0.014,-0.110,-1.144,-4.008,12.603,4.366,-2.169,-0.245,angry
5.83,758,2501,0,2068,1773,0,2559,3022,2,0,0,3,0,0,0,0,3.462,3.673,8.430,0.131,0.026,-0.112,1.068,-5.239,12.838,4.366,-2.295,-0.225,angry
5.84,759,2512,3146,2159,1572,0,2478,2915,0,0,0,0,0,0,0,0,3.280,3.692,8.485,0.093,0.056,-0.092,2.540,-6.072,13.094,4.366,-2.439,-0.497,angry
5.85,820,2559,3211,2316,1753,0,2369,2859,0,0,0,0,6,0,0,0,3.110,3.407,8.528,0.129,0.075,-0.154,4.010,-7.472,15.088,4.366,-2.491,-0.838,angry
5.86,694,2608,3312,2480,2118,0,2288,2723,0,0,0,0,11,0,0,0,3.596,3.500,8.016,0.172,0.086,-0.200,2.658,-7.630,19.474,4.366,-3.090,-1.699,angry
5.87,855,2730,0,2800,2318,0,2313,2394,0,0,0,0,0,0,0,0,3.519,3.201,8.157,0.288,-0.002,-0.259,-4.755,-14.018,19.613,4.366,-2.918,-2.221,angry
5.88,1461,3120,0,3030,2704,0,2241,1392,1579,2639,0,2579,2642,1727,1629,3205,3.680,4.487,9.112,0.466,-0.188,-0.266,-10.839,-19.271,19.613,4.366,-4.092,-2.134,angry
5.89,2071,3472,0,3201,2895,0,1750,0,1587,2559,0,2495,2597,1673,1564,3119,3.395,3.958,9.155,0.522,-0.235,-0.303,-9.464,-19.613,3.445,2.806,-1.716,-2.321,angry
5.90,2557,3719,0,3290,2535,0,679,0,0,24,0,0,0,0,0,0,3.290,4.204,8.689,0.705,-0.136,-0.265,-14.961,-19.613,-3.982,0.448,-2.170,-0.366,angry
5.91,2754,3761,0,3329,1892,0,565,0,0,0,46,0,0,0,0,0,3.663,3.740,8.440,1.161,-0.026,-0.181,-8.464,-19.613,-5.971,-0.822,-1.572,-0.958,angry
5.92,2925,3865,0,3334,1456,0,583,0,0,43,0,0,0,0,0,0,3.962,4.003,8.423,1.688,0.140,-0.207,-10.034,-19.613,-3.596,-2.039,-0.223,-0.950,angry
5.93,3120,3904,0,3335,1219,0,530,0,0,0,0,0,0,0,0,0,3.706,3.072,8.993,2.218,0.307,-0.309,0.946,-19.613,-3.974,-2.983,0.726,-1.618,angry
5.94,3282,3920,0,3328,903,0,370,0,0,0,0,0,0,0,0,311,3.895,2.614,8.705,2.924,0.277,-0.357,1.080,16.467,19.613,-1.206,2.389,-0.815,angry
5.95,3427,3899,0,3334,405,0,124,0,0,0,0,0,0,0,0,1363,6.285,1.609,9.347,3.728,0.658,-0.528,-19.613,19.613,7.930,-4.366,-1.726,-0.592,angry
5.96,3554,3614,3907,3291,290,0,0,0,0,0,0,0,0,10,0,1991,6.553,2.562,8.669,4.978,1.023,-0.881,-2.351,-16.673,19.613,-4.366,1.050,1.360,angry
5.97,3631,2490,3803,3098,138,0,0,0,47,2701,0,2623,2645,41,2211,3417,9.890,7.307,9.682,6.123,1.141,-1.612,-2.593,-19.613,19.613,-3.783,0.857,0.583,angry
5.98,3456,1351,2598,2310,0,0,0,0,0,0,2,0,1,0,925,3043,11.049,10.271,19.613,8.501,-1.094,-3.685,2.016,2.456,11.339,-3.173,0.443,1.114,angry
5.99,2559,592,816,1154,0,0,0,0,0,0,0,1,0,1,1525,3410,12.347,8.698,19.613,8.547,-0.452,-5.513,10.453,-5.547,8.818,-3.138,-0.271,0.639,angry
6.00,1213,22,0,80,0,0,0,0,7,0,0,0,0,0,2341,3759,17.514,18.529,19.613,8.173,-0.266,-6.561,19.613,3.005,19.613,-2.978,0.626,0.623,angry
6.01,219,0,0,0,0,0,0,0,0,0,0,56,211,0,2745,3755,19.613,15.371,19.613,1.516,-0.977,-5.518,-1.025,-6.472,12.005,-1.237,1.909,0.890,angry
6.02,0,0,0,0,0,0,0,0,29,0,0,0,373,0,3007,3819,19.613,8.499,18.964,-0.565,0.031,-4.270,-0.357,-4.547,16.029,-0.720,1.572,0.744,angry
6.03,187,0,0,0,0,0,0,0,0,0,0,3,803,0,3129,3799,19.613,-10.187,15.617,-1.985,1.759,-2.487,4.685,-3.773,9.644,-0.309,1.400,0.588,angry
6.04,170,0,0,0,0,0,0,0,0,0,0,0,1291,0,3243,3875,19.563,-5.461,10.408,-2.009,1.105,-0.597,1.650,-2.813,11.143,-0.278,1.125,0.499,angry
6.05,192,0,0,0,0,0,0,0,0,0,0,0,1565,0,3298,3865,14.969,-4.226,11.952,-2.082,-0.332,0.870,0.354,-1.954,10.515,-0.331,0.706,0.441,angry
6.06,55,0,0,0,0,0,0,0,0,0,0,29,1753,0,3261,3824,15.335,-1.120,9.517,-2.291,-1.166,2.151,1.635,-2.892,10.082,-0.416,0.675,0.415,angry
6.07,16,0,0,0,0,0,0,0,0,0,0,168,1867,0,3199,3892,12.072,0.309,10.199,-2.863,-1.052,3.085,1.683,-2.547,9.615,-0.462,0.608,0.386,angry
6.08,0,0,0,0,0,0,0,0,0,1,0,466,1939,0,3099,3751,6.438,0.706,9.819,-3.461,-1.083,3.655,2.179,-2.576,9.476,-0.530,0.481,0.364,angry
6.09,0,0,0,0,0,0,0,0,0,0,0,661,1972,0,2976,3672,1.796,0.601,9.021,-3.750,-1.515,3.732,2.248,-2.825,9.577,-0.472,0.421,0.373,angry
6.10,0,0,0,0,0,0,0,0,1,11,12,1055,1979,0,2750,3555,1.070,1.810,9.474,-4.020,-1.680,3.477,1.188,-2.361,10.077,-0.395,0.368,0.520,angry
6.11,0,0,0,0,0,0,0,0,2,211,0,1513,1951,0,2444,3419,2.085,3.692,11.286,-4.453,-1.405,3.154,1.729,-2.983,9.718,-0.474,0.299,0.557,angry
6.12,0,0,0,0,0,0,0,0,10,340,0,1749,1937,0,1992,3284,2.674,5.777,13.982,-5.016,-1.112,2.871,1.487,-3.680,10.130,-0.433,0.188,0.487,angry
6.13,25,0,0,0,0,0,0,0,10,453,0,1919,1873,0,1619,3128,3.189,7.365,14.916,-5.502,-1.121,2.714,1.041,-3.239,9.737,-0.348,0.151,0.433,angry
6.14,48,0,0,0,0,0,0,0,92,414,0,2053,1819,3,1507,2966,4.216,8.495,15.210,-5.749,-1.295,2.679,1.362,-4.053,9.898,-0.343,0.063,0.333,angry
6.15,106,0,0,0,0,0,0,0,149,478,5,2149,1689,5,1337,2792,6.800,10.539,16.182,-5.844,-1.323,2.789,1.437,-3.012,9.349,-0.226,0.077,0.289,angry
6.16,97,0,0,0,0,0,0,0,245,503,23,2348,1629,5,1267,2552,8.748,12.965,19.570,-5.870,-1.375,3.029,1.559,-3.862,9.831,-0.187,0.111,0.258,angry
6.17,112,0,0,0,0,0,0,0,415,623,2,2449,1512,4,1085,2359,12.428,15.864,19.613,-5.865,-1.213,3.335,1.274,-3.393,10.044,-0.318,0.157,0.222,angry
6.18,225,0,0,0,0,0,0,0,1369,1128,0,2679,1608,5,463,1768,5.447,19.613,19.613,-5.431,-0.563,4.156,1.020,-3.349,9.503,-0.199,0.036,0.255,angry
6.19,249,0,0,0,0,0,0,0,2136,1519,0,3007,1685,1,0,1222,-3.575,19.613,12.045,-4.178,-2.062,3.361,1.317,-3.017,9.462,-0.386,0.042,0.141,angry
6.20,413,0,0,0,43,0,0,0,2428,1513,5,3077,1526,18,1,980,-13.216,19.613,-5.420,-3.052,-1.641,2.902,0.599,-3.179,9.309,-0.455,0.097,0.002,angry
6.21,527,0,0,0,94,0,0,0,2687,1555,0,3247,1300,1,0,627,-18.687,19.613,-14.911,-0.262,-0.337,1.037,1.393,-4.089,9.601,-0.508,0.104,-0.059,angry
6.22,574,0,0,0,79,0,0,0,3055,1823,0,3341,736,1,1,261,-13.393,19.613,-5.734,2.941,0.649,-0.513,1.365,-2.753,9.268,-0.704,-0.055,-0.248,angry
6.23,132,0,0,0,134,0,439,1792,3257,1663,0,3371,205,20,6,189,1.573,-11.157,19.613,2.323,1.798,-1.268,1.683,-2.219,10.568,-2.236,-0.017,-0.435,angry
6.24,0,0,0,0,305,0,1862,3373,3334,1469,12,3366,203,0,0,124,6.364,17.760,6.211,6.091,-1.167,-2.922,1.484,-2.581,8.950,-3.640,0.214,-0.490,angry
6.25,0,215,0,0,1141,0,3263,3691,3546,395,12,3287,2,0,0,43,19.613,19.613,19.613,1.522,2.737,-2.749,7.408,-9.160,9.050,-4.366,1.952,0.628,angry
6.26,0,1169,0,0,2131,0,3409,3758,1560,2568,0,2479,2567,1663,1567,3109,-4.882,7.326,19.613,0.687,2.952,-1.604,9.926,-6.220,19.613,-4.366,1.353,4.366,angry
6.27,0,2012,0,691,2451,0,3495,3824,1577,2553,0,2489,2581,1571,1557,3112,0.658,5.799,14.720,0.455,1.314,-0.570,6.953,1.319,19.613,-4.366,1.247,4.366,angry
6.28,0,2326,0,1258,2736,0,3557,3824,1576,2552,0,2489,2583,1656,1557,3127,3.960,3.321,8.803,0.300,0.383,-0.314,19.613,-0.024,17.578,0.081,0.438,4.132,angry
6.29,0,2529,0,1447,2921,0,3562,3716,0,0,0,0,0,0,0,0,3.888,3.644,9.311,0.340,0.060,-0.211,15.289,5.890,13.151,3.112,0.526,0.698,angry
6.30,0,2638,0,1535,3001,0,3510,3638,0,0,0,0,0,0,0,0,3.711,4.085,9.294,0.329,-0.029,-0.169,10.791,5.471,9.852,3.333,-1.179,-0.289,angry
6.31,0,2704,0,1503,3040,0,3430,3459,0,0,0,0,0,0,0,0,3.694,3.637,8.923,0.328,-0.082,-0.143,8.794,1.729,10.575,3.722,-1.992,-1.060,angry
6.32,16,2803,0,1468,3056,0,3299,3261,0,0,0,0,0,0,0,0,4.190,3.302,8.392,0.352,-0.069,-0.169,3.938,-0.606,11.899,4.256,-2.476,-1.403,angry
6.33,61,2832,0,1482,2990,0,3129,3005,0,0,0,0,0,0,0,0,4.094,3.680,8.672,0.349,-0.090,-0.190,0.424,-2.598,12.534,4.366,-2.854,-1.256,angry
6.34,122,2875,0,1511,2919,0,2913,2788,0,0,0,0,0,0,0,0,3.891,3.560,8.509,0.323,-0.094,-0.197,-1.020,-3.915,11.095,4.366,-2.755,-0.805,angry
6.35,144,2918,0,1520,2832,0,2687,2448,0,0,0,0,6,0,0,0,3.905,3.668,8.622,0.317,-0.112,-0.227,-1.695,-3.859,9.989,4.366,-2.573,-0.232,angry
6.36,140,2991,0,1642,2789,0,2437,2028,0,0,0,0,0,0,0,0,3.661,3.898,8.301,0.286,-0.127,-0.237,-1.156,-4.676,11.578,4.366,-2.716,0.124,angry
6.37,163,2993,0,1723,2662,0,2207,1155,0,0,0,0,0,0,0,0,3.474,3.994,8.351,0.237,-0.072,-0.232,0.895,-6.160,12.766,4.366,-3.005,0.163,angry
6.38,103,3030,0,1763,2559,0,2075,674,5,0,0,0,3,0,0,0,3.795,3.979,8.001,0.200,-0.015,-0.220,2.648,-7.008,13.252,4.366,-3.095,-0.059,angry
6.39,159,3115,0,1815,2667,0,2011,357,0,0,0,0,0,0,0,0,3.773,3.685,8.042,0.212,0.044,-0.248,3.800,-6.761,14.023,4.366,-3.269,-0.524,angry
6.40,281,3158,0,1968,2735,0,1935,198,0,29,0,0,0,5,0,0,3.934,3.534,7.654,0.257,0.128,-0.304,3.144,-7.532,16.692,4.366,-3.632,-1.153,angry
6.41,430,3248,0,2149,2793,0,1901,0,0,0,0,0,0,0,0,0,3.752,3.747,8.344,0.368,0.158,-0.397,2.540,-7.918,19.551,4.366,-3.943,-1.619,angry
6.42,630,3354,0,2368,2865,0,1870,0,0,0,17,0,0,0,0,0,3.486,4.123,8.535,0.333,0.137,-0.418,1.851,-10.448,19.613,4.366,-3.669,-1.967,angry
6.43,926,3442,0,2559,2955,0,1697,0,0,0,0,0,0,22,0,0,3.452,4.085,8.691,0.345,0.089,-0.390,-4.951,-13.764,19.613,4.366,-4.168,-2.341,angry
6.44,1347,3535,0,2698,2999,0,1499,0,0,0,0,0,0,0,0,0,3.323,3.972,8.978,0.384,-0.025,-0.335,-5.526,-19.360,19.613,4.366,-4.299,-2.483,angry
6.45,1643,3646,0,2789,2925,0,1118,0,0,0,0,0,0,0,0,0,3.366,4.446,9.122,0.432,-0.139,-0.194,-2.598,-19.613,14.449,3.767,-3.047,-2.737,angry
6.46,2001,3745,0,2834,2360,0,671,0,0,0,0,0,0,0,0,19,3.347,4.003,8.815,0.569,-0.119,-0.175,-7.568,-19.613,2.636,2.494,-1.769,-2.644,angry
6.47,2263,3856,0,2741,2162,0,629,0,0,0,110,0,0,0,0,0,3.349,4.209,8.729,0.885,-0.085,-0.168,-14.468,-19.613,-2.722,1.219,-2.165,-2.078,angry
6.48,2603,3968,0,2732,1602,0,546,0,0,0,0,0,0,0,0,0,3.534,3.996,7.946,1.464,0.249,-0.148,-13.309,-19.613,-3.345,-0.023,-2.961,-1.747,angry
6.49,2830,4015,0,2794,1121,0,491,0,0,0,0,0,0,0,0,0,3.950,4.604,9.096,1.813,0.436,-0.182,-10.032,-19.613,-1.549,-0.902,-1.784,-1.912,angry
6.50,3006,4019,0,2886,929,0,403,0,0,0,0,0,0,0,0,0,4.417,3.926,8.667,2.205,0.488,-0.258,-16.228,-19.613,-0.778,-1.852,-0.157,-1.492,angry
6.51,3180,4015,0,2960,789,0,272,0,0,0,0,0,0,8,0,0,4.037,3.548,8.511,2.699,0.570,-0.445,11.214,-14.360,2.890,-3.365,2.103,-2.059,angry
6.52,3313,3953,3990,3008,705,0,81,0,0,0,0,0,0,0,3,413,4.243,2.569,8.449,3.522,0.954,-0.598,-15.553,19.613,19.613,-1.685,2.860,-0.689,angry
6.53,3406,3751,3951,3005,602,0,0,0,0,0,0,0,0,0,29,1824,6.287,3.915,7.805,4.761,1.258,-0.940,-18.342,19.151,-3.476,-4.366,-0.410,0.399,angry
6.54,3453,2230,3463,2469,19,0,0,0,0,0,0,0,0,0,1225,2971,3.582,3.505,15.629,7.652,-0.019,-1.994,-0.989,-17.901,18.146,-4.115,1.676,0.947,angry
6.55,2597,868,1387,743,0,0,0,0,0,0,0,0,167,83,2483,3541,10.139,7.436,19.613,8.731,-2.058,-4.396,1.252,-14.660,19.613,-2.047,2.513,1.849,angry
6.56,839,0,0,0,0,0,0,0,0,0,0,0,425,0,2969,3985,12.280,15.433,19.613,5.273,-1.606,-5.309,-1.652,-11.966,18.344,-0.804,2.867,1.305,angry
6.57,0,0,0,0,0,0,0,0,0,0,0,0,905,13,3117,4023,19.613,-4.547,19.613,-0.584,-0.574,-5.221,1.188,-5.861,15.739,-0.557,2.393,1.168,angry
6.58,0,0,0,0,0,0,0,0,0,0,0,42,1351,0,3087,3859,19.613,1.111,18.251,-1.963,0.859,-3.200,1.611,-5.298,13.764,-0.509,1.327,0.691,angry
6.59,160,0,0,0,0,0,0,0,0,0,10,0,1643,0,3224,3943,19.046,-4.245,9.594,-2.474,1.929,-2.210,2.921,-4.621,11.485,-0.649,0.969,0.676,angry
6.60,272,0,0,0,0,0,0,0,25,0,0,85,1893,0,3336,4025,15.184,-3.541,10.611,-2.763,0.863,-0.734,0.371,-2.260,10.992,-0.667,0.763,0.606,angry
6.61,318,0,0,0,0,0,0,0,56,0,0,319,1993,3,3303,4031,14.205,-2.634,8.595,-2.716,-0.339,0.487,2.413,-2.550,8.947,-0.696,0.624,0.531,angry
6.62,289,0,0,0,0,0,0,0,92,0,0,544,2038,0,3193,3991,13.242,-1.128,8.114,-3.009,-0.864,1.639,1.575,-2.892,9.536,-0.611,0.592,0.440,angry
6.63,208,0,0,0,0,0,0,0,42,19,0,1183,2069,0,2998,3830,10.726,1.125,8.167,-3.366,-1.001,2.576,2.337,-3.440,9.105,-0.470,0.461,0.377,angry
6.64,95,0,0,0,0,0,0,0,61,230,5,1341,2044,0,2729,3755,6.737,1.939,8.624,-3.830,-1.073,3.123,2.193,-3.472,9.433,-0.434,0.394,0.350,angry
6.65,25,0,0,0,0,0,0,0,111,211,5,1624,1884,3,2491,3692,3.587,1.946,8.624,-4.157,-1.262,3.266,1.683,-3.840,9.610,-0.276,0.272,0.208,angry
6.66,0,0,0,0,0,0,0,0,147,390,7,2015,1627,0,2031,3512,2.562,3.048,9.670,-4.446,-1.426,3.132,1.611,-3.505,9.606,-0.182,0.231,0.100,angry
6.67,43,0,0,0,0,0,0,0,213,541,7,2245,1430,3,1833,3367,3.282,4.630,11.425,-4.800,-1.413,2.949,1.434,-3.469,9.476,-0.096,0.217,0.031,angry
6.68,0,0,0,0,0,0,0,0,347,573,199,2411,1324,3,1583,3164,3.919,6.426,13.204,-5.185,-1.411,2.823,0.965,-3.232,9.424,-0.093,0.161,-0.003,angry
6.69,17,0,0,0,0,0,0,0,468,565,2,2506,1213,3,1129,2878,4.690,7.954,14.234,-5.497,-1.509,2.780,1.262,-3.376,9.512,-0.072,0.096,-0.010,angry
6.70,48,0,0,0,0,0,0,0,529,605,5,2557,1261,2,789,2565,6.627,9.821,14.966,-5.612,-1.637,2.864,1.480,-4.020,10.104,-0.012,0.155,-0.075,angry
6.71,61,0,0,0,0,0,0,0,584,613,0,2712,1108,11,612,2073,9.151,12.160,16.829,-5.624,-1.648,3.172,1.786,-2.693,10.669,-0.684,0.147,-0.092,angry
6.72,29,0,0,0,0,0,0,0,957,1023,5,2907,1135,0,469,1757,14.212,17.478,19.613,-5.429,-1.410,4.012,1.245,-3.364,9.541,-0.294,0.126,-0.025,angry
6.73,66,0,0,0,0,0,0,0,1323,1353,30,2956,1095,2,2,1190,5.437,19.613,16.877,-4.804,-1.073,4.658,1.185,-3.649,9.017,-0.230,0.079,-0.007,angry
6.74,64,0,0,0,0,0,0,0,1575,1452,0,3096,1209,0,0,797,1.563,19.613,14.320,-4.078,-1.240,3.961,1.020,-3.057,9.297,-0.317,0.041,-0.031,angry
6.75,80,0,0,0,0,0,0,0,1951,1605,2,3192,1041,0,0,559,-4.178,19.613,4.721,-3.383,-1.298,3.059,1.159,-3.630,9.546,-0.381,0.063,-0.070,angry
6.76,223,0,0,0,40,0,0,0,2355,1647,2,3367,965,0,0,347,-14.533,19.613,-4.101,-2.191,-1.811,2.335,1.377,-3.421,8.830,-0.381,0.096,-0.041,angry
6.77,400,0,0,0,109,0,0,0,2515,1819,0,3465,759,1,0,247,-11.394,19.613,-12.222,0.034,-0.584,1.201,1.403,-3.922,9.582,-0.440,0.208,-0.062,angry
6.78,449,0,0,0,49,0,0,0,2851,1941,0,3503,401,1,0,211,-4.420,19.613,-4.501,1.872,0.683,0.284,1.887,-3.282,9.603,-0.885,0.064,-0.233,angry
6.79,448,0,0,0,0,0,0,186,2949,1765,0,3473,261,0,10,72,7.728,19.613,-8.258,4.197,1.850,0.207,2.473,-2.765,9.819,-1.406,0.026,-0.305,angry
6.80,225,0,0,0,360,0,653,2250,2989,1484,0,3410,165,2,0,97,-9.986,-19.613,19.613,3.688,0.770,-0.354,1.841,-2.595,10.159,-2.231,0.030,-0.345,angry
6.81,0,0,0,0,401,0,2089,3390,3115,759,0,3276,69,20,0,63,-0.515,19.613,19.613,5.679,-1.422,-3.049,5.267,-4.879,10.965,-4.366,0.762,0.079,angry
6.82,0,155,0,0,1186,0,3303,3702,3279,381,2,3068,0,0,0,63,19.613,19.613,15.675,1.579,3.617,-3.241,3.675,-5.770,12.639,-4.366,1.624,1.293,angry
6.83,0,1520,0,0,2210,0,3419,3757,2739,0,0,1598,0,0,0,0,-4.664,8.681,19.613,1.020,3.350,-2.081,4.379,-12.814,19.613,-4.366,2.726,4.366,angry
6.84,337,2336,0,963,2743,0,3470,3743,1575,2619,0,2555,2629,1677,1595,3189,-2.464,5.478,16.348,0.911,1.412,-1.000,-14.715,-18.713,19.613,-4.366,2.159,4.366,angry
6.85,679,2766,0,1845,2981,0,3484,3755,0,0,0,0,0,5,0,0,2.624,4.690,11.011,0.623,0.384,-0.510,15.751,7.295,19.613,-1.415,1.368,4.366,angry
6.86,976,2905,0,2139,3061,0,3477,3700,1578,2635,17,2571,2637,1719,1626,3195,3.496,4.417,9.902,0.562,0.183,-0.386,19.613,4.599,19.613,0.033,0.349,3.238,angry
6.87,1230,3093,0,2407,3159,0,3409,3515,0,0,0,0,0,0,0,0,2.971,4.568,9.412,0.298,0.019,-0.171,14.442,1.760,11.530,1.557,-0.999,-2.074,angry
6.88,1280,3152,0,2478,3171,0,3303,3337,0,24,0,0,0,0,0,0,3.342,4.118,8.871,0.245,-0.027,-0.103,10.503,-0.357,9.266,2.308,-1.283,-3.505,angry
6.89,1394,3194,0,2511,3022,0,2974,2958,0,0,0,0,0,0,0,0,4.123,3.632,8.025,0.283,0.072,-0.172,-6.812,0.103,12.596,4.054,-1.992,-3.103,angry
6.90,1524,3227,0,2557,2833,0,2695,2647,0,0,0,0,0,0,0,0,3.970,3.982,8.305,0.311,0.110,-0.243,-8.760,-0.199,11.454,4.366,-2.266,-1.933,angry
6.91,1619,3265,0,2626,2559,0,2375,2349,0,0,0,0,0,0,0,0,3.656,4.008,8.344,0.303,0.123,-0.288,-10.585,0.041,9.141,4.366,-2.458,-0.742,angry
6.92,1728,3269,0,2693,2119,0,1828,1761,0,0,0,0,0,0,0,0,3.531,4.338,8.605,0.273,0.132,-0.282,-9.323,-0.371,8.265,4.366,-2.474,0.467,angry
6.93,1872,3290,0,2766,1847,0,1296,1009,0,0,0,0,0,0,0,0,3.156,3.433,8.396,0.208,0.114,-0.216,-5.033,-2.416,9.380,4.366,-2.419,1.261,angry
6.94,2016,3310,3632,2832,1562,0,976,400,0,0,0,0,0,0,0,0,3.340,4.173,8.344,0.205,0.072,-0.266,-0.881,-4.630,12.115,4.366,-2.425,1.376,angry
6.95,2224,3275,0,2912,1581,0,801,0,0,0,0,0,0,0,0,0,3.460,4.381,8.425,0.179,0.046,-0.287,-0.639,-6.141,14.514,4.366,-2.880,0.976,angry
6.96,2405,3344,3676,2992,1535,0,375,0,0,0,0,0,0,0,0,0,3.249,4.300,8.574,0.160,0.001,-0.297,-2.447,-5.294,13.937,4.366,-3.712,0.369,angry
6.97,2558,3326,0,3089,1516,0,175,0,0,0,0,0,0,0,0,0,3.287,4.312,8.365,0.159,0.007,-0.314,-5.353,-5.492,15.608,4.366,-3.988,0.569,angry
6.98,2704,3347,0,3152,1348,0,102,0,0,0,0,0,0,0,0,0,3.239,4.441,8.392,0.163,0.022,-0.294,-8.796,-6.440,19.604,4.366,-3.911,1.082,angry
6.99,2819,3376,0,3210,1318,0,35,0,0,0,0,0,0,0,0,0,3.275,4.475,8.392,0.162,0.044,-0.253,-8.964,-10.396,19.613,4.366,-4.071,1.665,angry
7.00,2943,3407,0,3258,1258,0,0,0,3,0,0,0,0,0,0,0,3.237,4.391,7.645,0.188,0.064,-0.219,-8.938,-15.658,19.613,4.366,-4.061,1.794,angry
7.01,3046,3423,3818,3338,1212,0,0,0,55,0,69,0,0,0,0,0,3.268,4.405,8.375,0.253,0.088,-0.174,-11.116,-19.613,19.613,4.366,-3.931,1.401,angry
7.02,3203,3440,0,3425,1204,0,0,0,75,0,0,0,37,0,0,0,3.124,4.293,8.495,0.385,0.110,-0.102,-10.163,-19.613,11.365,4.366,-3.190,0.874,angry
7.03,3338,3469,0,3472,990,0,0,0,73,0,0,0,0,0,0,6,3.060,4.053,8.751,0.556,0.110,-0.076,-13.740,-19.613,0.943,2.939,-1.981,0.231,angry
7.04,3467,3495,3893,3523,563,0,0,0,41,0,0,0,0,21,0,0,3.215,4.046,8.614,0.801,0.184,-0.082,-17.978,-19.613,-5.823,1.220,-1.300,-0.060,angry
7.05,3568,3518,3911,3571,659,0,0,0,85,0,0,0,0,0,0,1,3.912,4.180,8.162,1.011,0.353,-0.203,-17.528,-19.613,-6.615,-0.155,-0.710,-0.399,angry
7.06,3668,3547,3875,3575,537,0,0,0,70,0,0,1,0,0,0,0,3.299,4.405,9.227,1.333,0.164,-0.145,-13.077,-19.613,-8.375,-1.735,-0.066,-1.269,angry
7.07,3741,3557,662,3627,501,0,0,0,51,0,0,0,0,0,0,8,4.061,3.687,8.756,1.788,0.263,-0.184,-16.154,-10.752,12.170,-1.431,3.228,-0.430,angry
7.08,3787,3472,3940,3603,124,0,0,0,136,0,0,0,0,0,0,520,5.672,3.069,9.383,2.615,0.601,-0.288,-1.621,19.613,19.613,-2.754,0.978,1.364,angry
7.09,3817,3132,3892,3562,228,0,0,0,51,0,0,0,0,0,0,1645,5.504,1.879,9.244,3.835,0.837,-0.603,7.733,0.362,-2.698,-4.366,0.967,2.074,angry
7.10,3833,2295,3781,3437,0,0,0,0,1,0,0,0,0,0,151,2387,5.313,2.246,7.934,4.841,1.326,-1.088,2.959,-14.459,16.187,-4.344,1.342,1.557,angry
7.11,3809,1635,3469,3169,0,0,0,0,11,0,0,0,23,0,1006,2847,4.520,3.551,13.324,5.547,1.395,-1.683,3.558,-8.049,15.040,-4.366,0.910,0.279,angry
7.12,3412,697,1841,1966,0,0,0,0,127,0,17,0,151,0,1951,3318,5.883,6.065,19.613,7.554,-0.132,-3.101,19.613,2.267,19.613,-4.366,-0.003,0.568,angry
7.13,1066,0,0,81,0,0,0,0,214,581,0,0,856,11,2607,3595,8.428,14.068,19.613,5.650,1.716,-4.523,-1.053,-7.058,19.613,-2.140,2.106,0.879,angry
7.14,334,0,0,0,0,0,0,0,519,917,0,20,1007,0,2679,3750,11.360,2.624,19.613,1.043,1.896,-3.463,5.887,-11.550,10.484,-0.780,1.628,-0.134,angry
7.15,58,0,0,0,0,0,0,0,766,1213,2,733,1087,4,2709,3864,19.486,8.892,12.242,-0.164,2.052,-2.716,-1.487,-0.376,9.694,-0.915,0.157,-0.607,angry
7.16,297,0,0,0,0,0,0,0,1417,1613,0,1815,1163,13,2713,3932,18.366,-0.630,7.757,-1.630,2.834,-0.187,1.496,-2.758,9.658,-0.585,-0.207,-0.514,angry
7.17,474,0,0,0,0,0,0,0,1625,1901,5,2053,1209,29,2712,3879,13.096,-1.077,5.188,-2.110,1.941,1.904,-0.996,-3.287,9.867,-0.347,-0.065,-0.346,angry
7.18,580,0,0,0,0,0,0,0,1884,2105,0,2347,1429,0,2733,3912,7.712,-0.005,6.486,-2.658,1.376,3.104,0.816,-3.381,9.572,-0.232,0.080,-0.118,angry
7.19,561,0,0,0,0,0,0,0,2181,2199,7,2455,1692,5,2668,3805,3.160,0.567,8.554,-3.507,0.623,3.143,1.635,-3.735,9.594,-0.177,0.050,-0.037,angry
7.20,590,0,0,0,0,0,0,0,2248,2249,2,2441,1806,5,2523,3719,2.605,1.501,9.172,-3.995,0.009,2.884,1.561,-3.321,9.270,-0.186,0.036,-0.019,angry
7.21,557,0,0,0,0,0,0,0,2345,2263,5,2469,1925,6,2392,3563,4.120,3.634,9.143,-4.442,-0.358,2.496,1.614,-3.359,9.493,-0.230,0.042,-0.018,angry
7.22,451,0,0,0,0,0,0,0,2367,2187,7,2397,1926,5,2029,3283,13.745,9.622,6.448,-4.900,-0.132,2.661,1.803,-3.361,9.536,-0.250,0.066,-0.029,angry
7.23,303,0,0,0,0,0,0,0,2455,2118,7,2464,1955,0,1525,2887,19.613,18.969,1.125,-3.750,-0.011,5.191,1.444,-3.658,9.340,-0.190,0.029,-0.001,angry
7.24,240,0,0,0,0,0,0,0,2621,2201,7,2553,2123,5,1325,2456,19.613,19.613,-4.436,-1.396,0.430,8.390,1.580,-3.711,9.505,-0.220,-0.002,0.014,angry
7.25,49,0,0,0,0,0,0,0,2696,2224,17,2591,2207,5,1005,2211,16.458,19.613,-6.926,0.486,1.862,8.731,2.061,-4.041,9.529,-0.200,0.068,0.064,angry
7.26,49,0,0,0,230,0,0,0,2872,2093,7,2611,2361,6,731,1881,7.590,19.613,-11.135,2.069,2.275,8.731,1.532,-3.656,9.385,-0.310,-0.121,0.033,angry
7.27,0,0,0,0,502,0,0,0,2996,2041,10,2616,2344,5,107,1599,-3.881,19.613,-12.744,3.844,0.959,7.721,1.590,-3.247,9.242,-0.299,-0.277,0.223,angry
7.28,0,0,0,0,502,0,0,0,3042,2105,30,2475,2217,1,38,1352,-6.742,19.613,-5.669,4.018,0.923,4.083,1.003,-3.512,10.089,-0.048,-0.280,0.355,angry
7.29,113,387,0,0,671,0,221,0,3055,1973,2,2598,1897,6,75,1303,-4.611,19.613,19.613,-0.213,5.381,1.070,-0.553,-2.315,10.142,0.964,-0.437,1.606,angry
7.30,529,1639,0,0,1671,0,1954,1707,2809,1599,48,2751,1069,7,651,1727,5.090,-1.336,0.953,0.524,0.505,-1.075,0.666,-2.636,9.618,0.911,-0.869,3.182,angry
7.31,987,2027,0,700,1616,0,2774,2669,1943,1380,10,2733,668,17,247,1870,3.666,3.608,9.725,0.555,0.160,-1.144,2.756,-3.390,9.242,0.590,-1.102,3.674,angry
7.32,1520,2263,0,1753,1856,0,2865,2816,1963,839,0,2899,57,1,0,1080,3.536,3.924,8.765,0.254,-0.110,-0.755,2.318,-3.757,9.565,0.369,-1.619,4.366,angry
7.33,1900,2523,0,2169,1914,0,2962,2914,1693,406,0,2917,3,0,0,883,4.401,4.956,8.411,0.022,0.004,-0.349,1.982,-5.306,8.705,0.461,-2.041,4.366,angry
7.34,2145,2733,0,2406,2170,0,3065,3043,1471,203,0,2877,0,0,0,869,3.958,4.532,8.231,0.016,0.194,-0.144,2.919,-5.071,8.878,0.265,-2.030,4.366,angry
7.35,2320,2783,0,2606,2210,0,3086,3165,744,10,0,2591,0,0,0,549,4.168,4.441,8.459,0.017,0.342,-0.022,1.039,-2.928,9.596,-0.150,-1.779,4.366,angry
7.36,2448,2763,3274,2758,2149,0,2998,3216,331,0,0,1257,0,0,0,343,3.519,4.034,8.509,0.055,0.274,-0.027,-0.826,-1.472,11.722,-0.310,-2.023,4.325,angry
7.37,2554,2784,2615,2821,2115,0,2910,3271,124,0,0,539,0,0,0,181,3.031,4.096,8.686,0.067,0.195,0.038,-4.966,-3.311,17.052,0.226,-2.474,4.312,angry
7.38,2624,2768,3015,2865,2140,0,2861,3296,0,0,0,0,0,0,0,91,3.120,3.675,8.866,0.110,0.163,0.086,-10.630,-1.003,17.255,1.642,-4.030,3.489,angry
7.39,2666,2747,3292,2891,2170,0,2779,3274,0,0,0,0,0,0,0,37,3.077,3.972,8.619,0.117,0.181,0.130,-7.846,-3.795,12.088,2.102,-2.612,4.032,angry
7.40,2710,2786,0,2914,2011,0,2675,3274,0,0,0,0,21,0,0,26,3.079,3.895,8.691,0.127,0.164,0.134,-9.931,-3.768,7.963,1.963,-2.421,4.227,angry
7.41,2729,2797,3306,2920,1987,0,2646,3266,0,0,0,0,13,0,0,29,3.153,3.814,8.674,0.123,0.140,0.130,-8.717,-4.080,9.895,1.913,-2.033,4.366,angry
7.42,2781,2806,3328,2949,1920,0,2626,3252,0,0,0,0,0,0,0,0,3.179,3.905,8.669,0.132,0.132,0.109,-6.476,-4.762,9.529,2.030,-1.233,4.366,angry
7.43,2781,2822,3344,2960,1936,0,2595,3248,0,0,0,0,0,0,0,0,3.033,4.159,8.789,0.111,0.135,0.078,-3.776,-5.095,9.002,2.155,-0.917,4.366,angry
7.44,2795,2832,3315,2986,1902,0,2589,3248,8,0,0,0,0,0,0,0,2.835,3.874,8.727,0.102,0.127,0.047,-2.406,-5.073,8.480,2.169,-0.791,4.366,angry
7.45,2817,2845,3284,3013,1777,0,2592,3249,0,0,0,0,0,0,0,0,2.727,3.912,8.878,0.110,0.117,0.005,-0.417,-5.602,8.672,2.160,-0.722,4.366,angry
7.46,2809,2853,3270,3038,1751,0,2551,3255,27,0,0,0,0,0,0,0,3.069,3.697,8.799,0.104,0.089,-0.044,0.254,-6.000,8.509,2.228,-0.665,4.366,angry
7.47,2717,2789,3322,3084,1648,0,2403,3211,0,0,0,0,0,0,0,0,3.211,4.077,8.753,0.116,0.122,-0.090,-0.599,-7.484,9.103,2.341,-0.333,4.366,angry
7.48,2692,2748,3391,3146,1557,0,2131,3212,0,0,0,0,0,0,0,0,2.928,3.984,8.727,0.121,0.130,-0.081,-1.247,-7.877,8.576,2.491,0.063,4.366,angry
7.49,2691,2741,3426,3190,1477,0,2024,3182,0,0,0,0,0,0,0,0,2.907,4.041,8.772,0.133,0.132,-0.059,-1.135,-8.499,6.929,2.354,0.320,4.366,angry
7.50,2698,2695,3447,3215,1392,0,1968,3141,0,0,0,0,0,0,0,0,2.921,4.096,8.842,0.131,0.121,-0.027,1.391,-10.396,5.830,2.081,0.349,4.366,angry
7.51,2704,2688,3479,3253,1109,0,1830,3063,0,0,0,0,0,0,0,0,2.772,3.970,8.885,0.130,0.114,0.001,5.420,-11.875,3.666,1.713,0.472,3.848,angry
7.52,2736,2704,3483,3281,1166,0,1664,2976,0,0,0,0,0,0,4,4,3.031,4.063,8.526,0.129,0.186,-0.019,-3.747,-12.342,0.323,0.582,-0.035,2.858,angry
7.53,2770,2706,3522,3307,780,0,1360,2555,0,0,10,0,0,0,0,1581,2.543,3.706,9.057,0.196,0.172,0.160,11.049,-13.894,17.504,-0.437,-0.619,1.277,angry
7.54,2663,2618,3506,3211,60,0,433,718,0,0,0,0,0,0,661,2588,3.742,1.506,9.266,0.900,0.585,0.333,7.355,5.775,12.019,-0.778,-0.026,0.638,angry
7.55,2531,1527,3165,3083,0,0,0,0,0,21,0,0,0,0,1193,2907,7.432,6.361,10.570,0.752,1.273,0.471,7.068,5.219,12.194,-0.934,-0.570,0.175,angry
7.56,2547,640,2865,3123,0,0,0,0,0,0,0,0,0,0,1647,3160,4.791,2.993,5.940,0.707,1.523,0.002,1.863,-12.608,19.613,-1.313,-0.347,0.293,angry
7.57,2546,225,2103,3024,0,0,0,0,0,0,94,0,0,0,1917,3284,10.865,5.722,8.375,0.346,2.532,-0.519,2.298,-1.700,12.184,-0.389,-0.281,0.088,angry
7.58,2318,0,496,2743,0,0,0,0,0,0,10,61,22,0,2183,3420,11.047,5.231,7.242,-0.100,3.857,-1.498,0.271,-3.450,10.606,-0.360,-0.043,0.284,angry
7.59,1621,0,0,1808,0,0,0,0,0,0,0,232,122,0,2446,3511,11.554,3.093,6.187,-0.007,4.676,-2.994,1.963,-2.411,9.512,-0.230,-0.024,0.228,angry
7.60,435,0,0,559,0,0,0,0,0,0,17,363,181,5,2591,3611,19.613,12.799,7.130,0.187,7.359,-4.268,1.276,-2.756,10.494,-0.119,-0.052,0.230,angry
7.61,206,0,0,54,0,0,0,0,0,0,0,542,232,0,2711,3653,19.613,19.613,1.444,1.704,5.098,2.673,1.159,-2.473,10.156,-0.120,-0.018,0.190,angry
7.62,203,0,0,0,0,0,0,0,0,1,0,651,285,0,2782,3703,19.613,19.613,-4.034,2.757,3.779,8.669,1.319,-2.559,10.130,-0.127,-0.045,0.119,angry
7.63,239,0,0,0,0,0,0,0,0,0,0,647,299,0,2869,3741,13.144,16.984,5.816,3.356,3.393,8.731,1.046,-2.444,10.300,-0.065,-0.064,0.112,angry
7.64,255,0,0,0,0,0,0,0,0,0,0,809,363,0,2855,3758,-4.705,2.713,9.522,3.098,2.174,8.731,1.185,-2.133,9.670,-0.126,-0.094,0.080,angry
7.65,158,0,0,0,0,0,0,0,0,0,0,869,459,0,2877,3767,-5.203,-1.623,11.914,2.829,1.009,8.287,1.231,-2.428,10.036,-0.149,-0.115,0.052,angry
7.66,0,0,0,0,0,0,0,0,0,0,0,911,587,0,2855,3759,0.345,-0.977,15.146,1.703,1.144,6.462,1.307,-2.667,9.852,-0.090,-0.090,0.036,angry
7.67,0,0,0,0,0,0,0,0,8,0,0,924,699,2,2833,3734,2.571,-1.441,15.162,0.234,1.665,5.070,1.080,-2.339,9.704,-0.055,-0.096,0.020,angry
7.68,0,0,0,0,0,0,0,0,0,0,0,872,797,22,2741,3683,4.925,-1.147,11.576,-0.799,1.916,4.094,0.812,-2.112,9.855,-0.108,-0.116,0.056,angry
7.69,0,0,0,0,0,0,0,0,0,0,0,875,819,1,2655,3593,8.250,0.699,10.487,-1.413,1.691,3.649,0.895,-2.210,9.778,-0.125,-0.136,0.087,angry
7.70,0,0,0,0,0,0,0,0,44,0,0,606,957,13,2681,3431,11.641,3.172,7.906,-1.937,1.598,3.528,1.094,-2.229,9.469,-0.147,-0.127,0.139,angry
7.71,0,0,0,0,0,0,0,0,0,0,0,404,1192,0,2659,3215,12.708,4.293,6.342,-2.155,1.289,3.579,1.075,-2.306,9.562,-0.208,-0.122,0.206,angry
7.72,0,0,0,0,0,0,0,0,0,0,2,431,1363,0,2601,2968,13.666,5.442,5.241,-2.156,0.709,3.736,1.228,-2.574,9.572,-0.216,-0.108,0.269,angry
7.73,8,0,0,0,0,0,0,0,0,0,99,531,1608,0,2637,2893,13.838,6.127,5.021,-2.005,0.005,3.929,1.199,-2.535,9.507,-0.255,-0.116,0.351,angry
7.74,5,0,0,0,0,0,0,0,0,0,0,622,1781,0,2610,2914,13.807,7.233,6.428,-1.841,-0.649,4.012,0.934,-2.670,9.543,-0.279,-0.116,0.437,angry
7.75,48,0,0,0,0,0,0,0,0,9,0,883,1972,0,2665,2963,13.487,8.610,8.152,-1.835,-1.157,4.043,0.977,-2.811,9.606,-0.238,-0.074,0.519,angry
7.76,70,0,0,0,0,0,0,0,0,43,0,1064,2133,0,2469,2956,11.732,8.610,8.135,-1.814,-1.511,4.054,0.570,-2.806,9.294,-0.279,-0.049,0.639,angry
7.77,98,0,0,0,0,0,0,0,12,455,7,1210,2255,1,2438,2925,9.661,7.918,7.058,-1.634,-1.650,3.882,0.644,-2.665,9.570,-0.358,-0.061,0.777,angry
7.78,95,0,0,0,0,0,0,0,61,587,53,1396,2440,3,2449,2907,9.029,8.097,6.598,-1.298,-1.494,3.558,1.061,-2.959,9.340,-0.259,-0.086,0.827,angry
7.79,96,0,0,0,0,0,0,0,167,611,7,1628,2633,4,2445,2940,10.197,10.652,7.791,-0.913,-1.085,3.356,1.523,-3.280,9.582,-0.318,-0.078,0.782,angry
7.80,25,0,0,0,0,0,0,0,350,853,12,1863,2821,5,2507,2943,-1.046,12.498,14.609,-0.798,-1.628,3.481,2.337,-2.665,9.031,-0.246,0.027,0.630,angry
7.81,0,0,0,0,0,0,0,0,1109,1487,28,2427,3099,8,2421,2708,1.963,19.613,14.332,-0.592,-3.373,2.914,1.932,-3.031,9.476,-0.214,0.072,0.403,angry
7.82,0,0,0,0,0,0,0,0,1929,1685,7,2771,3207,5,2005,1820,-3.069,19.613,2.734,-1.173,-0.580,2.566,0.939,-2.507,10.262,-0.289,-0.105,0.308,angry
7.83,9,0,0,0,0,0,0,0,2229,1928,5,2904,3141,0,1548,1019,-10.369,19.613,-3.761,-0.317,-0.005,0.923,1.329,-3.294,10.214,-0.203,-0.151,0.307,angry
7.84,54,0,0,0,0,0,0,0,2709,2358,0,3289,2831,2,7,649,-0.812,19.613,-5.638,1.598,-0.063,0.852,1.671,-1.609,10.080,-0.967,-0.000,-0.002,angry
7.85,0,0,0,0,0,0,0,0,2909,2424,2,3293,2557,1,9,456,-0.421,19.613,-8.006,2.809,2.718,1.107,0.989,-3.934,8.813,-0.783,-0.230,0.063,angry
7.86,0,0,0,0,162,0,170,545,3063,2491,43,3339,2261,0,2,361,-5.064,13.668,6.347,2.869,3.635,1.660,1.238,-3.089,8.753,-0.817,-0.337,0.051,angry
7.87,0,0,0,0,397,0,1262,3059,3305,2273,2,3288,1355,1,2,161,-19.613,-4.978,19.613,4.653,-0.552,-1.596,0.733,-2.631,10.604,-2.733,-0.080,0.159,angry
7.88,0,0,0,0,289,0,2587,3475,3295,1741,0,3150,809,0,0,231,15.117,16.860,9.225,2.366,-0.146,-2.083,1.676,-4.865,8.550,-4.366,0.267,-0.055,angry
7.89,0,63,0,0,945,0,3184,3671,3212,590,25,2171,152,0,20,183,6.290,9.371,1.140,0.618,2.587,-1.217,-0.493,0.579,19.326,-4.366,0.648,1.112,angry
7.90,0,1086,0,0,1610,0,3380,3774,2587,1,0,586,1,0,0,56,6.723,6.182,9.943,0.460,2.369,-1.124,5.282,1.269,19.613,-4.366,1.061,3.972,angry
7.91,0,1514,0,142,1946,0,3405,3780,1575,2555,0,2515,2585,1682,1558,3114,0.941,5.966,19.525,0.687,1.474,-0.806,0.069,-5.966,19.613,-4.366,0.372,4.366,angry
7.92,134,1809,0,903,2174,0,3471,3851,1575,2599,0,2536,2605,1679,1592,3119,4.221,4.089,9.402,0.288,0.684,-0.333,1.331,-13.087,19.613,-4.366,-0.903,4.286,angry
7.93,237,2026,2144,1249,2278,0,3516,3839,0,0,0,0,0,0,0,0,3.491,3.299,9.433,0.231,0.220,-0.145,19.613,9.170,19.613,1.990,0.782,3.932,angry
7.94,374,2153,2418,1429,2320,0,3521,3805,0,0,0,0,0,0,0,0,3.998,3.508,8.674,0.318,0.103,-0.186,14.368,4.683,14.260,2.548,1.679,2.825,angry
7.95,397,2265,349,1473,2384,0,3504,3749,0,0,53,0,0,0,0,0,3.783,3.445,8.748,0.269,0.042,-0.135,8.437,7.199,15.558,3.063,-0.376,1.667,angry
7.96,413,2365,2798,1585,2477,0,3465,3663,0,0,7,0,0,0,0,0,4.080,3.412,8.274,0.255,0.120,-0.163,12.933,2.421,13.522,3.630,-2.287,0.210,angry
7.97,457,2459,2904,1721,2547,0,3382,3563,0,0,12,0,0,0,0,0,3.795,3.512,8.732,0.318,0.169,-0.220,10.154,1.080,12.184,4.366,-2.419,-0.985,angry
7.98,507,2592,303,1968,2551,0,3133,3298,0,0,0,0,0,0,0,0,3.443,3.361,9.139,0.311,0.034,-0.166,-3.409,-0.503,9.989,4.366,-3.294,-1.320,angry
7.99,567,2645,2848,2131,2495,0,2944,3118,0,0,0,0,0,0,0,0,3.481,3.498,8.832,0.327,-0.034,-0.184,-3.457,-3.012,10.664,4.366,-3.368,-0.738,angry
8.00,595,2768,3278,2266,2497,0,2647,2741,39,0,0,0,5,1,0,3,3.460,3.864,8.720,0.294,-0.079,-0.168,-2.978,-4.053,11.497,4.366,-2.840,-0.139,angry
8.01,528,2885,90,2445,2499,0,2383,2375,0,0,0,0,0,0,0,0,3.500,3.407,8.370,0.179,0.022,-0.204,-3.151,-4.630,14.025,4.366,-3.002,0.767,angry
8.02,555,2954,3422,2559,2527,0,2256,2165,0,0,0,0,0,0,0,0,3.539,3.527,8.157,0.194,0.092,-0.255,0.479,-7.017,16.642,4.366,-3.146,0.598,angry
8.03,629,3039,120,2710,2544,0,2134,1915,0,0,0,0,0,0,0,5,3.560,4.202,8.899,0.200,0.087,-0.277,2.195,-8.406,19.010,4.366,-3.300,-0.008,angry
8.04,756,3127,0,2867,2609,0,2027,1414,0,0,0,0,0,0,0,0,3.393,3.955,8.772,0.261,0.017,-0.310,4.175,-8.655,19.613,4.366,-3.420,-0.817,angry
8.05,1078,3241,0,3007,2640,0,1781,734,0,0,0,0,0,0,35,0,3.345,3.733,8.684,0.302,-0.023,-0.308,4.958,-11.914,19.613,4.366,-3.234,-1.893,angry
8.06,1783,3428,0,3163,2676,0,1393,0,0,0,0,0,0,0,0,0,3.445,4.005,8.538,0.322,-0.076,-0.222,-4.298,-19.613,13.621,3.981,-2.438,-3.413,angry
8.07,2126,3553,0,3229,2559,0,979,0,0,0,0,0,0,0,0,0,3.421,3.740,8.715,0.375,-0.118,-0.213,-10.439,-19.613,14.492,3.942,-1.339,-2.506,angry
8.08,2391,3664,0,3287,2192,0,572,0,0,0,0,0,0,0,0,0,3.170,3.824,8.662,0.573,-0.083,-0.251,-9.766,-19.613,10.216,3.110,-2.813,-2.519,angry
8.09,2693,3773,0,3326,1804,0,621,0,0,0,0,0,0,0,0,0,3.388,3.318,8.614,1.050,-0.026,-0.192,-10.721,-19.613,-7.415,1.700,-2.978,-2.443,angry
8.10,2877,3846,0,3371,1456,0,603,0,0,0,0,0,0,0,0,22,3.407,3.838,8.411,1.282,0.054,-0.175,-13.120,-19.613,-8.736,0.023,-2.474,-2.255,angry
8.11,3039,3896,0,3382,1052,0,607,0,0,0,0,0,0,0,0,0,2.828,4.159,9.972,1.599,0.129,-0.157,-12.938,-19.613,-2.887,-1.255,-1.695,-2.091,angry
8.12,3185,3923,0,3375,944,0,565,0,0,0,0,0,0,0,0,0,3.754,3.998,8.954,1.963,0.193,-0.244,-11.329,-19.613,-3.259,-2.905,-0.805,-1.593,angry
8.13,3322,3946,0,3343,944,0,478,0,0,0,0,0,0,0,0,133,4.511,3.280,8.765,2.418,0.221,-0.277,-1.839,-5.756,6.840,-1.316,3.033,-0.400,angry
8.14,3413,3884,3936,3281,528,0,433,0,0,0,0,10,0,0,0,1087,6.397,2.799,8.552,3.178,0.412,-0.390,-14.612,19.613,19.613,-3.029,0.832,-0.213,angry
8.15,3581,3450,3920,3239,432,0,113,0,0,0,0,0,0,0,0,2107,5.820,1.956,7.877,5.119,0.931,-0.982,-7.527,1.844,-0.256,-4.366,-0.695,0.353,angry
8.16,3619,2257,3728,2956,356,0,0,0,0,0,0,0,0,0,247,2659,4.092,2.358,12.227,6.192,0.669,-1.713,-0.055,-16.685,19.613,-4.366,0.879,0.755,angry
8.17,3279,1136,2593,1938,0,0,0,0,5,3,2,3,1,0,1491,2980,10.017,6.519,19.613,8.224,-1.433,-3.911,2.528,-0.828,9.175,-3.444,0.198,0.864,angry
8.18,2384,522,624,671,0,0,0,0,0,1,23,0,97,0,2425,3732,8.861,13.417,19.417,8.635,-0.704,-5.121,4.398,-19.613,19.613,-2.183,2.352,1.464,angry
8.19,642,0,0,0,0,0,0,0,0,0,0,0,762,0,3014,3913,19.613,14.873,19.613,3.680,-1.095,-4.990,0.163,-3.883,14.269,-0.697,1.770,1.051,angry
8.20,0,0,0,0,0,0,0,0,0,0,0,0,1229,0,3145,3909,19.613,-2.777,19.613,-0.456,-0.045,-3.838,4.911,-4.973,9.902,-0.214,1.334,0.487,angry
8.21,42,0,0,0,0,0,0,0,0,0,0,0,1512,0,3303,3959,19.613,-4.152,15.543,-1.654,1.055,-1.750,1.891,-2.940,10.080,-0.240,0.896,0.348,angry
8.22,160,0,0,0,0,0,0,0,0,1,0,45,1750,0,3292,3963,15.986,-4.183,12.409,-2.146,1.222,-0.721,1.111,-2.459,9.941,-0.226,0.546,0.292,angry
8.23,233,0,0,0,0,0,0,0,0,0,0,199,1909,0,3295,3960,12.019,-4.343,12.740,-2.496,-0.181,0.228,1.329,-2.344,9.989,-0.285,0.322,0.231,angry
8.24,208,0,0,0,0,0,0,0,0,0,0,313,1983,0,3224,3853,13.111,-1.077,10.942,-2.869,-1.234,1.123,1.199,-2.770,10.113,-0.256,0.228,0.204,angry
8.25,189,0,0,0,0,0,0,0,0,0,0,532,2071,0,3141,3786,12.670,0.637,10.051,-3.565,-1.208,2.000,1.887,-2.765,9.548,-0.318,0.096,0.186,angry
8.26,121,0,0,0,0,0,0,0,0,19,43,611,2125,0,2989,3603,8.703,2.157,9.268,-4.103,-1.118,2.730,2.526,-2.976,9.680,-0.381,0.076,0.193,angry
8.27,80,0,0,0,0,0,0,0,0,0,0,685,2199,0,2871,3519,4.547,2.540,9.254,-4.405,-1.424,3.094,1.767,-2.777,9.347,-0.369,0.155,0.267,angry
8.28,36,0,0,0,0,0,0,0,0,45,0,1191,2221,0,2748,3511,2.844,2.883,8.985,-4.552,-1.806,3.171,1.822,-2.753,10.070,-0.347,0.230,0.412,angry
8.29,0,0,0,0,0,0,0,0,0,425,0,1322,2147,11,2444,3258,3.163,4.243,10.245,-4.725,-1.905,3.093,1.877,-3.168,10.032,-0.339,0.283,0.483,angry
8.30,0,0,0,0,0,0,0,0,0,390,0,1751,2238,1,2057,3339,3.943,5.890,12.325,-4.980,-1.775,3.009,1.310,-2.986,9.577,-0.262,0.303,0.444,angry
8.31,0,0,0,0,0,0,0,0,7,474,0,1993,2232,1,1942,3221,4.405,7.432,13.807,-5.233,-1.705,2.926,1.219,-2.504,8.612,-0.234,0.242,0.390,angry
8.32,0,0,0,0,0,0,0,0,27,493,0,2142,2249,3,1816,3051,5.746,8.878,14.870,-5.359,-1.748,2.902,1.499,-3.450,9.632,-0.196,0.083,0.259,angry
8.33,0,0,0,0,0,0,0,0,137,595,7,2280,2231,0,1790,2868,8.301,10.865,16.379,-5.360,-1.710,3.056,1.480,-3.254,9.548,-0.224,-0.025,0.212,angry
8.34,1,0,0,0,0,0,0,0,359,649,0,2296,2301,4,1497,2684,10.034,13.173,18.962,-5.283,-1.684,3.392,1.647,-3.735,9.098,-0.126,0.080,0.187,angry
8.35,48,0,0,0,0,0,0,0,583,633,7,2349,2183,2,1325,2366,13.137,15.198,19.096,-5.107,-1.301,3.742,1.360,-3.158,9.488,-0.256,0.060,0.184,angry
8.36,84,0,0,0,0,0,0,0,867,1107,2,2452,2217,4,1279,2099,11.564,18.634,18.217,-4.759,-0.584,4.085,1.243,-3.816,11.044,-0.183,0.122,0.134,angry
8.37,13,0,0,0,0,0,0,0,1162,1287,7,2681,2275,9,735,1821,-3.383,19.613,19.491,-4.240,-0.376,3.106,0.898,-3.452,8.890,-0.120,0.131,0.142,angry
8.38,212,0,0,0,0,0,0,0,2068,1565,10,2921,2367,5,37,1277,-13.786,19.613,-3.713,-3.010,-2.452,2.488,1.750,-3.488,10.027,-0.325,0.072,0.156,angry
8.39,330,0,0,0,0,0,0,0,2535,1707,0,3091,1805,1,1,627,-15.122,19.613,-14.339,-0.440,-1.205,1.037,1.674,-3.788,9.055,-0.638,0.172,-0.109,angry
8.40,295,0,0,0,0,0,0,0,2771,1878,2,3208,1579,0,0,455,-11.408,19.613,-10.511,1.945,0.975,-0.071,1.417,-3.208,9.155,-0.614,0.022,-0.155,angry
8.41,0,0,0,0,0,0,363,1535,3027,1835,0,3319,797,0,6,277,-1.451,0.515,13.113,2.203,2.556,-0.602,1.963,-2.490,9.929,-1.044,-0.183,-0.259,angry
8.42,0,0,0,0,357,0,1712,3328,3293,1557,0,3401,168,0,13,125,-1.817,4.087,3.630,5.633,-1.180,-2.642,0.833,-2.914,8.887,-3.894,0.068,-0.071,angry
8.43,0,0,0,0,421,0,3025,3618,3311,727,0,3171,93,0,0,87,19.613,13.542,17.346,2.382,0.213,-1.249,7.252,-6.029,8.533,-4.366,0.462,0.373,angry
8.44,0,238,0,0,1257,0,3283,3698,3415,151,0,3019,0,0,0,59,8.583,13.343,7.556,1.735,1.962,-1.546,4.772,-2.162,11.837,-4.366,2.086,1.633,angry
8.45,0,1395,0,32,2065,0,3406,3792,1577,2556,0,2501,2583,1653,1557,3119,3.340,9.653,14.839,0.532,2.573,-1.143,12.704,2.471,19.613,-4.366,2.344,4.366,angry
8.46,0,1935,0,947,2369,0,3485,3844,1576,2555,0,2505,2583,1651,1559,3111,2.037,5.562,12.754,0.283,0.856,-0.480,8.126,-0.706,19.613,-2.261,2.858,4.366,angry
8.47,0,2162,0,1283,2624,0,3540,3869,1571,2571,0,2495,2580,1661,1567,3123,3.290,3.093,10.029,0.224,0.312,-0.250,7.211,-2.823,19.613,-0.127,0.186,4.366,angry
8.48,143,2385,2730,1424,2843,0,3538,3815,0,0,0,0,0,0,44,0,2.854,3.847,10.379,0.213,-0.025,-0.124,18.009,2.638,7.819,2.120,0.628,0.369,angry
8.49,225,2505,0,1468,2906,0,3472,3696,0,0,0,0,0,0,0,0,3.654,3.493,8.808,0.155,-0.063,-0.007,11.772,0.220,9.067,2.933,-2.012,-2.077,angry
8.50,181,2559,2898,1481,2897,0,3379,3553,1579,2595,0,2541,2627,1703,1603,3173,4.144,3.239,8.404,0.170,-0.016,-0.027,5.148,-0.014,11.315,3.766,-1.681,-2.527,angry
8.51,128,2626,2963,1619,2764,0,3090,3254,1577,2573,0,2507,2591,1633,1564,3157,3.967,2.878,8.480,0.247,0.081,-0.171,-0.927,-0.800,11.217,4.366,-2.088,-2.531,angry
