timestamp,L1,L2,L3,L4,L5,L6,L7,L8,R1,R2,R3,R4,R5,R6,R7,R8,acc_x_left,acc_y_left,acc_z_left,gyro_x_left,gyro_y_left,gyro_z_left,acc_x_right,acc_y_right,acc_z_right,gyro_x_right,gyro_y_right,gyro_z_right,mood
0.00,2511,2800,3183,1934,2748,0,2976,3231,97,28,2218,2287,247,16,2539,3685,0.256,3.637,9.366,0.096,-0.000,-0.015,0.503,-2.614,9.711,-0.037,0.038,0.032,angry
0.01,2622,2938,3280,2161,2855,0,3071,3255,212,27,2346,2347,9,11,2310,3640,0.187,3.637,9.357,0.089,-0.003,-0.007,0.433,-2.787,9.711,-0.044,0.035,0.031,angry
0.02,2723,3052,3353,2302,2880,0,3124,3264,229,43,2482,2415,17,10,2091,3581,0.225,3.651,9.388,0.095,-0.011,-0.001,0.455,-2.734,9.725,-0.021,0.027,0.025,angry
0.03,2812,3131,3408,2397,2923,0,3149,3250,222,29,2436,2431,55,7,1973,3639,0.283,3.663,9.335,0.083,0.002,-0.009,0.467,-2.737,9.682,-0.026,0.026,0.023,angry
0.04,2853,3189,3456,2474,2990,0,3169,3247,249,18,2579,2471,39,8,1899,3468,0.242,3.651,9.390,0.078,0.024,-0.019,0.522,-2.768,9.740,-0.047,0.029,0.029,angry
0.05,2907,3228,3487,2527,3046,0,3170,3232,231,45,2774,2519,0,10,1836,3447,0.223,3.603,9.337,0.064,0.035,-0.019,0.462,-2.847,9.689,-0.011,0.032,0.024,angry
0.06,2942,3252,3505,2618,3056,0,3158,3216,245,37,2792,2518,53,20,1810,3429,0.196,3.701,9.369,0.066,0.033,-0.009,0.474,-2.751,9.692,-0.005,0.024,0.021,angry
0.07,2967,3295,3523,2666,3082,0,3152,3204,269,41,2843,2565,0,7,1861,3399,0.247,3.627,9.369,0.061,0.035,-0.006,0.467,-2.777,9.752,-0.007,0.012,0.016,angry
0.08,3014,3313,3538,2705,3094,0,3129,3181,277,43,2884,2619,47,23,1883,3397,0.189,3.670,9.316,0.059,0.034,-0.009,0.472,-2.772,9.740,0.001,0.022,0.019,angry
0.09,3035,3327,3562,2747,3105,0,3108,3151,291,51,2904,2637,83,12,1895,3375,0.208,3.675,9.337,0.053,0.035,-0.013,0.484,-2.780,9.665,-0.004,0.030,0.018,angry
0.10,3047,3344,3569,2750,3121,0,3106,3135,354,44,2915,2648,235,20,1933,3400,0.204,3.713,9.275,0.051,0.029,-0.009,0.500,-2.768,9.706,-0.023,0.014,0.022,angry
0.11,3083,3357,3583,2817,3142,0,3101,3122,373,420,3020,2677,319,54,2095,3323,0.184,3.675,9.357,0.049,0.025,-0.015,0.441,-2.823,9.699,-0.022,0.020,0.018,angry
0.12,3093,3371,3598,2846,3152,0,3089,3115,345,427,2915,2696,355,53,1984,3311,0.192,3.627,9.273,0.048,0.033,-0.013,0.472,-2.789,9.689,-0.018,0.021,0.023,angry
0.13,3100,3376,3602,2853,3158,0,3088,3101,309,583,2894,2732,379,60,1991,3223,0.158,3.699,9.292,0.050,0.029,-0.009,0.453,-2.840,9.704,-0.028,0.024,0.025,angry
0.14,3111,3392,3612,2870,3164,0,3059,3054,402,647,3022,2791,419,69,1990,3199,0.199,3.670,9.266,0.054,0.030,-0.006,0.496,-2.892,9.780,-0.014,0.023,0.022,angry
0.15,3127,3397,3621,2883,3169,0,3040,3037,393,711,3043,2829,413,56,2025,3225,0.170,3.701,9.342,0.044,0.030,-0.009,0.460,-2.808,9.661,-0.009,0.025,0.024,angry
0.16,3124,3407,3627,2896,3175,0,3043,3039,422,700,3058,2808,414,56,2025,3211,0.204,3.654,9.333,0.044,0.024,-0.012,0.493,-2.835,9.723,-0.012,0.026,0.018,angry
0.17,3138,3418,3635,2910,3181,0,3056,3041,447,676,3071,2867,414,57,1997,3192,0.244,3.677,9.282,0.044,0.027,-0.008,0.493,-2.856,9.737,-0.010,0.028,0.021,angry
0.18,3145,3430,3645,2928,3181,0,3063,3047,487,717,3063,2903,371,55,2008,3181,0.204,3.685,9.352,0.047,0.027,-0.004,0.488,-2.818,9.641,-0.005,0.032,0.021,angry
0.19,3156,3440,3648,2949,3185,0,3071,3037,585,703,3099,2917,409,56,1930,3163,0.189,3.658,9.347,0.049,0.023,-0.002,0.517,-2.851,9.651,-0.007,0.026,0.022,angry
0.20,3175,3447,3648,2961,3189,0,3066,3027,659,755,3068,2963,424,55,1893,3125,0.208,3.706,9.347,0.055,0.027,-0.006,0.474,-2.847,9.673,-0.008,0.025,0.018,angry
0.21,3178,3455,3660,2967,3198,0,3065,3015,684,789,3061,2975,397,55,1884,3123,0.194,3.723,9.304,0.057,0.018,-0.008,0.486,-2.835,9.716,-0.004,0.027,0.022,angry
0.22,3184,3463,3663,2981,3205,0,3069,3004,685,760,3076,3063,425,57,1833,3089,0.235,3.680,9.345,0.052,0.023,-0.002,0.503,-2.868,9.651,-0.007,0.026,0.017,angry
0.23,3186,3475,3670,2998,3216,0,3062,2983,617,774,3066,3077,414,55,1763,3077,0.163,3.728,9.270,0.049,0.022,-0.002,0.421,-2.818,9.687,0.001,0.028,0.019,angry
0.24,3191,3479,3673,3008,3226,0,3094,2998,632,825,3076,3087,425,54,1721,3047,0.261,3.682,9.306,0.039,0.013,0.008,0.443,-2.820,9.699,-0.001,0.029,0.018,angry
0.25,3206,3495,3679,3022,3227,0,3120,2983,665,798,3068,3115,425,55,1623,2998,0.208,3.622,9.328,0.048,0.018,-0.002,0.450,-2.907,9.747,-0.006,0.016,0.014,angry
0.26,3213,3510,3684,3026,3235,0,3122,2944,719,810,3068,3111,440,55,1565,2966,0.218,3.737,9.282,0.043,0.021,-0.005,0.455,-2.863,9.711,0.000,0.023,0.014,angry
0.27,3215,3513,3691,3033,3239,0,3130,2947,747,827,3078,3103,432,55,1528,2877,0.184,3.687,9.282,0.032,0.012,0.002,0.467,-2.859,9.699,0.002,0.025,0.019,angry
0.28,3213,3534,3701,3041,3246,0,3163,2992,734,713,3048,3109,303,57,1543,2967,0.187,3.670,9.268,0.032,0.002,0.006,0.469,-2.907,9.701,0.028,0.018,0.018,angry
0.29,3182,3543,3697,3039,3253,0,3210,3039,733,590,2979,3001,31,75,1515,2995,0.160,3.680,9.246,0.027,-0.011,0.008,0.488,-2.966,9.694,0.077,0.027,0.010,angry
0.30,3123,3545,3707,3039,3245,0,3278,3116,403,8,2915,2863,7,6,1512,3021,0.259,3.711,9.409,0.012,-0.018,0.009,0.510,-2.887,9.783,0.095,0.002,0.001,angry
0.31,3024,3558,3701,2998,3219,0,3338,3203,239,0,2643,2237,37,9,1429,3059,0.261,3.694,9.318,0.009,-0.018,0.007,0.450,-2.808,9.613,0.060,-0.037,-0.021,angry
0.32,2919,3563,3705,2943,3217,0,3397,3283,183,11,486,1641,5,5,1513,3119,0.309,3.747,9.388,0.001,-0.005,0.005,0.503,-3.043,9.845,0.061,-0.033,-0.027,angry
0.33,2768,3561,3669,2822,3227,0,3471,3348,91,5,350,1135,5,3,1559,3155,0.309,3.752,9.383,-0.019,0.005,0.010,0.493,-2.600,9.764,0.073,-0.021,-0.045,angry
0.34,2557,3543,3639,2624,3262,0,3504,3408,40,2,278,701,37,3,1659,3287,0.484,3.096,9.220,0.029,0.005,-0.001,0.546,-2.820,9.766,0.092,-0.039,-0.041,angry
0.35,2638,3519,3664,2682,3278,0,3490,3373,0,7,191,167,0,2,1815,3359,0.285,3.613,9.395,0.067,0.022,-0.002,0.457,-2.753,9.754,0.110,-0.021,-0.047,angry
0.36,2638,3553,3647,2687,3279,0,3441,3355,1,0,191,0,0,2,1895,3416,0.326,3.675,9.352,0.068,0.015,0.011,0.692,-2.758,9.673,0.115,-0.030,-0.041,angry
0.37,2494,3559,3639,2559,3259,0,3282,3147,0,5,314,1,1,0,2084,3497,0.340,3.608,9.474,0.102,0.002,0.019,0.608,-2.655,9.658,0.133,0.004,-0.022,angry
0.38,2287,3534,3616,2201,3137,0,2608,2032,0,1,189,0,25,1,2377,3620,0.381,3.445,9.510,0.155,0.006,0.034,0.352,-2.698,9.831,0.141,0.047,-0.005,angry
0.39,2141,3504,3568,1927,2483,0,1861,0,0,0,186,0,26,1,2619,3695,0.220,2.571,9.579,0.376,-0.037,0.057,0.481,-2.631,9.713,0.162,0.070,-0.003,angry
0.40,2047,3472,3506,1572,2005,0,1475,0,3,2,186,232,0,3,3031,3827,1.324,3.208,9.045,1.266,-0.064,0.404,0.548,-2.557,9.740,0.168,0.092,0.005,angry
0.41,1901,3222,3250,595,1378,0,1264,0,3,0,468,436,475,4,3349,3949,2.131,3.139,10.731,2.004,0.019,0.325,0.543,-2.421,9.900,0.108,0.095,0.006,angry
0.42,1275,1749,2071,0,633,0,1075,0,3,4,1005,534,372,4,3423,3987,0.979,1.621,13.046,2.572,-0.316,-0.256,0.575,-2.447,9.685,0.078,0.100,0.018,angry
0.43,0,0,0,0,530,0,1008,0,3,5,1778,729,613,4,3519,4053,3.931,0.342,19.453,1.628,0.469,-0.992,0.443,-2.284,9.764,-0.019,0.098,0.073,angry
0.44,0,0,0,0,335,0,921,0,3,23,1952,1050,632,5,3551,4046,6.802,-2.698,15.483,0.876,0.590,-1.038,0.529,-2.416,9.780,-0.048,0.098,0.089,angry
0.45,0,0,0,0,93,0,949,0,6,5,1998,1167,715,4,3573,4054,4.096,-0.697,18.150,-0.491,0.785,-1.053,0.436,-2.658,9.984,-0.034,0.092,0.075,angry
0.46,0,0,0,0,0,0,884,0,37,5,2029,1299,767,71,3593,3977,3.096,-4.750,13.570,-1.142,0.267,-1.022,0.455,-2.543,9.869,-0.029,0.065,0.051,angry
0.47,0,0,0,0,0,0,918,0,4,5,2034,1398,797,39,3594,4024,3.457,-5.183,9.505,-1.565,-0.170,-0.891,0.443,-2.545,9.857,-0.046,0.054,0.040,angry
0.48,0,0,0,0,0,0,918,0,3,5,2032,1516,824,3,3576,4050,3.967,-3.266,9.510,-1.673,-0.452,-0.621,0.412,-2.602,9.835,-0.038,0.041,0.039,angry
0.49,0,0,0,0,0,0,901,0,5,4,2029,1544,871,5,3563,4043,3.780,-2.512,9.943,-1.852,-0.599,-0.198,0.397,-2.734,9.910,-0.012,0.022,0.021,angry
0.50,0,0,0,0,0,0,887,0,6,5,2014,1547,814,3,3530,4029,2.583,-1.199,10.345,-1.962,-0.674,0.218,0.409,-2.583,9.749,0.001,0.017,0.016,angry
0.51,0,0,0,0,0,0,877,0,5,23,2024,1383,713,4,3539,4024,1.389,0.469,10.922,-2.087,-0.727,0.539,0.412,-2.509,9.742,-0.002,0.029,0.026,angry
0.52,0,0,0,0,0,0,851,0,5,4,2042,1463,751,5,3537,4069,0.828,1.915,11.111,-2.183,-0.638,0.796,0.397,-2.574,9.759,-0.003,0.038,0.032,angry
0.53,0,0,0,0,0,0,823,0,4,8,2014,1321,650,6,3432,4025,0.424,2.593,10.743,-2.216,-0.340,0.946,0.347,-2.665,9.878,0.014,0.046,0.031,angry
0.54,0,0,0,0,0,0,725,0,0,54,2034,1315,699,5,3592,4028,0.139,3.290,9.974,-2.161,0.136,0.966,0.381,-2.598,9.699,0.031,0.038,0.026,angry
0.55,0,0,0,0,0,0,593,0,4,3,2065,1261,696,0,3609,4041,-0.294,3.824,9.342,-1.923,0.536,0.877,0.460,-2.591,9.773,0.041,0.041,0.019,angry
0.56,0,0,0,0,0,0,333,0,0,4,2034,1238,616,4,3635,4022,0.532,4.798,8.617,-1.586,0.855,0.767,0.455,-2.413,9.797,0.036,0.049,0.025,angry
0.57,0,0,0,0,0,0,44,0,14,4,2157,1361,664,6,3783,4053,1.386,6.021,7.932,-1.202,1.034,0.746,0.402,-2.490,9.764,0.025,0.046,0.035,angry
0.58,0,0,0,0,0,0,0,0,53,6,2224,1289,681,7,3667,4029,1.796,7.130,7.853,-0.825,0.984,0.851,0.397,-2.466,9.773,0.011,0.049,0.039,angry
0.59,0,0,0,0,0,0,0,0,39,7,2221,1417,685,6,3675,4051,1.999,9.752,8.614,-0.272,0.703,1.064,0.330,-2.466,9.720,0.005,0.050,0.046,angry
0.60,0,0,0,0,0,0,0,0,63,7,2142,1486,932,7,3675,4057,-6.041,13.329,11.466,-0.544,0.152,1.330,0.419,-2.519,9.699,-0.001,0.042,0.044,angry
0.61,0,0,0,0,0,0,0,0,61,10,2272,1595,989,8,3679,4049,-7.585,15.974,5.792,-0.689,-0.127,1.210,0.572,-2.473,9.723,-0.001,0.039,0.050,angry
0.62,0,0,0,0,0,0,14,304,80,9,2239,1691,956,3,3677,4031,-11.234,14.004,-3.836,-0.267,0.323,0.430,0.306,-2.186,9.589,-0.047,0.039,0.057,angry
0.63,0,0,0,0,0,0,192,1744,143,111,2715,2139,1443,31,3551,3945,-10.934,19.474,-7.010,1.791,-0.124,-1.026,0.397,-2.421,9.680,-0.150,0.041,0.090,angry
0.64,0,0,0,0,0,0,821,3071,151,166,2881,2423,1595,39,3616,3863,2.512,6.211,19.613,1.121,-0.236,-0.777,0.402,-2.485,9.761,-0.173,0.049,0.082,angry
0.65,0,0,0,0,0,0,1654,3502,180,791,3176,2863,1789,46,3347,3663,1.259,0.172,3.065,1.719,0.442,-0.365,0.498,-2.552,10.020,-0.199,0.037,0.055,angry
0.66,0,0,0,0,1008,0,2309,3675,479,1451,3293,3043,1763,57,2496,2085,-19.613,7.436,19.613,4.669,-2.399,-0.040,0.443,-2.241,9.768,-0.341,0.021,0.093,angry
0.67,1110,0,0,0,1975,0,2950,3806,730,1527,3339,3157,1269,61,1653,890,-2.140,6.625,11.200,0.372,-0.148,-0.092,0.860,-2.734,10.096,-0.500,0.046,0.017,angry
0.68,1918,4,848,304,2311,0,3191,3866,1363,1577,3355,3320,108,12,159,10,0.692,4.583,9.505,0.320,-0.056,-0.095,0.965,0.802,10.649,-1.447,0.044,-0.464,angry
0.69,2241,667,1977,1061,2480,0,3319,3895,1768,875,3329,3187,0,22,73,3,0.206,3.962,9.811,0.270,-0.010,-0.059,1.494,-1.408,11.662,-2.558,0.005,-0.736,angry
0.70,2416,1471,2631,1744,2691,0,3426,3904,1819,427,3350,3003,2,2,1,2,0.254,3.632,9.685,0.134,0.018,-0.007,1.753,-1.750,11.080,-2.974,0.234,-0.262,angry
0.71,2541,1989,2959,2179,2833,0,3505,3919,1179,3,962,1577,0,1,3,5,0.113,3.546,9.340,0.143,0.032,-0.011,2.519,-1.958,14.873,-5.416,0.248,0.215,angry
0.72,2677,2342,3168,2445,2981,0,3553,3918,122,2,197,155,1,1,2,1,0.098,3.713,9.424,0.060,0.070,-0.010,3.445,-2.576,18.306,-5.404,1.363,1.745,angry
0.73,2743,2559,3281,2656,3057,0,3578,3915,0,0,194,0,0,0,1,0,0.196,3.563,9.301,0.041,0.048,-0.005,2.878,1.312,19.613,-3.351,1.939,2.049,angry
0.74,2833,2737,3383,2775,3179,0,3583,3897,0,0,191,0,0,0,0,1,0.122,3.500,9.419,0.070,0.020,0.003,6.012,3.570,18.914,-0.791,0.618,1.618,angry
0.75,2898,2883,3453,2864,3235,0,3568,3855,2,1,186,2,0,5,33,2,0.168,3.565,9.452,0.080,0.018,0.002,6.076,6.000,12.098,0.410,0.421,1.471,angry
0.76,2964,3005,3507,2935,3291,0,3525,3805,2,0,184,1,1,2,1,90,0.215,3.567,9.325,0.075,0.022,0.006,7.087,4.820,10.848,0.963,-0.016,1.017,angry
0.77,3021,3106,3556,2998,3315,0,3463,3746,2,2,181,0,0,1,0,0,0.089,3.694,9.452,0.081,0.019,0.002,6.972,3.998,9.124,1.817,-0.400,-0.016,angry
0.78,3063,3162,3601,3039,3340,0,3394,3694,1,13,143,3,11,1,4,3,0.223,3.639,9.309,0.081,0.025,-0.003,3.891,1.875,10.441,2.543,-1.079,-0.742,angry
0.79,3113,3207,3638,3063,3349,0,3344,3648,2,25,181,2,9,2,7,3,0.146,3.608,9.278,0.069,0.035,-0.006,2.691,0.723,10.616,2.851,-1.265,-0.962,angry
0.80,3168,3258,3668,3123,3376,0,3283,3600,2,3,191,2,40,3,1,1,0.120,3.615,9.301,0.068,0.036,-0.004,0.824,-1.180,11.384,3.226,-1.469,-1.087,angry
0.81,3215,3296,3701,3167,3401,0,3246,3541,3,1,179,3,2,2,1,3,0.108,3.591,9.321,0.066,0.039,-0.007,-0.156,-2.698,13.123,3.603,-1.406,-0.910,angry
0.82,3260,3339,3747,3214,3439,0,3201,3472,1,2,176,20,2,0,3,1,0.105,3.505,9.275,0.071,0.045,-0.007,-0.376,-3.067,12.893,3.716,-1.396,-0.756,angry
0.83,3299,3363,3779,3265,3472,0,3094,3361,0,1,161,36,1,2,3,2,0.024,3.496,9.361,0.095,0.051,-0.011,-0.069,-3.211,12.627,3.489,-1.216,-0.343,angry
0.84,3337,3436,3826,3317,3504,0,2867,3127,2,1,214,28,2,1,1,2,0.132,3.589,9.357,0.119,0.052,-0.016,2.610,-8.997,19.613,3.558,-1.594,-0.383,angry
0.85,3401,3527,3861,3393,3505,0,2690,2354,1,1,174,0,2,1,5,1,0.129,3.706,9.313,0.133,0.074,-0.014,3.373,-10.477,16.518,3.671,-1.501,-0.902,angry
0.86,3475,3645,3899,3459,3493,0,2387,871,0,1,176,2,0,2,3,1,-0.034,3.534,9.452,0.158,0.086,-0.003,0.462,-16.604,14.135,3.000,-1.469,-1.697,angry
0.87,3550,3755,3931,3542,3357,0,1968,0,0,0,153,0,1,0,40,0,0.000,3.548,9.316,0.233,0.103,0.022,-0.261,-19.613,4.693,2.152,-1.023,-2.489,angry
0.88,3648,3829,3915,3613,2951,0,1606,0,1,0,156,0,0,0,2,0,0.273,3.761,9.433,0.417,0.112,0.108,-1.781,-19.613,-3.117,0.971,-0.022,-2.549,angry
0.89,3742,3888,3977,3670,2745,0,1331,0,0,0,202,77,0,0,0,0,4.515,4.999,5.772,1.142,0.784,0.263,-7.242,-19.613,-6.735,-1.497,0.774,-2.306,angry
0.90,3843,3928,3999,3716,2409,0,1301,0,0,0,156,7,0,8,1,277,0.383,3.405,9.527,1.066,0.152,0.386,-0.591,-1.233,19.613,-1.353,3.958,0.607,angry
0.91,3920,3906,4021,3737,1935,0,1277,0,0,0,145,0,0,13,0,1637,0.958,3.168,9.486,1.633,0.066,0.600,-19.613,3.378,15.991,-4.391,-0.251,0.386,angry
0.92,3974,3662,4007,3697,1606,0,1394,0,31,1,135,0,0,0,63,3111,0.704,3.244,8.849,2.489,0.334,0.727,6.565,-12.790,19.127,-3.225,0.272,0.911,angry
0.93,4011,3621,3958,3377,1479,0,1177,0,3,3,153,0,2,4,1531,3542,0.816,3.982,9.201,3.271,0.817,0.742,3.560,-19.613,19.613,-4.293,1.251,1.585,angry
0.94,3999,3417,3823,2960,995,0,800,0,0,1,151,0,2,0,2099,3623,0.038,3.591,8.521,4.379,1.257,0.364,2.868,2.004,7.166,0.106,0.904,0.064,angry
0.95,3958,3173,3602,2489,662,0,432,0,30,1,151,1,0,1,2501,3695,-2.267,3.522,18.083,5.661,-0.092,-0.420,0.101,-6.711,18.234,0.133,0.339,0.255,angry
0.96,3464,1909,2814,1140,59,0,164,0,3,3,158,1303,279,60,2719,3793,-1.343,10.963,17.684,7.439,-1.636,-2.407,0.692,-2.600,10.204,-0.167,0.338,0.346,angry
0.97,2100,0,147,0,0,0,364,0,9,765,2761,2285,716,8,3091,3847,0.603,19.585,15.991,7.524,-1.693,-2.552,0.702,-2.634,10.044,-0.120,0.125,0.193,angry
0.98,0,0,0,0,0,0,460,0,47,851,2912,2587,815,11,3207,3865,5.918,2.679,19.613,2.265,-0.584,-3.333,0.702,-3.191,10.511,-0.070,0.088,0.156,angry
0.99,0,0,0,0,0,0,334,0,89,1115,3084,2933,1013,30,3341,3879,4.939,1.235,18.804,0.124,-0.089,-2.253,0.649,-2.741,9.905,-0.068,0.122,0.059,angry
1.00,0,0,0,0,0,0,144,0,245,1413,3176,3177,1371,54,3388,3807,4.882,-2.610,12.629,-1.333,-0.201,-1.815,0.728,-2.806,9.833,-0.102,0.144,0.056,angry
1.01,0,0,0,0,0,0,28,0,285,1418,3242,3192,1429,55,3346,3775,5.547,-2.868,9.646,-1.891,-0.500,-1.221,0.572,-2.907,9.649,-0.087,0.122,0.049,angry
1.02,0,0,0,0,0,0,20,0,456,1510,3247,3356,1566,56,3207,3615,4.752,-1.176,9.867,-2.656,-0.827,-0.413,0.484,-2.703,9.759,-0.077,0.094,0.030,angry
1.03,0,0,0,0,0,0,17,0,788,1577,3293,3413,1679,56,2939,3376,2.806,0.132,8.159,-3.329,-1.056,0.234,0.520,-2.837,9.766,-0.092,0.091,0.030,angry
1.04,0,0,0,0,0,0,49,0,1067,1701,3467,3643,1647,57,2629,3172,-0.007,2.152,8.868,-3.709,-1.322,0.485,0.426,-2.868,9.759,-0.082,0.097,0.038,angry
1.05,0,0,0,0,0,0,100,0,1261,1757,3191,3601,1647,56,2185,2725,-1.204,3.996,10.455,-4.016,-1.652,0.606,0.508,-2.828,9.692,-0.095,0.093,0.023,angry
1.06,0,0,0,0,0,0,157,0,1427,1835,3427,3669,1487,48,1886,2025,-2.629,5.104,10.549,-4.255,-1.727,0.632,0.539,-2.904,9.804,-0.094,0.109,0.021,angry
1.07,0,0,0,0,0,0,158,0,1425,1976,3432,3701,1430,55,1701,1624,-1.750,6.189,11.593,-4.166,-1.804,0.691,0.488,-2.940,9.618,-0.071,0.106,0.028,angry
1.08,0,0,0,0,0,0,187,0,1652,1973,3467,3734,1459,44,1183,847,-0.555,7.230,13.252,-4.076,-1.791,1.003,0.594,-3.110,9.883,-0.043,0.106,0.047,angry
1.09,0,0,0,0,0,0,183,0,1851,2046,3493,3821,1672,55,854,277,0.412,9.524,16.012,-4.122,-1.606,1.306,0.527,-3.005,9.641,-0.013,0.121,0.042,angry
1.10,0,0,0,0,0,0,207,0,2027,2088,3508,3859,1647,25,767,53,3.199,12.222,17.509,-4.185,-1.370,1.615,0.383,-2.995,9.728,-0.020,0.093,0.044,angry
1.11,0,0,0,0,0,0,191,0,2139,2202,3547,3931,1688,13,375,9,7.479,17.973,12.052,-3.768,-0.834,2.393,0.481,-2.849,9.493,-0.021,0.096,0.042,angry
1.12,0,0,0,0,0,0,121,0,2250,2393,3675,3995,1491,61,205,9,1.561,19.613,8.392,-2.599,-1.155,3.508,0.517,-2.698,9.943,-0.155,0.062,0.006,angry
1.13,0,0,0,0,323,0,245,0,2377,2443,3580,4031,1136,13,179,9,-2.538,19.613,2.562,-2.179,-0.639,4.174,0.594,-2.883,9.864,-0.289,0.055,-0.028,angry
1.14,0,0,0,0,805,0,399,0,2548,2515,3590,4077,703,13,147,71,-17.925,19.613,-12.335,-0.666,-0.316,2.228,0.407,-2.875,9.579,-0.453,0.017,-0.141,angry
1.15,0,0,0,0,0,0,653,715,2745,2557,3598,4095,366,12,117,0,-5.447,19.613,-16.084,3.063,0.365,0.381,0.340,-3.328,9.270,-0.561,0.028,-0.251,angry
1.16,0,0,0,0,0,0,1632,3060,2844,2575,3626,4061,197,10,121,9,-5.428,-10.393,19.613,2.779,2.604,-1.326,0.460,-3.021,9.414,-0.727,-0.042,-0.315,angry
1.17,0,0,0,0,0,0,1587,3695,3093,2530,3621,4095,41,10,133,7,-6.675,10.824,8.255,4.624,1.043,-1.445,0.895,-2.411,9.524,-1.125,-0.196,-0.458,angry
1.18,0,0,0,0,469,0,2367,3826,3231,1781,3718,4092,0,4,71,6,-1.477,1.882,10.242,2.588,1.099,-0.820,1.298,-2.133,9.491,-2.413,0.004,-0.664,angry
1.19,791,50,0,0,2061,0,3053,3822,3141,1431,3593,3977,3,7,0,2,-1.480,19.613,19.613,0.879,-0.127,0.165,1.994,-1.329,10.518,-3.041,0.618,-0.762,angry
1.20,2089,1597,1936,416,2515,0,3235,3865,2667,888,3529,3929,1,3,5,3,0.558,3.108,10.769,0.292,0.129,-0.199,1.587,-2.945,10.554,-4.115,1.488,-0.521,angry
1.21,2201,2310,2831,1520,2770,0,3342,3887,1951,21,3066,3231,0,3,3,2,0.431,4.068,9.625,0.198,0.115,-0.073,1.992,-5.116,19.613,-6.659,0.214,2.049,angry
1.22,2338,2559,3150,2047,2933,0,3450,3893,1312,2,1737,2121,1,0,3,1,0.462,3.915,9.443,0.062,0.085,-0.062,1.635,-9.934,19.613,-6.935,0.068,3.608,angry
1.23,2477,2775,3302,2390,3071,0,3504,3884,1,0,202,182,0,0,1,9,0.347,3.591,9.548,0.130,0.029,-0.046,-0.249,-6.141,17.078,-5.574,-0.059,3.372,angry
1.24,2592,2951,3427,2649,3210,0,3519,3843,0,0,197,0,0,0,0,0,0.067,3.692,9.450,0.103,0.049,-0.023,3.069,-3.713,19.613,-1.597,-0.761,2.527,angry
1.25,2713,3099,3521,2829,3263,0,3495,3773,0,0,186,0,0,0,0,0,0.381,3.637,9.268,0.110,0.046,-0.017,6.618,1.583,14.837,-0.305,-0.585,2.830,angry
1.26,2842,3183,3621,2957,3347,0,3411,3689,2,0,186,1,0,0,0,0,0.498,3.575,9.397,0.076,0.077,-0.029,6.570,3.577,11.514,1.085,-0.645,1.766,angry
1.27,2979,3239,3664,3047,3385,0,3248,3583,0,0,181,0,2,71,0,0,0.326,3.656,9.400,0.103,0.068,-0.018,7.336,3.591,8.811,1.862,-1.014,0.322,angry
1.28,3109,3282,3706,3123,3391,0,3102,3477,0,0,181,0,53,1,1,31,0.036,3.687,9.232,0.111,0.061,-0.026,6.144,2.883,9.823,2.277,-1.033,-0.355,angry
1.29,3216,3344,3755,3187,3395,0,2837,3329,0,1,171,0,0,0,12,47,0.237,3.728,9.266,0.094,0.066,-0.034,2.629,1.082,11.011,3.266,-1.390,-1.340,angry
1.30,3305,3377,3782,3259,3395,0,2640,3157,0,0,161,0,1,0,0,0,0.292,3.680,9.280,0.092,0.076,-0.024,-0.381,-0.254,10.740,3.867,-1.588,-1.786,angry
1.31,3379,3408,3819,3317,3382,0,2417,2947,0,0,156,0,0,0,0,0,0.132,3.749,9.349,0.079,0.096,-0.017,-1.384,-1.420,11.557,4.122,-1.540,-1.820,angry
1.32,3454,3442,3856,3376,3388,0,2273,2648,0,0,161,0,0,0,0,1,0.206,3.785,9.237,0.037,0.110,-0.010,-3.421,-2.480,13.156,4.468,-1.555,-1.555,angry
1.33,3493,3473,3884,3440,3379,0,2082,2199,0,0,156,0,54,0,0,0,0.103,3.603,9.313,0.063,0.123,-0.013,-2.983,-3.965,15.383,4.597,-1.707,-1.058,angry
1.34,3533,3507,3904,3509,3334,0,1710,1131,0,0,133,0,0,17,0,0,0.115,3.649,9.359,0.118,0.135,0.001,-2.215,-5.303,18.122,4.758,-1.517,-0.800,angry
1.35,3567,3568,3935,3568,3151,0,1535,0,0,0,258,0,0,0,0,0,0.026,3.627,9.471,0.160,0.144,-0.005,-1.484,-8.928,19.613,4.921,-1.578,-0.441,angry
1.36,3583,3621,3952,3629,2907,0,1203,0,0,0,138,0,0,0,0,0,0.280,3.670,9.419,0.259,0.196,0.015,1.391,-18.043,15.969,4.163,-1.965,-0.649,angry
1.37,3634,3691,3969,3675,2801,0,784,0,0,0,151,0,0,0,0,0,-0.029,3.546,9.208,0.383,0.186,0.061,3.326,-19.613,13.499,3.747,-1.496,-0.736,angry
1.38,3685,3761,4000,3728,2738,0,592,0,0,0,145,0,0,0,0,0,0.117,3.673,9.201,0.442,0.155,0.101,-0.936,-19.613,4.458,2.151,-2.014,-1.969,angry
1.39,3726,3819,4009,3758,2533,0,630,0,0,20,145,0,29,0,0,0,0.048,3.907,9.057,0.629,0.149,0.217,-0.457,-19.613,-0.953,1.338,-1.506,-2.893,angry
1.40,3856,3853,4020,3783,2288,0,641,0,0,0,145,0,0,0,0,0,0.124,3.575,9.103,0.913,0.133,0.369,-14.119,-19.613,-10.393,-1.287,0.798,-2.920,angry
1.41,3917,3857,4029,3797,1939,0,671,0,0,0,148,0,36,0,0,0,0.745,3.529,9.811,1.363,0.269,0.549,-18.306,-19.613,-17.983,-3.484,0.589,-1.752,angry
1.42,3984,3831,4035,3818,1744,0,742,0,4,11,140,0,23,0,349,1272,1.113,2.272,9.859,2.055,0.486,0.695,-17.430,12.474,19.613,-4.941,-0.439,0.523,angry
1.43,4027,3795,4006,3749,1463,0,774,0,1,75,143,0,0,0,1189,3112,2.286,4.310,9.843,3.043,0.975,0.814,2.737,-13.549,18.498,-3.332,0.781,1.523,angry
1.44,4037,3583,3894,3367,1033,0,562,0,0,0,140,0,0,0,1762,3555,0.479,2.658,6.838,4.281,1.711,0.628,0.929,-6.397,14.236,-3.039,0.152,0.420,angry
1.45,3974,3255,3555,2839,239,0,108,0,0,0,156,0,0,0,2616,3803,-0.292,4.302,19.472,6.342,0.517,-0.611,0.383,-1.678,11.751,-0.500,0.700,0.471,angry
1.46,3295,1780,2667,1477,0,0,0,0,4,3,765,1191,475,60,2967,3771,-2.787,11.990,19.613,8.066,-1.498,-3.279,0.745,-2.251,10.372,0.031,0.115,0.142,angry
1.47,1987,0,128,0,0,0,0,0,3,23,2572,1507,622,3,3133,3811,1.702,19.613,16.091,7.433,-1.185,-3.588,1.305,-2.933,10.721,-0.164,0.090,0.165,angry
1.48,0,0,0,0,0,0,0,0,7,709,2971,2342,1319,8,3385,3851,2.497,10.719,17.842,3.065,-0.349,-3.467,1.156,-3.026,9.972,-0.112,0.064,0.169,angry
1.49,0,0,0,0,0,0,0,0,47,885,3027,2553,1465,9,3513,3835,5.710,0.510,19.613,0.570,-0.644,-2.642,0.962,-2.593,9.510,-0.119,0.020,0.140,angry
1.50,0,0,0,0,0,0,0,0,9,993,3150,2787,1721,57,3568,3827,8.631,3.675,14.480,-0.472,-0.520,-2.395,0.584,-2.856,10.250,-0.103,0.039,0.111,angry
1.51,0,0,0,0,0,0,0,0,50,1336,3247,2995,2333,21,3624,3762,7.269,-0.242,9.017,-1.416,-0.382,-1.523,0.895,-2.765,10.032,-0.084,0.103,0.082,angry
1.52,0,0,0,0,0,0,0,0,51,1435,3258,3020,2479,21,3573,3672,6.325,-0.687,7.415,-1.874,-0.695,-0.450,0.800,-2.813,9.785,-0.068,0.085,0.067,angry
1.53,0,0,0,0,0,0,0,0,117,1565,3465,3191,2642,35,3509,3401,4.915,-0.306,8.219,-2.376,-1.111,0.500,0.831,-2.756,9.716,-0.040,0.064,0.057,angry
1.54,0,0,0,0,0,0,0,0,121,1614,3311,3273,2681,37,3417,3019,2.497,0.785,8.076,-3.017,-1.341,1.118,0.742,-2.610,9.833,-0.040,0.041,0.035,angry
1.55,0,0,0,0,0,0,0,0,136,1611,3304,3336,2697,39,3351,2927,0.165,2.847,9.797,-3.631,-1.547,1.316,0.745,-2.614,9.720,-0.035,0.050,0.040,angry
1.56,0,0,0,0,0,0,0,0,155,1643,3324,3359,2699,43,3212,2799,-1.836,3.970,9.412,-4.089,-1.762,1.294,0.697,-2.626,9.754,-0.047,0.075,0.054,angry
1.57,0,0,0,0,0,0,0,0,355,1757,3339,3367,2701,178,2906,2695,-2.983,5.224,10.077,-4.199,-1.987,1.179,0.745,-2.684,9.596,-0.057,0.066,0.062,angry
1.58,0,0,0,0,0,0,0,0,307,1853,3355,3368,2709,53,2871,2621,-1.554,6.541,11.380,-4.273,-2.023,1.133,0.716,-2.660,9.766,-0.065,0.070,0.067,angry
1.59,0,0,0,0,0,0,0,0,419,1943,3391,3382,2800,55,2853,2397,-0.783,7.377,13.209,-4.211,-1.942,1.340,0.737,-2.646,9.658,-0.068,0.091,0.057,angry
1.60,0,0,0,0,0,0,0,0,499,2011,3416,3497,2910,126,2847,2109,0.057,10.202,16.968,-4.245,-1.992,1.557,0.711,-2.808,9.618,-0.066,0.114,0.051,angry
1.61,0,0,0,0,0,0,0,0,761,2125,3437,3515,2997,55,2835,2159,3.338,13.846,18.024,-4.443,-1.605,1.950,0.575,-2.806,9.895,-0.066,0.109,0.050,angry
1.62,0,0,0,0,0,0,0,0,1311,2277,3488,3641,3125,60,2777,1754,1.369,18.311,13.185,-3.987,-0.984,2.755,0.570,-2.744,9.670,-0.094,0.140,0.038,angry
1.63,0,0,0,0,0,0,19,0,1651,2405,3531,3726,3145,54,2591,1071,1.087,19.613,5.155,-2.973,-0.645,3.211,0.776,-2.198,9.752,-0.196,0.157,0.034,angry
1.64,0,0,0,0,0,0,105,0,1631,2387,3539,3759,3037,77,2327,599,-9.843,19.613,0.225,-1.828,0.098,3.086,0.745,-3.108,9.644,-0.106,0.147,0.045,angry
1.65,0,0,0,0,35,0,301,0,1993,2589,3560,3850,2927,17,1081,0,-14.590,19.613,-18.246,0.616,-0.384,1.629,0.977,-3.587,9.445,-0.126,0.126,0.074,angry
1.66,0,0,0,0,0,0,738,2163,2471,2792,3585,3943,2443,8,249,5,-3.438,13.010,-12.740,2.841,2.646,-0.222,0.539,-1.743,9.524,-0.426,0.097,-0.071,angry
1.67,0,0,0,0,0,0,1649,3551,2572,2873,3588,3975,1835,8,179,4,-10.123,2.782,16.170,5.462,-0.920,0.423,0.879,-3.108,9.402,-0.667,0.121,-0.183,angry
1.68,0,0,0,0,38,0,1901,3770,2847,2901,3595,3999,495,9,221,5,2.073,18.416,19.613,2.931,1.006,-0.950,0.994,-1.465,9.962,-1.156,-0.053,-0.345,angry
1.69,0,0,0,0,1513,0,2555,3795,2921,2427,3575,3964,99,7,111,0,-1.786,1.599,6.505,2.229,0.492,-0.502,0.565,-0.656,9.555,-2.353,-0.540,-0.628,angry
1.70,1285,382,277,0,2185,0,2934,3769,2847,1747,3575,3941,0,0,25,0,-1.477,1.255,14.056,1.018,0.552,-0.595,0.371,-2.088,9.613,-3.208,0.149,-0.736,angry
1.71,2009,1522,2295,499,2559,0,3161,3809,2459,969,3498,3739,4,23,1,0,0.991,5.763,10.195,0.245,0.223,-0.161,0.084,-1.858,13.422,-4.937,0.689,-0.336,angry
1.72,2265,2214,2954,1701,2834,0,3287,3845,2111,330,3529,3482,0,0,8,0,0.117,4.539,10.077,0.260,0.106,-0.095,2.334,-2.468,15.955,-6.652,-0.549,0.698,angry
1.73,2466,2608,3251,2291,2960,0,3394,3851,918,0,212,969,0,0,6,0,0.283,3.589,9.421,0.079,0.075,-0.041,-1.453,-10.915,19.613,-7.922,-0.798,2.890,angry
1.74,2589,2832,3397,2639,3134,0,3463,3841,0,0,191,0,0,0,13,0,0.060,3.498,9.048,0.093,0.006,-0.011,2.974,-5.385,16.961,-4.934,-0.317,2.833,angry
1.75,2711,3010,3501,2829,3241,0,3490,3804,0,0,184,0,0,0,13,0,0.302,3.680,9.412,0.089,0.059,-0.027,1.384,0.584,19.613,-0.939,-0.733,2.894,angry
1.76,2830,3165,3600,2975,3328,0,3486,3747,0,0,174,0,7,0,0,0,0.500,3.773,9.519,0.092,0.057,-0.023,5.282,0.388,14.820,0.101,-0.495,3.440,angry
1.77,2975,3248,3660,3069,3423,0,3439,3687,0,0,76,0,0,0,0,0,0.373,3.649,9.493,0.084,0.082,-0.022,8.183,2.210,10.262,1.549,-0.501,2.544,angry
1.78,3090,3312,3708,3163,3472,0,3344,3600,0,0,156,0,0,0,0,0,0.156,3.682,9.306,0.091,0.059,-0.019,10.195,1.329,8.715,2.413,-0.377,0.631,angry
1.79,3190,3353,3737,3209,3488,0,3160,3465,0,0,156,0,0,0,0,0,0.306,3.644,9.285,0.114,0.048,-0.014,8.679,1.109,9.052,2.818,-0.431,-0.341,angry
1.80,3262,3410,3770,3249,3474,0,2873,3259,0,0,151,0,0,0,40,0,0.323,3.721,9.318,0.108,0.059,-0.024,4.439,-0.728,9.740,3.466,-1.046,-1.639,angry
1.81,3326,3440,3799,3310,3449,0,2591,3008,0,0,191,0,0,0,0,0,0.347,3.814,9.455,0.092,0.107,-0.025,1.721,-2.851,10.587,4.156,-1.159,-2.149,angry
1.82,3386,3472,3841,3373,3405,0,2347,2675,0,0,145,0,5,0,0,0,0.283,3.757,9.290,0.075,0.095,-0.019,-0.098,-3.208,10.836,4.378,-1.057,-2.145,angry
1.83,3422,3497,3850,3411,3372,0,2093,2302,0,0,0,0,0,0,0,0,0.127,3.733,9.246,0.062,0.110,-0.019,-2.650,-3.797,11.746,4.529,-1.289,-1.723,angry
1.84,3472,3506,3877,3478,3346,0,1818,1680,0,0,145,0,0,0,0,0,0.079,3.709,9.290,0.050,0.108,-0.019,-2.581,-4.367,14.818,4.522,-1.419,-1.210,angry
1.85,3497,3510,3901,3525,3245,0,1503,814,0,0,143,0,0,0,0,0,0.110,3.677,9.299,0.072,0.122,-0.016,-2.497,-5.416,17.020,4.567,-1.485,-0.958,angry
1.86,3520,3536,3931,3583,3089,0,1392,0,0,0,140,0,0,0,0,0,0.129,3.675,9.155,0.106,0.143,-0.021,-0.804,-9.105,19.343,4.750,-1.459,-0.541,angry
1.87,3568,3567,3950,3641,3001,0,1023,0,0,0,145,0,0,0,0,0,0.036,3.618,9.436,0.199,0.167,0.008,2.686,-15.754,17.020,4.373,-1.347,-0.651,angry
1.88,3631,3642,3972,3697,2946,0,752,0,0,0,212,17,0,0,0,0,0.177,3.630,9.457,0.322,0.205,0.054,3.852,-19.388,12.646,3.753,-1.340,-0.871,angry
1.89,3671,3724,3987,3749,2826,0,455,0,0,2,0,0,0,0,0,0,0.110,3.768,9.543,0.455,0.170,0.110,-2.986,-19.613,8.887,2.291,-1.252,-1.991,angry
1.90,3733,3750,4001,3787,2647,0,362,0,0,0,143,11,0,0,0,0,0.053,3.687,8.744,0.602,0.197,0.188,0.685,-19.613,2.425,1.262,-1.574,-3.215,angry
1.91,3790,3786,4016,3829,2515,0,363,0,0,0,0,0,0,0,0,0,0.031,3.673,9.258,0.721,0.141,0.272,-2.823,-19.613,-7.503,0.356,0.322,-3.232,angry
1.92,3856,3794,4026,3818,2315,0,386,0,0,0,145,0,0,0,0,0,0.285,3.610,9.134,0.894,0.113,0.369,-14.006,-19.613,-11.478,-1.294,0.864,-2.565,angry
1.93,3934,3810,4034,3835,1941,0,340,0,0,0,140,0,0,0,0,615,0.589,3.079,9.436,1.331,0.125,0.584,4.956,-1.539,19.613,-1.530,3.935,1.500,angry
1.94,3958,3802,4048,3854,1679,0,352,0,71,0,76,73,3,0,0,2072,1.290,4.003,10.441,1.742,0.254,0.746,-19.613,2.897,19.613,-4.950,-0.655,0.563,angry
1.95,4023,3763,4027,3827,1232,0,276,0,0,0,135,18,0,0,79,2479,1.288,5.085,9.591,2.560,0.840,0.791,-0.244,-4.116,8.083,-3.911,0.795,1.102,angry
1.96,4046,3624,3952,3676,878,0,198,0,0,0,135,1,0,0,1507,3465,2.911,6.993,10.815,3.163,1.276,0.725,-1.669,-2.430,10.570,-2.313,0.437,0.079,angry
1.97,4027,3344,3773,3254,337,0,117,0,0,0,140,0,0,0,2297,3603,0.069,3.263,7.951,4.611,1.467,0.071,0.596,4.472,5.930,-0.331,1.533,0.534,angry
1.98,3895,2977,3395,2540,0,0,0,0,0,0,145,197,0,0,2553,3640,0.606,5.411,17.564,6.439,-0.286,-1.172,0.045,-3.560,9.139,0.139,0.601,0.204,angry
1.99,2914,1007,2442,1040,0,0,0,0,3,2,1855,1695,383,2,2804,3721,-5.732,8.294,18.043,8.066,-2.494,-3.504,1.377,-3.630,10.661,-0.207,0.164,0.279,angry
2.00,1389,0,0,0,0,0,0,0,7,676,2966,2375,879,6,3221,3768,1.259,12.603,12.835,7.193,-1.661,-3.515,1.027,-2.502,9.579,-0.175,-0.071,0.123,angry
2.01,0,0,0,0,0,0,0,0,37,779,3037,2659,1151,17,3323,3775,3.400,14.159,19.613,2.330,-0.314,-3.253,1.180,-2.540,10.135,-0.173,-0.040,0.126,angry
2.02,0,0,0,0,0,0,0,0,84,1445,3227,3092,2078,27,3497,3752,7.757,2.516,13.877,-0.471,-0.169,-1.794,0.687,-2.672,10.015,-0.144,-0.018,0.088,angry
2.03,0,0,0,0,0,0,0,0,227,1698,3319,3251,2653,47,3545,3595,5.918,-1.537,8.485,-1.327,0.181,-0.975,0.888,-2.746,9.991,-0.122,0.067,0.059,angry
2.04,0,0,0,0,0,0,0,0,251,1701,3327,3363,2773,45,3384,3405,4.719,-0.632,8.760,-1.823,-0.428,-0.124,0.809,-2.614,9.888,-0.144,0.051,0.063,angry
2.05,0,0,0,0,0,0,0,0,358,1821,3368,3464,2961,60,3406,2937,4.621,0.309,8.806,-2.557,-0.611,0.612,0.484,-2.780,9.833,-0.105,0.017,0.042,angry
2.06,0,0,0,0,0,0,0,0,580,2009,3386,3516,3037,53,3217,2623,2.310,1.599,8.918,-3.347,-0.671,1.025,0.644,-2.713,9.759,-0.103,0.030,0.035,angry
2.07,0,0,0,0,0,0,0,0,555,2041,3396,3525,3078,53,3111,2443,0.201,3.074,8.681,-3.960,-0.907,1.121,0.711,-2.753,9.783,-0.126,0.044,0.026,angry
2.08,0,0,0,0,0,0,0,0,715,2150,3406,3419,3112,39,2621,2009,-0.589,4.355,8.432,-4.268,-1.226,1.104,0.649,-2.758,9.565,-0.120,0.038,0.018,angry
2.09,0,0,0,0,0,0,0,0,917,2245,3437,3637,3123,51,2567,1467,-0.227,6.076,9.301,-4.308,-1.445,1.181,0.687,-2.600,9.792,-0.086,0.076,0.021,angry
2.10,0,0,0,0,0,0,0,0,965,2279,3457,3660,3135,54,2514,1093,1.257,7.681,11.679,-4.402,-1.431,1.504,0.642,-2.737,9.512,-0.102,0.058,0.035,angry
2.11,0,0,0,0,0,0,0,0,1241,2387,3467,3695,3103,53,2285,693,0.122,8.432,13.044,-4.429,-1.297,1.810,0.570,-2.842,9.565,-0.067,0.094,0.041,angry
2.12,0,0,0,0,0,0,0,0,1239,2425,3498,3709,2997,53,2109,311,-0.783,9.756,14.650,-4.256,-1.367,1.801,0.567,-2.739,9.907,-0.062,0.126,0.038,angry
2.13,0,0,0,0,0,0,0,0,1401,2405,3508,3751,2987,29,2088,94,1.061,12.028,16.235,-4.115,-1.184,1.639,0.505,-2.909,9.701,-0.049,0.120,0.042,angry
2.14,0,0,0,0,0,0,0,0,1553,2523,3529,3790,3015,19,1609,91,2.964,15.510,14.803,-3.766,-0.454,1.464,0.438,-2.914,9.560,-0.035,0.102,0.055,angry
2.15,0,0,0,0,0,0,0,0,1747,2599,3552,3853,2987,6,1020,5,-1.358,19.613,15.160,-3.353,-1.301,1.823,0.402,-2.550,9.330,-0.020,0.072,0.086,angry
2.16,0,0,0,0,0,0,0,0,1901,2653,3534,3887,2961,7,727,4,-8.183,19.613,3.457,-2.666,-1.347,2.001,0.460,-2.868,9.340,0.051,0.055,0.097,angry
2.17,0,0,0,0,0,0,0,0,2103,2731,3567,3911,2885,7,475,4,-11.751,19.613,-2.873,-1.887,-1.816,1.708,0.484,-2.686,9.651,-0.061,0.060,0.052,angry
2.18,0,0,0,0,133,0,113,0,2365,2915,3590,3981,2471,6,99,3,-12.306,19.613,-15.294,0.646,-0.700,-0.112,0.690,-2.854,9.653,-0.392,0.131,-0.092,angry
2.19,0,0,0,0,0,0,524,1877,2643,3023,3601,4027,1553,7,215,0,-3.179,14.234,-12.119,2.548,2.708,-1.195,0.496,-2.763,9.744,-0.501,0.125,-0.182,angry
2.20,0,0,0,0,0,0,1477,3441,2807,3093,3621,4031,1112,7,96,1,0.086,-1.547,17.420,4.889,-0.036,0.164,0.479,-2.365,9.246,-0.686,0.034,-0.217,angry
2.21,0,0,0,0,0,0,1675,3696,2973,3101,3624,3999,338,2,278,3,-5.107,14.516,19.613,3.531,1.091,-1.253,1.307,-2.167,9.419,-1.380,-0.331,-0.349,angry
2.22,0,0,0,0,1484,0,2673,3781,2963,2719,3631,3943,246,0,119,9,-1.209,3.007,7.585,2.585,0.392,-0.506,2.540,-1.362,11.988,-3.078,0.072,-0.652,angry
2.23,1425,661,371,0,2385,0,3090,3758,2647,2199,3531,3917,137,6,56,4,-6.419,-3.050,7.415,0.778,1.196,-0.541,2.267,-1.798,11.437,-4.206,0.397,-0.698,angry
2.24,2089,1956,2605,796,2726,0,3264,3799,2039,862,3488,3550,0,0,0,0,-0.548,5.406,10.463,0.188,0.316,-0.139,2.081,-2.006,15.392,-6.335,-0.026,0.078,angry
2.25,2320,2380,3114,2010,2915,0,3376,3829,1303,93,2203,1311,0,0,0,0,-0.419,3.158,9.139,0.175,0.191,-0.046,-2.442,-12.457,19.613,-8.731,-1.962,1.365,angry
2.26,2485,2690,3338,2516,3067,0,3462,3841,584,0,197,453,11,27,0,0,0.357,3.843,9.586,0.091,0.061,-0.030,-0.869,-15.632,18.680,-8.731,-1.469,2.713,angry
2.27,2609,2922,3472,2803,3251,0,3523,3821,0,0,186,0,0,0,0,0,0.199,3.673,9.160,0.113,-0.039,-0.001,5.274,-3.496,19.613,-3.196,0.100,3.305,angry
2.28,2731,3083,3567,2939,3354,0,3536,3758,0,0,158,0,0,0,0,0,0.431,3.742,9.385,0.083,0.038,-0.010,1.949,4.367,18.478,0.354,-0.796,3.064,angry
2.29,2857,3218,3621,3018,3447,0,3512,3664,0,0,156,0,0,0,0,21,0.558,3.651,9.404,0.108,0.049,-0.019,4.932,1.676,9.917,1.175,-0.062,3.222,angry
2.30,2982,3307,3703,3104,3519,0,3434,3567,0,0,151,0,0,0,0,0,0.294,3.795,9.431,0.087,0.042,-0.026,6.800,1.302,8.265,1.818,-0.171,2.309,angry
2.31,3099,3397,3738,3155,3565,0,3281,3437,0,0,122,9,5,0,25,0,0.323,3.716,9.335,0.139,0.016,-0.009,9.012,0.611,7.530,2.469,0.214,0.693,angry
2.32,3201,3473,3785,3200,3566,0,3014,3146,0,0,145,0,0,0,0,0,0.271,3.771,9.364,0.120,0.017,-0.027,8.052,0.261,7.824,2.868,0.126,-0.147,angry
2.33,3262,3532,3809,3239,3574,0,2782,2737,0,0,143,0,1,0,0,0,0.388,3.780,9.263,0.086,0.029,-0.032,6.000,-1.353,8.610,3.487,-0.546,-1.489,angry
2.34,3300,3583,3824,3273,3563,0,2619,2350,3,0,145,0,0,0,0,0,0.417,3.740,9.251,0.085,0.063,-0.029,3.876,-3.615,9.527,4.109,-0.668,-2.184,angry
2.35,3346,3634,3848,3320,3538,0,2451,2163,0,0,138,0,0,0,0,21,0.227,3.749,9.155,0.081,0.077,-0.031,2.483,-4.374,9.776,4.271,-0.615,-2.300,angry
2.36,3387,3663,3863,3372,3519,0,2274,1906,0,0,235,0,0,13,0,0,0.237,3.757,9.275,0.064,0.083,-0.034,0.134,-5.138,10.724,4.368,-0.920,-2.132,angry
2.37,3425,3699,3893,3418,3440,0,1961,1361,0,0,140,0,0,0,0,0,0.323,3.721,9.290,0.066,0.099,-0.023,-0.740,-5.662,14.334,4.364,-1.236,-1.686,angry
2.38,3457,3733,3917,3472,3317,0,1629,469,0,0,110,0,0,0,0,61,0.172,3.745,9.203,0.078,0.112,-0.030,-1.281,-6.737,17.430,4.514,-1.463,-1.396,angry
2.39,3504,3771,3931,3517,3247,0,1424,0,0,0,140,0,0,0,0,0,0.182,3.733,9.270,0.102,0.106,-0.017,-0.702,-9.685,18.857,4.834,-1.779,-0.814,angry
2.40,3549,3809,3937,3562,3171,0,1177,0,0,0,140,0,0,0,0,0,0.314,3.718,9.261,0.140,0.137,-0.001,2.476,-16.530,15.780,4.313,-1.603,-0.529,angry
2.41,3614,3831,3968,3630,3131,0,873,0,0,0,138,0,0,0,0,0,0.206,3.790,9.397,0.203,0.192,0.028,3.953,-19.613,13.805,3.748,-1.486,-0.592,angry
2.42,3651,3847,3975,3666,3025,0,667,0,0,0,135,0,0,0,0,0,0.199,3.677,9.409,0.249,0.187,0.044,2.638,-19.613,10.934,3.195,-1.598,-0.830,angry
2.43,3686,3883,3990,3691,2965,0,464,0,0,0,130,0,0,0,0,0,0.127,3.639,9.110,0.326,0.177,0.063,0.285,-19.613,5.938,2.489,-2.125,-1.566,angry
2.44,3725,3902,4013,3712,2839,0,453,0,0,0,133,0,0,0,0,0,0.211,3.247,9.278,0.511,0.182,0.173,-0.512,-19.613,0.548,1.652,-1.923,-2.484,angry
2.45,3767,3909,4022,3737,2733,0,382,0,0,0,140,0,0,0,0,0,0.309,3.658,9.321,0.570,0.166,0.213,-1.137,-19.613,-3.345,0.728,-0.379,-2.862,angry
2.46,3856,3943,4026,3763,2511,0,375,0,0,0,140,0,0,0,0,0,0.357,3.610,9.395,0.887,0.157,0.347,-1.137,-19.613,-3.345,0.728,-0.379,-2.862,angry
2.47,3927,3920,4035,3781,2119,0,371,0,0,0,122,0,0,0,0,467,0.373,3.405,9.232,1.400,0.103,0.524,-1.405,8.540,19.613,-1.011,3.841,1.369,angry
2.48,3968,3838,4052,3775,1955,0,347,0,0,0,130,35,0,0,0,1655,-0.010,2.998,9.038,1.714,0.067,0.565,-14.224,-1.343,10.520,-5.083,-1.964,-0.649,angry
2.49,3999,3653,4027,3736,1488,0,370,0,0,0,120,0,0,0,91,2151,0.632,3.668,8.911,2.784,0.526,0.657,-6.701,-1.970,6.898,-4.235,0.756,1.788,angry
2.50,4001,3539,3962,3443,1338,0,203,0,0,0,130,0,0,0,1806,3487,0.721,3.867,8.734,3.547,0.872,0.595,-11.334,-19.613,19.613,-2.264,3.878,2.277,angry
2.51,3895,3306,3803,2865,950,0,29,0,0,0,140,0,0,59,2535,3695,0.946,4.468,14.418,4.884,0.132,0.137,3.225,-3.757,12.488,-0.353,0.500,0.337,angry
2.52,3305,2447,3239,1978,59,0,0,0,0,0,266,781,379,0,2655,3579,0.134,6.249,19.613,7.204,-1.096,-1.240,1.264,-4.192,11.327,-0.174,0.475,0.334,angry
2.53,2103,47,830,110,0,0,0,0,0,713,2695,2019,783,5,2957,3741,-5.808,9.618,15.914,8.731,-1.286,-2.821,0.529,-2.813,10.166,-0.266,0.186,0.298,angry
2.54,0,0,0,0,0,0,0,0,29,1094,3037,2743,1389,13,3179,3765,1.250,6.510,19.613,3.808,-1.772,-3.046,1.590,-2.552,9.615,-0.234,0.067,0.199,angry
2.55,0,0,0,0,0,0,0,0,46,1343,3142,3027,1877,20,3322,3770,4.671,-0.263,19.613,0.257,-0.729,-2.673,0.352,-3.314,10.436,-0.100,0.087,0.144,angry
2.56,0,0,0,0,0,0,0,0,206,1605,3227,3220,2471,16,3439,3735,3.285,0.472,14.693,-0.962,-0.559,-2.515,0.539,-2.591,9.716,-0.103,0.087,0.076,angry
2.57,0,0,0,0,0,0,0,0,311,1677,3322,3419,2664,53,3403,3597,5.442,-0.345,9.026,-2.143,-1.002,-1.747,0.737,-2.758,9.548,-0.113,0.094,0.059,angry
2.58,0,0,0,0,0,0,0,0,489,1674,3339,3465,2687,52,3310,3482,5.760,-1.061,6.404,-2.634,-0.857,-0.837,0.661,-2.753,9.785,-0.106,0.099,0.053,angry
2.59,0,0,0,0,0,0,0,0,575,1890,3375,3543,2764,53,3127,3109,3.907,0.785,7.961,-3.128,-0.888,-0.058,0.534,-2.861,9.797,-0.098,0.092,0.040,angry
2.60,0,0,0,0,0,0,0,0,1065,1913,3391,3605,2751,53,2782,2521,2.363,2.042,7.654,-3.732,-1.240,0.436,0.637,-2.849,9.567,-0.094,0.072,0.028,angry
2.61,0,0,0,0,0,0,0,0,920,1989,3396,3631,2707,0,2569,2214,1.137,3.112,7.336,-3.960,-1.518,0.695,0.505,-2.789,9.730,-0.111,0.062,0.024,angry
2.62,0,0,0,0,0,0,0,0,1164,2013,3396,3639,2695,53,2318,1907,0.658,3.845,8.033,-3.957,-1.648,0.836,0.508,-2.820,9.766,-0.110,0.059,0.032,angry
2.63,0,0,0,0,0,0,0,0,1363,2099,3416,3673,2687,51,2073,1529,0.376,6.098,10.637,-4.110,-1.725,1.076,0.606,-2.928,9.821,-0.070,0.087,0.026,angry
2.64,0,0,0,0,0,0,0,0,1493,2166,3432,3699,2651,53,1745,1017,0.330,6.419,11.090,-4.160,-1.616,1.296,0.510,-2.933,9.780,-0.039,0.088,0.035,angry
2.65,0,0,0,0,0,0,0,0,1595,2133,3457,3769,2615,51,1490,851,-1.032,7.614,14.004,-3.875,-1.811,1.325,0.486,-2.854,9.673,-0.035,0.098,0.043,angry
2.66,0,0,0,0,0,0,0,0,1687,2200,3473,3759,2655,53,1595,477,-1.120,10.130,17.540,-3.892,-2.083,1.172,0.460,-2.832,9.706,-0.041,0.105,0.044,angry
2.67,0,0,0,0,0,0,0,0,1957,2279,3493,3689,2811,37,1337,136,-1.506,12.160,13.357,-3.514,-1.952,0.870,0.520,-2.849,9.740,-0.027,0.090,0.040,angry
2.68,0,0,0,0,0,0,0,0,2077,2333,3457,3837,2772,10,972,51,-5.095,17.085,10.458,-2.248,-2.749,0.623,0.333,-2.782,9.852,0.004,0.066,0.052,angry
2.69,0,0,0,0,0,0,0,0,2155,2413,3516,3948,2763,10,555,18,-7.465,19.613,9.285,-1.684,-2.908,-0.137,0.457,-2.739,9.644,-0.062,0.074,0.057,angry
2.70,0,0,0,0,0,0,27,0,2394,2534,3542,3959,2549,13,421,2,-12.981,19.613,2.265,-1.807,-2.469,-0.563,0.462,-2.713,9.421,-0.214,0.027,0.012,angry
2.71,0,0,0,0,0,0,155,0,2520,2591,3544,3991,2185,8,269,3,-5.775,19.613,-13.731,0.241,0.477,-1.184,0.407,-2.840,9.807,-0.264,0.073,-0.023,angry
2.72,0,0,0,0,0,0,656,1268,2829,2619,3554,4047,1275,6,164,3,-1.058,12.280,-1.800,1.371,3.711,-1.161,0.290,-2.662,9.682,-0.500,0.092,-0.165,angry
2.73,0,0,0,0,336,0,1609,3363,3099,2588,3560,4021,570,5,83,2,-4.137,-9.165,11.899,2.418,1.294,-0.002,0.608,-2.732,9.541,-0.734,-0.052,-0.313,angry
2.74,0,0,0,0,582,0,1957,3691,3239,2523,3557,4041,379,5,78,3,-5.282,15.100,19.613,2.836,0.886,-1.506,0.582,-2.066,9.656,-1.076,-0.248,-0.378,angry
2.75,203,0,0,0,1919,0,2934,3807,3447,1849,3519,3929,0,0,0,0,15.737,17.403,14.042,0.512,1.962,-0.756,2.643,-1.305,10.798,-2.339,-0.442,-0.499,angry
2.76,1535,415,0,0,2343,0,3211,3839,3387,1191,3427,3695,0,0,0,0,-1.025,7.707,16.247,1.021,1.097,-0.699,0.651,-0.532,11.928,-4.460,0.512,-0.472,angry
2.77,2171,1791,1400,0,2708,0,3344,3862,3195,798,3342,3348,0,2,2,0,-3.685,1.417,10.807,0.340,0.816,-0.504,0.067,1.688,15.601,-5.866,-0.649,0.662,angry
2.78,2426,2355,2800,1008,2954,0,3440,3888,2427,0,197,709,0,0,0,0,-1.006,6.481,11.461,0.289,0.249,-0.021,-1.085,-14.090,19.613,-8.242,-0.886,1.620,angry
2.79,2559,2702,3225,2217,3087,0,3483,3868,0,0,84,0,0,0,61,0,0.397,4.254,9.735,0.206,0.192,0.003,1.894,-8.164,19.613,-3.467,1.163,2.192,angry
2.80,2723,2890,3408,2631,3216,0,3513,3808,0,0,174,0,0,0,0,36,0.457,3.783,9.347,0.099,0.159,0.024,1.630,0.658,10.803,-2.383,1.775,2.999,angry
2.81,2864,3024,3522,2827,3242,0,3500,3706,0,0,156,0,0,0,0,0,0.417,3.634,9.306,0.115,0.137,0.005,4.202,-0.034,11.167,0.092,1.055,1.638,angry
2.82,2997,3108,3612,2951,3303,0,3456,3602,0,0,151,0,0,0,0,0,0.464,3.819,9.493,0.107,0.133,0.000,7.348,1.197,9.431,1.506,0.695,0.614,angry
2.83,3061,3155,3641,3045,3301,0,3392,3514,0,0,140,0,4,0,0,0,0.476,3.790,9.333,0.088,0.139,-0.004,8.712,1.719,6.397,1.954,0.966,-0.182,angry
2.84,3152,3238,3703,3159,3325,0,3248,3322,0,0,151,0,1,16,61,0,0.314,3.606,9.273,0.095,0.147,-0.003,8.727,1.288,4.956,2.152,1.277,-1.067,angry
2.85,3248,3305,3751,3248,3300,0,3042,3043,0,0,145,0,0,0,0,0,0.330,3.850,9.203,0.092,0.126,-0.008,6.984,-1.355,7.209,2.698,1.439,-2.549,angry
2.86,3339,3357,3791,3327,3275,0,2841,2496,0,0,145,0,0,1,0,0,0.292,3.742,9.357,0.092,0.122,-0.015,5.389,-3.045,6.512,3.332,1.472,-3.567,angry
2.87,3423,3436,3826,3412,3295,0,2640,1611,0,0,140,0,0,0,0,0,0.285,3.725,9.347,0.092,0.103,-0.023,4.820,-3.649,6.713,3.426,1.341,-3.987,angry
2.88,3503,3491,3850,3483,3333,0,2337,970,0,0,76,0,0,0,0,0,0.290,3.773,9.380,0.084,0.101,-0.029,3.618,-5.128,8.471,3.570,1.757,-4.402,angry
2.89,3525,3519,3863,3517,3346,0,2161,435,0,0,140,0,0,0,0,0,0.261,3.773,9.306,0.086,0.079,-0.026,2.741,-5.775,9.752,3.639,1.952,-4.428,angry
2.90,3567,3564,3886,3561,3357,0,1797,0,0,0,135,0,0,0,0,0,0.273,3.776,9.292,0.106,0.059,-0.029,9.278,-8.116,9.196,3.426,2.168,-4.859,angry
2.91,3580,3582,3894,3583,3352,0,1630,0,0,0,143,0,0,0,0,0,0.275,3.871,9.206,0.135,0.051,-0.024,15.083,-11.485,9.852,3.299,3.099,-5.654,angry
2.92,3621,3629,3911,3614,3357,0,1488,0,11,0,140,0,0,0,19,0,0.184,3.895,9.256,0.101,0.051,-0.040,18.038,-16.542,10.087,3.094,4.061,-6.904,angry
2.93,3639,3664,3920,3638,3376,0,1355,0,0,0,140,0,0,1,0,0,0.093,3.850,9.249,0.101,0.025,-0.054,17.375,-19.613,2.820,2.018,4.222,-8.731,angry
2.94,3639,3705,3932,3617,3395,0,1285,0,0,0,140,0,0,0,0,0,0.292,3.857,9.318,0.104,0.009,-0.054,9.749,-19.613,4.618,0.922,3.136,-8.522,angry
2.95,3602,3714,3927,3609,3396,0,1234,0,0,0,148,0,0,0,0,0,0.278,3.917,9.347,0.118,0.003,-0.066,17.789,-19.613,1.774,-0.080,1.038,-8.253,angry
2.96,3667,3741,3941,3534,3269,0,1015,0,0,0,345,0,0,0,0,0,0.402,3.821,9.318,0.131,0.008,-0.068,8.851,-19.613,3.938,-0.784,0.203,-7.613,angry
2.97,3658,3744,3947,3432,3063,0,905,0,0,0,145,407,0,0,0,0,0.577,4.008,9.402,0.204,-0.034,-0.114,16.096,-19.613,8.028,-0.734,-0.136,-2.724,angry
2.98,3648,3728,3927,3339,2896,0,662,0,0,0,2812,657,435,0,547,0,0.196,3.893,9.455,0.292,-0.031,-0.127,-1.779,6.383,10.748,0.378,-0.125,0.037,angry
2.99,3583,3648,3898,3101,2702,0,466,0,41,703,3068,1213,538,1,759,19,-0.582,4.324,9.100,0.281,-0.206,-0.322,1.501,-5.885,11.159,-0.587,-0.434,0.715,angry
3.00,3425,3408,3789,2893,2559,0,470,0,237,1828,3301,2397,1244,6,543,3,-1.283,3.299,9.974,-0.139,-1.087,-2.132,2.830,-0.225,10.578,0.043,-0.276,0.578,angry
3.01,2947,2803,3554,2222,2411,0,560,0,880,2022,3406,2834,2397,6,1707,9,-4.568,2.634,10.211,-0.229,-1.846,-4.538,-0.177,-2.468,9.708,0.261,0.045,0.111,angry
3.02,1893,2397,3138,1155,2043,0,677,0,1197,2155,3396,2839,2813,7,2531,3,-5.461,5.605,9.438,-0.254,-2.515,-6.596,0.481,-2.818,9.697,0.328,-0.079,0.027,angry
3.03,1006,833,1050,29,1474,0,533,0,1083,2342,3411,2632,3317,51,3181,607,-1.798,9.414,8.653,-0.803,-2.896,-7.824,1.130,-2.593,9.900,0.148,-0.030,0.022,angry
3.04,0,0,0,0,645,0,187,0,1078,2492,3421,2711,3527,87,3437,1975,-1.776,10.285,7.345,-0.845,-3.585,-8.439,1.061,-2.768,9.627,0.041,-0.007,0.024,angry
3.05,0,0,0,0,464,0,130,0,1193,2585,3386,2876,3575,51,3492,2300,6.381,16.039,11.157,-0.861,-3.395,-7.338,0.934,-2.758,9.634,0.019,0.005,0.031,angry
3.06,0,0,0,0,384,0,130,0,1383,2713,3427,3059,3593,55,3541,2581,2.392,7.010,4.329,-0.462,-2.195,-5.578,0.675,-2.679,9.816,-0.055,0.047,0.017,angry
3.07,0,0,0,0,320,0,228,0,1695,2679,3460,3235,3527,78,3527,2533,0.769,5.344,7.817,-0.072,-2.018,-4.333,0.644,-2.993,9.656,-0.043,0.085,0.009,angry
3.08,0,0,0,0,247,0,206,0,1798,2699,3406,3321,3487,51,3413,2236,-2.128,2.071,7.099,0.196,-1.264,-3.382,0.646,-2.722,9.706,-0.055,0.079,0.001,angry
3.09,0,0,0,0,74,0,192,0,1976,2588,3416,3427,3293,51,3337,1205,-5.337,1.063,9.981,0.408,-1.137,-3.109,0.673,-3.067,9.606,-0.027,0.084,-0.017,angry
3.10,0,0,0,0,0,0,190,0,2103,2617,3496,3519,3165,51,3192,793,-5.602,0.891,10.913,0.162,-0.872,-3.415,0.814,-2.859,9.780,-0.015,0.099,-0.008,angry
3.11,0,0,0,0,0,0,193,0,2121,2612,3503,3549,3175,52,3107,505,-3.546,0.204,10.956,-0.106,-0.468,-3.463,0.804,-2.816,9.749,-0.034,0.114,-0.006,angry
3.12,0,0,0,0,0,0,112,0,2213,2613,3511,3661,3150,46,2921,159,-1.793,0.022,11.432,-0.395,-0.223,-3.203,0.613,-2.782,9.689,-0.005,0.150,-0.011,angry
3.13,0,0,0,0,0,0,91,0,2279,2598,3514,3689,3165,28,2731,69,-0.723,-0.208,10.934,-0.619,-0.117,-2.988,0.713,-2.954,9.732,-0.013,0.132,-0.007,angry
3.14,0,0,0,0,0,0,76,0,2386,2662,3514,3721,3135,5,2584,3,-0.685,0.043,10.379,-0.771,-0.123,-2.975,0.656,-2.813,9.711,-0.031,0.144,-0.001,angry
3.15,0,0,0,0,0,0,28,0,2411,2637,3524,3771,3102,6,2205,59,-0.515,0.931,10.590,-0.822,-0.248,-3.145,0.553,-2.835,9.639,-0.066,0.156,0.008,angry
3.16,0,0,0,0,0,0,0,0,2385,2661,3514,3812,3053,0,1943,4,-0.970,1.975,10.910,-0.889,-0.496,-3.489,0.608,-2.976,9.637,-0.075,0.135,0.017,angry
3.17,0,0,0,0,0,0,0,0,2477,2761,3534,3823,2984,5,1651,3,-1.753,3.642,10.216,-1.017,-1.116,-4.044,0.378,-2.993,9.615,-0.052,0.126,0.006,angry
3.18,0,0,0,0,0,0,0,0,2627,2667,3534,3855,2847,0,1142,1,-0.795,4.353,7.149,-0.848,-1.502,-4.588,0.464,-2.840,9.706,-0.088,0.124,-0.028,angry
3.19,0,0,0,0,0,0,0,0,2734,2611,3534,3950,2709,6,855,1,1.283,5.832,5.121,-0.407,-1.952,-4.881,0.450,-3.019,9.694,-0.103,0.197,-0.046,angry
3.20,0,0,0,0,0,0,0,0,2766,2599,3416,4055,2631,6,613,0,2.497,8.815,7.513,-0.133,-2.285,-4.819,0.124,-2.868,9.562,-0.110,0.231,-0.098,angry
3.21,0,0,0,0,0,0,0,0,2841,2537,3534,3939,2565,6,558,3,4.410,13.044,10.731,-0.460,-2.702,-4.471,0.242,-2.923,9.634,-0.203,0.243,-0.187,angry
3.22,0,0,0,0,0,0,0,0,2927,2602,3539,3951,2453,5,729,0,6.613,10.178,3.021,-0.707,-1.751,-3.566,0.263,-2.976,9.747,-0.278,0.218,-0.275,angry
3.23,0,0,0,0,0,0,0,0,2963,2604,3537,3962,2446,7,645,19,4.446,9.919,3.007,-0.209,-1.648,-2.835,0.369,-2.715,9.335,-0.360,0.240,-0.361,angry
3.24,0,0,0,0,0,0,0,0,2989,2668,3542,3967,2309,5,605,3,6.543,3.225,5.839,-0.047,-1.892,-1.563,0.460,-3.127,9.522,-0.412,0.254,-0.419,angry
3.25,0,0,0,0,0,0,71,128,3048,2643,3539,3973,2075,19,559,2,-1.487,13.242,-2.607,0.680,1.649,-0.394,0.287,-3.141,9.656,-0.428,0.252,-0.480,angry
3.26,0,0,0,0,0,0,730,2775,3028,2647,3534,3951,1658,5,483,5,-3.407,-7.295,11.428,1.084,0.149,-0.220,0.244,-3.139,9.914,-0.523,0.297,-0.613,angry
3.27,0,0,0,0,43,0,1809,3611,2915,2409,3508,3895,1114,5,383,0,7.865,7.920,10.896,2.669,0.318,-0.799,0.977,-2.571,9.890,-0.980,0.292,-0.628,angry
3.28,0,0,0,0,998,0,2758,3824,2887,2139,3485,3849,504,2,243,0,-5.083,4.120,13.913,1.180,0.121,-0.125,1.779,-1.779,10.195,-1.357,0.166,-0.681,angry
3.29,0,0,0,0,2161,0,3233,3888,2805,597,3434,3636,0,0,0,12,0.962,9.124,9.723,0.357,-0.018,0.084,4.319,-1.911,10.743,-3.052,0.594,-0.999,angry
3.30,0,50,0,0,2558,0,3426,3915,2488,0,2899,3230,0,0,0,0,-3.539,3.675,15.002,0.675,-0.034,-0.074,3.819,-1.307,14.839,-3.209,3.727,-0.552,angry
3.31,320,975,55,0,2832,0,3541,3938,1768,0,565,2065,0,0,0,0,-0.481,3.424,10.199,0.037,-0.177,0.066,9.613,-7.355,18.002,-2.949,4.555,1.537,angry
3.32,310,1745,320,0,3028,0,3628,3954,0,0,181,37,0,0,1,0,1.199,3.749,9.493,0.054,-0.177,0.072,6.718,-7.824,13.427,-1.971,6.953,2.815,angry
3.33,162,1922,432,0,3114,0,3632,3966,0,0,174,0,0,0,0,0,1.061,3.745,9.771,0.016,-0.157,0.087,17.293,-12.131,16.479,-1.074,5.629,-2.078,angry
3.34,0,2014,345,0,3210,0,3639,3971,0,0,176,0,1,0,0,0,0.345,3.285,9.776,-0.020,-0.248,0.122,11.765,-5.215,3.893,-0.402,3.987,-5.594,angry
3.35,0,1962,279,0,3250,0,3651,3964,0,0,151,0,0,0,0,0,0.792,3.089,9.196,-0.009,-0.338,0.173,2.246,-4.587,8.882,-0.063,3.832,-5.775,angry
3.36,0,1948,240,0,3287,0,3647,3952,0,0,151,0,0,0,0,0,0.441,3.304,9.823,0.015,-0.415,0.189,2.246,-4.587,8.882,-0.063,3.832,-5.775,angry
3.37,0,2019,147,0,3313,0,3632,3939,0,0,151,0,0,0,10,0,1.075,3.108,9.244,0.041,-0.386,0.162,0.170,-2.174,6.560,0.171,2.342,-5.377,angry
3.38,0,2031,91,0,3344,0,3642,3920,0,0,148,0,0,0,0,0,1.762,2.978,8.808,0.050,-0.312,0.131,-1.662,-1.867,6.773,0.319,2.359,-4.984,angry
3.39,0,2160,84,0,3371,0,3632,3905,0,0,140,0,0,0,0,0,1.511,2.763,8.519,0.064,-0.142,0.057,-3.529,-0.496,7.558,0.538,2.010,-4.287,angry
3.40,0,2309,147,0,3405,0,3632,3879,0,0,145,0,0,0,0,0,1.374,2.942,8.957,0.108,-0.012,-0.015,-4.113,0.302,8.825,0.855,1.734,-3.467,angry
3.41,0,2427,248,0,3439,0,3626,3859,0,0,140,0,0,0,0,0,1.128,3.024,8.947,0.110,0.047,-0.046,-2.772,0.201,9.850,1.245,1.593,-2.588,angry
3.42,0,2559,405,0,3463,0,3632,3839,0,0,140,0,0,0,0,0,1.185,3.227,9.275,0.134,0.125,-0.076,-0.871,-0.417,10.317,1.660,1.747,-1.829,angry
3.43,0,2706,592,0,3493,0,3632,3814,0,0,140,0,0,0,0,0,1.039,3.393,9.392,0.116,0.169,-0.081,0.357,-1.362,10.882,2.160,1.774,-1.230,angry
3.44,0,2826,850,0,3532,0,3630,3792,0,0,71,0,0,0,0,0,1.001,3.304,9.414,0.124,0.207,-0.105,2.222,-2.203,10.561,2.518,1.479,-0.831,angry
3.45,0,2935,1227,0,3573,0,3639,3763,0,0,135,0,0,0,0,0,1.269,3.156,9.390,0.151,0.229,-0.117,4.769,-3.251,9.579,2.805,1.260,-0.666,angry
3.46,0,3013,1776,0,3605,0,3636,3728,0,0,133,0,0,0,0,0,1.080,3.314,9.290,0.153,0.201,-0.108,7.479,-4.106,9.067,3.018,1.169,-0.777,angry
3.47,0,3083,2147,0,3637,0,3643,3682,0,0,225,0,0,0,0,0,0.850,3.191,9.313,0.155,0.218,-0.114,9.785,-5.131,8.626,3.141,1.134,-1.167,angry
3.48,0,3153,2442,0,3664,0,3641,3638,0,0,133,0,0,0,0,18,0.950,3.421,9.256,0.175,0.236,-0.133,10.609,-5.935,8.590,3.187,0.994,-1.778,angry
3.49,0,3205,2640,0,3683,0,3619,3546,0,0,133,0,1,0,0,0,0.831,3.438,9.572,0.175,0.274,-0.150,10.448,-6.615,8.610,3.171,0.663,-2.465,angry
3.50,0,3250,2776,0,3708,0,3617,3501,0,0,133,0,0,0,0,0,0.970,3.534,9.716,0.164,0.273,-0.148,9.768,-7.123,8.950,3.077,0.305,-3.069,angry
3.51,0,3286,2903,0,3728,0,3601,3489,0,0,133,0,0,0,55,0,0.955,3.467,9.443,0.148,0.266,-0.138,8.746,-7.958,10.307,3.030,0.123,-3.480,angry
3.52,0,3312,3009,0,3742,0,3583,3468,0,0,130,0,0,0,0,0,0.809,3.390,9.445,0.176,0.272,-0.154,7.238,-8.514,11.262,3.117,0.145,-3.631,angry
3.53,0,3341,3148,16,3754,0,3556,3428,0,0,130,0,0,0,0,0,0.469,3.496,9.562,0.181,0.260,-0.148,5.315,-8.425,11.291,3.170,0.082,-3.544,angry
3.54,293,3393,3252,144,3763,0,3515,3397,0,0,130,0,0,0,23,0,0.522,3.634,9.491,0.164,0.226,-0.133,3.646,-8.116,11.329,3.150,-0.090,-3.212,angry
3.55,733,3477,3384,484,3800,0,3472,3371,0,0,130,0,0,0,0,0,0.661,3.503,9.364,0.161,0.182,-0.129,2.737,-7.884,11.590,3.135,-0.210,-2.676,angry
3.56,1358,3577,3492,963,3837,0,3468,3333,0,0,135,0,0,0,0,0,0.661,3.452,9.548,0.212,0.192,-0.143,2.277,-9.565,13.657,2.836,-0.574,-1.401,angry
3.57,1712,3666,3583,1675,3851,0,3423,3268,0,0,130,0,0,0,0,0,0.575,3.481,9.232,0.270,0.181,-0.168,-0.541,-14.732,15.277,3.164,-2.332,-0.812,angry
3.58,2077,3766,3696,2238,3877,0,3370,3085,0,39,350,29,0,0,0,0,0.445,3.706,9.357,0.278,0.135,-0.138,-1.695,-14.880,9.589,2.798,-3.134,-0.937,angry
3.59,2433,3834,3773,2683,3895,0,3280,2738,0,2,130,0,0,0,0,0,0.663,3.598,9.357,0.247,0.153,-0.082,-5.528,-15.265,5.337,1.637,-2.188,-0.978,angry
3.60,2768,3807,3878,2960,3902,0,3047,1847,0,0,130,7,0,0,0,0,0.484,4.338,9.378,0.260,0.154,-0.107,-6.438,-19.613,-0.565,0.440,0.741,0.268,angry
3.61,3049,3954,3891,3121,3846,0,2736,0,24,0,130,0,0,0,0,0,0.292,3.493,9.187,0.243,0.126,-0.109,-10.159,-19.613,-4.827,-0.562,1.784,0.722,angry
3.62,3308,4007,3925,3221,3281,0,1771,0,0,0,120,0,0,0,25,303,0.244,3.536,9.175,0.372,0.057,-0.122,-1.671,-0.524,19.613,-1.259,2.900,1.038,angry
3.63,3472,4053,3952,3251,2992,0,1031,0,0,0,112,29,0,0,548,2095,0.769,3.081,9.249,1.063,0.052,0.199,-3.050,-2.109,4.334,-3.558,-0.106,1.211,angry
3.64,3601,4075,3959,3152,2674,0,952,0,6,0,110,0,0,0,1623,2811,0.594,3.452,9.663,1.493,-0.160,0.212,4.822,-9.026,18.328,-2.909,-0.240,0.792,angry
3.65,3652,4071,3942,2688,2291,0,991,0,0,0,130,0,1,0,2203,3479,0.297,2.488,11.334,2.413,-0.309,0.373,-1.480,-0.903,14.152,-0.127,1.089,0.276,angry
3.66,3535,3921,3813,1335,1971,0,912,0,0,0,304,242,4,0,2621,3525,-1.216,-0.316,11.631,4.780,-1.156,0.359,-0.381,-3.692,12.062,-0.054,0.290,0.187,angry
3.67,2960,2499,3024,0,1597,0,575,0,1,0,143,896,247,0,2771,3672,-2.100,0.907,13.147,7.932,-2.961,0.184,0.943,-2.298,10.400,-0.082,0.279,0.215,angry
3.68,1145,1440,501,0,874,0,256,0,0,2,2485,1811,767,1,2937,3718,5.363,15.538,15.277,8.018,-4.197,-0.133,0.385,-2.744,9.979,-0.098,0.059,0.146,angry
3.69,0,0,0,0,1005,0,364,0,51,27,2863,2410,1079,3,3241,3831,5.667,7.049,19.613,3.980,-2.237,-1.113,0.517,-2.741,10.566,-0.043,-0.018,0.039,angry
3.70,0,0,0,0,1108,0,410,0,3,69,3007,2635,1355,5,3301,3765,-0.213,2.128,19.613,0.533,-0.159,-2.619,0.759,-2.306,9.946,-0.059,-0.030,0.045,angry
3.71,0,0,0,0,609,0,213,0,5,635,3053,2843,1727,0,3606,3729,3.776,-0.807,16.994,-1.605,0.198,-3.534,0.881,-2.476,9.756,-0.072,0.074,0.071,angry
3.72,0,0,0,0,304,0,117,0,4,699,3181,3032,1931,0,3551,3599,5.425,-2.274,8.815,-2.578,0.462,-3.158,0.548,-2.569,9.888,-0.090,0.074,0.078,angry
3.73,0,0,0,0,239,0,125,0,24,779,3217,3093,2025,9,3534,3470,6.529,-1.460,7.429,-2.879,0.471,-2.363,0.448,-2.626,9.876,-0.071,0.047,0.065,angry
3.74,0,0,0,0,98,0,103,0,31,932,3222,3164,2099,13,3445,3151,6.412,0.278,7.920,-3.324,0.066,-1.304,0.431,-2.528,9.795,-0.065,0.021,0.039,angry
3.75,0,0,0,0,52,0,121,0,93,1143,3247,3247,2187,10,3323,3033,5.231,1.832,7.992,-3.554,-0.528,-0.302,0.563,-2.488,9.706,-0.056,0.031,0.038,angry
3.76,0,0,0,0,37,0,96,0,98,1179,3268,3192,2235,27,3251,2959,4.630,4.003,8.995,-3.843,-0.828,0.489,0.448,-2.502,9.780,-0.061,0.023,0.043,angry
3.77,0,0,0,0,82,0,7,0,167,1299,3304,3352,2379,23,3179,2811,2.535,5.128,9.531,-3.925,-0.924,0.974,0.460,-2.492,9.823,-0.053,0.045,0.046,angry
3.78,0,0,0,0,53,0,30,0,247,1339,3268,3391,2509,47,3060,2733,1.532,5.389,10.271,-3.810,-1.078,1.234,0.362,-2.528,9.723,-0.041,0.057,0.061,angry
3.79,0,0,0,0,80,0,5,0,299,1369,3339,3422,2597,47,2997,2711,0.237,6.419,13.065,-3.706,-1.263,1.321,0.441,-2.636,9.819,-0.043,0.070,0.052,angry
3.80,0,0,0,0,87,0,0,0,413,1439,3393,3462,2761,53,2965,2607,0.373,7.575,14.564,-3.815,-1.210,1.141,0.441,-2.523,9.591,-0.031,0.065,0.050,angry
3.81,0,0,0,0,86,0,0,0,372,1671,3427,3613,2936,9,2925,2368,1.776,7.815,13.367,-3.733,-0.718,0.772,0.472,-2.626,9.809,-0.070,0.093,0.051,angry
3.82,0,0,0,0,16,0,0,0,365,1787,3452,3605,3013,51,2921,2239,5.516,12.131,13.783,-3.141,-0.135,0.632,0.467,-2.574,9.967,-0.084,0.101,0.052,angry
3.83,0,0,0,0,17,0,0,0,837,1951,3483,3695,3099,116,2779,1967,2.157,18.270,12.989,-2.799,-0.429,1.389,0.618,-2.904,9.795,-0.101,0.148,0.067,angry
3.84,0,0,0,0,22,0,0,0,1213,2039,3503,3781,3049,52,2659,1121,0.891,19.613,5.842,-1.913,-1.669,2.691,0.373,-2.298,9.878,-0.180,0.105,0.054,angry
3.85,0,0,0,0,345,0,0,0,1419,2227,3560,3804,3020,53,2382,439,-8.401,19.613,-0.867,-1.056,0.144,2.431,0.438,-1.199,9.864,-0.282,0.095,0.037,angry
3.86,0,0,0,0,23,0,68,29,1767,2405,3544,3881,2812,38,1147,155,-15.155,19.613,-17.691,1.476,0.365,0.614,0.479,-2.492,9.474,-0.181,0.059,0.063,angry
3.87,0,0,0,0,0,0,325,2704,2248,2637,3562,3965,1890,21,287,59,1.894,-1.944,13.841,2.615,3.604,-2.086,0.050,-2.811,9.589,-0.976,0.163,-0.248,angry
3.88,0,0,0,0,0,0,703,3575,2395,2651,3572,3988,1306,5,312,3,0.850,1.334,-2.945,5.141,-0.105,-0.135,0.005,-2.538,9.527,-0.883,0.096,-0.268,angry
3.89,0,0,0,0,665,0,2122,3731,2619,2649,3585,3990,377,5,331,2,-0.747,16.039,19.613,3.021,0.268,-0.370,1.757,-2.246,9.850,-1.610,-0.262,-0.444,angry
3.90,159,228,0,0,2260,0,2972,3738,2788,1994,3652,3922,70,4,191,0,-8.320,7.685,19.613,0.758,0.573,-0.415,1.805,-1.963,10.810,-3.146,-0.199,-0.752,angry
3.91,1535,1589,1535,0,2486,0,3111,3765,2555,1419,3588,3879,59,1,0,0,1.494,5.018,10.398,0.563,0.329,-0.192,2.279,-2.217,13.340,-4.386,0.557,-0.840,angry
3.92,1968,2214,2695,486,2839,0,3250,3794,1799,581,3429,2825,0,0,0,0,0.460,3.845,9.421,0.210,0.204,-0.151,2.061,0.000,16.879,-7.732,0.011,0.032,angry
3.93,2186,2507,3066,1494,2988,0,3367,3822,637,0,225,612,0,0,0,0,0.448,3.603,9.388,0.147,0.132,-0.130,-3.108,-7.147,19.613,-8.731,-1.242,2.769,angry
3.94,2377,2752,3280,2075,3111,0,3447,3830,31,0,115,143,0,0,0,0,0.450,3.958,9.361,0.148,0.034,-0.055,0.383,-12.347,17.248,-8.731,-1.186,2.941,angry
3.95,2527,2885,3401,2416,3243,0,3488,3814,0,5,181,0,0,0,0,0,0.318,3.694,9.476,0.109,0.084,-0.042,-3.587,-0.038,19.448,-1.797,-0.701,3.939,angry
3.96,2626,2995,3477,2654,3344,0,3478,3760,0,0,161,0,0,0,0,0,0.350,3.680,9.340,0.096,0.078,-0.024,4.420,-0.239,11.073,0.947,-0.513,3.283,angry
3.97,2730,3056,3537,2784,3420,0,3438,3701,0,0,171,0,0,0,0,0,0.278,3.749,9.285,0.091,0.067,-0.034,4.614,3.285,9.639,1.632,-0.599,3.065,angry
3.98,2826,3115,3583,2879,3450,0,3376,3631,0,0,151,0,29,0,0,0,0.421,3.766,9.371,0.086,0.062,-0.023,7.896,1.978,6.981,2.134,-0.890,1.859,angry
3.99,2895,3149,3628,2943,3445,0,3269,3568,0,0,148,0,0,0,0,7,0.093,3.788,9.249,0.089,0.067,-0.020,7.717,0.828,7.901,2.825,-0.909,0.090,angry
4.00,2977,3159,3650,2992,3440,0,3169,3518,0,0,145,0,0,17,0,0,0.259,3.905,9.342,0.056,0.064,-0.026,6.225,0.093,8.686,3.149,-1.085,-0.735,angry
4.01,3023,3178,3669,3053,3436,0,3046,3475,0,0,140,0,0,0,0,0,0.280,3.752,9.316,0.051,0.072,-0.031,2.550,-1.372,10.216,3.772,-1.298,-1.659,angry
4.02,3095,3182,3688,3086,3447,0,2939,3439,31,87,145,0,0,0,0,0,0.237,3.723,9.280,0.058,0.077,-0.028,-0.543,-3.309,11.720,4.412,-1.406,-1.832,angry
4.03,3163,3177,3711,3133,3455,0,2864,3391,0,0,135,0,0,0,0,0,0.170,3.701,9.292,0.069,0.089,-0.029,-1.528,-3.668,11.325,4.555,-1.456,-1.748,angry
4.04,3226,3139,3728,3183,3458,0,2784,3359,0,0,130,0,0,0,29,0,0.067,3.706,9.246,0.067,0.093,-0.035,-2.339,-4.793,13.269,4.659,-1.615,-1.439,angry
4.05,3290,3056,3760,3219,3477,0,2719,3299,0,0,135,0,0,0,0,0,0.132,3.704,9.268,0.072,0.107,-0.035,-2.435,-5.533,16.666,4.680,-1.731,-1.159,angry
4.06,3370,3141,3792,3283,3499,0,2597,3205,0,0,186,0,0,0,0,0,0.129,3.646,9.321,0.100,0.107,-0.032,-2.318,-7.489,19.462,4.712,-1.774,-0.987,angry
4.07,3438,3229,3826,3362,3485,0,2433,2992,0,0,133,0,0,0,0,0,0.132,3.768,9.263,0.130,0.119,-0.020,-0.939,-15.273,17.901,4.753,-1.556,-0.880,angry
4.08,3519,3398,3875,3397,3465,0,2225,2475,0,0,135,0,0,0,0,0,0.077,3.646,9.163,0.149,0.109,0.005,2.054,-19.613,11.782,3.901,-1.166,-0.955,angry
4.09,3568,3573,3912,3513,3307,0,1579,1008,10,0,140,0,0,0,0,0,0.208,3.706,9.278,0.226,0.111,0.036,1.681,-19.613,2.914,3.102,-1.057,-1.265,angry
4.10,3653,3733,3952,3599,3065,0,699,0,0,0,135,0,0,0,0,0,0.000,4.317,9.210,0.400,0.155,0.093,-3.297,-19.613,-3.122,0.684,-1.163,-2.179,angry
4.11,3728,3823,3983,3674,2826,0,263,0,0,35,110,0,0,0,0,0,-0.141,4.013,11.032,0.880,0.361,0.421,-8.037,-19.613,-13.185,-2.815,1.318,-1.623,angry
4.12,3803,3848,4015,3733,2464,0,167,0,0,0,135,7,0,0,0,84,0.376,2.928,9.002,1.302,0.209,0.459,5.521,-2.265,10.441,-1.739,3.287,0.319,angry
4.13,3846,3821,4009,3750,2185,0,114,0,0,0,130,0,0,0,326,885,1.135,2.976,9.670,1.868,0.232,0.677,-13.939,13.206,19.613,-3.113,1.833,0.482,angry
4.14,3930,3686,4013,3723,1654,0,165,0,0,0,117,0,0,0,600,2808,1.008,1.451,8.792,3.112,0.762,0.826,-7.197,-11.401,14.210,-4.278,0.807,2.081,angry
4.15,3966,3614,3950,3399,1373,0,319,0,0,0,130,0,0,0,2386,3673,0.048,3.534,7.728,3.945,1.034,0.573,-0.536,-19.613,19.613,-0.818,3.140,0.785,angry
4.16,3905,3376,3703,2817,758,0,102,0,0,0,135,0,0,0,2551,3733,2.406,4.101,16.712,5.704,0.746,-0.037,-0.850,-1.604,7.108,0.066,1.694,0.501,angry
4.17,3261,1962,2931,1615,0,0,0,0,0,1,939,843,467,3,2909,3817,-2.914,7.918,19.613,7.476,-1.341,-2.115,1.961,-4.013,10.609,0.059,0.186,0.051,angry
4.18,1731,0,111,0,0,0,0,0,2,27,1963,1123,909,3,3283,3867,1.451,19.613,12.962,8.107,-0.528,-3.455,1.334,-2.768,9.996,0.013,0.070,0.071,angry
4.19,0,0,0,0,255,0,17,0,3,621,2608,1427,1019,1,3431,3912,6.314,2.602,12.424,2.715,-0.116,-3.457,1.216,-2.294,9.677,-0.052,0.046,0.109,angry
4.20,0,0,0,0,0,0,0,0,4,915,2904,1875,1333,4,3577,3893,7.530,1.822,14.329,0.317,-0.392,-2.085,0.800,-2.710,10.017,-0.048,0.076,0.079,angry
4.21,0,0,0,0,0,0,0,0,4,967,2981,1951,1491,4,3627,3837,6.704,-0.924,14.334,-0.830,-0.123,-1.754,0.622,-2.564,9.795,-0.030,0.070,0.059,angry
4.22,0,0,0,0,0,0,0,0,5,1079,3009,2031,1721,5,3643,3869,6.744,-0.979,10.257,-1.432,-0.298,-1.259,0.682,-2.641,9.890,-0.021,0.089,0.029,angry
4.23,0,0,0,0,0,0,0,0,4,1216,3043,2267,1881,2,3631,3701,6.302,-2.121,6.883,-1.907,-0.482,-0.376,0.773,-2.301,9.536,-0.018,0.072,0.028,angry
4.24,0,0,0,0,0,0,0,0,5,1285,3061,2363,1960,5,3589,3756,5.437,-1.238,7.702,-2.118,-0.678,0.174,0.661,-2.500,9.785,-0.034,0.074,0.043,angry
4.25,0,0,0,0,0,0,0,0,5,1287,3012,2449,2037,6,3603,3693,4.415,0.721,9.584,-2.520,-0.943,0.682,0.680,-2.557,9.802,-0.023,0.054,0.036,angry
4.26,0,0,0,0,0,0,0,0,7,1330,3089,2541,2080,6,3609,3615,3.259,1.602,9.459,-3.087,-1.047,1.056,0.539,-2.701,9.957,-0.010,0.054,0.028,angry
4.27,0,0,0,0,0,0,0,0,3,1403,3140,2613,2117,5,3532,3512,1.290,2.035,8.030,-3.479,-1.057,1.209,0.690,-2.562,9.828,0.003,0.067,0.009,angry
4.28,0,0,0,0,0,0,0,0,4,1451,3196,2664,2197,4,3637,3384,-0.419,2.365,7.582,-3.629,-1.207,1.183,0.773,-2.519,9.718,-0.006,0.041,0.016,angry
4.29,0,0,0,0,0,0,0,0,5,1541,3191,2702,2333,5,3534,3221,-1.369,4.489,9.625,-3.778,-1.522,1.094,0.666,-2.502,9.744,0.000,0.046,0.015,angry
4.30,0,0,0,0,0,0,0,0,9,1559,3222,2743,2411,5,3478,3163,-1.463,5.938,10.805,-4.012,-1.798,1.044,0.625,-2.512,9.764,-0.011,0.045,0.028,angry
4.31,0,0,0,0,0,0,0,0,8,1563,3232,2781,2515,9,3516,3193,-0.417,6.642,10.051,-4.220,-1.816,1.036,0.718,-2.500,9.752,-0.025,0.035,0.039,angry
4.32,0,0,0,0,0,0,0,0,28,1551,3255,2840,2629,11,3501,3164,0.555,6.618,9.457,-4.205,-1.711,1.179,0.639,-2.476,9.795,-0.036,0.043,0.054,angry
4.33,0,0,0,0,0,0,0,0,31,1567,3268,2876,2725,12,3501,3183,1.041,7.092,11.119,-4.041,-1.700,1.438,0.668,-2.471,9.749,-0.046,0.047,0.065,angry
4.34,0,0,0,0,0,0,0,0,45,1598,3104,2953,2821,18,3449,3132,1.025,9.335,14.930,-4.181,-1.678,1.838,0.637,-2.466,9.641,-0.055,0.047,0.072,angry
4.35,0,0,0,0,0,0,0,0,73,1709,3324,3029,2936,87,3355,3115,0.527,10.204,14.846,-4.303,-1.469,2.062,0.627,-2.516,9.687,-0.086,0.063,0.088,angry
4.36,0,0,0,0,0,0,0,0,123,1757,3345,3149,3049,27,3277,2939,2.437,13.764,16.369,-4.143,-1.088,2.167,0.572,-2.665,9.948,-0.092,0.052,0.086,angry
4.37,0,0,0,0,0,0,0,0,121,1827,3337,3161,3183,36,3164,2843,1.475,18.208,13.587,-4.033,-0.478,2.382,0.575,-2.526,9.639,-0.098,0.044,0.083,angry
4.38,0,0,0,0,0,0,0,0,300,1977,3416,3309,3229,55,3109,2639,-1.987,19.613,4.369,-3.093,0.174,2.371,0.639,-2.521,9.886,-0.132,0.091,0.088,angry
4.39,0,0,0,0,335,0,0,0,441,2217,3416,3423,3421,51,2989,2141,-12.251,19.613,-4.824,-1.273,-0.254,1.307,0.594,-2.770,9.910,-0.184,0.123,0.064,angry
4.40,0,0,0,0,415,0,0,0,767,2378,3478,3502,3451,53,2805,1901,-11.983,19.613,-4.726,0.080,-0.903,-0.249,0.524,-2.593,9.967,-0.160,0.124,0.058,angry
4.41,0,0,0,0,0,0,96,1520,1577,2521,3516,3632,3387,52,2701,589,-6.055,19.410,-10.709,2.863,2.177,-0.571,0.227,-1.410,9.816,-0.281,0.130,0.019,angry
4.42,0,0,0,0,0,0,672,3338,1823,2669,3460,3753,3016,39,831,119,-9.014,-9.155,16.182,4.420,-0.063,0.290,0.883,-2.823,9.548,-0.085,0.151,0.126,angry
4.43,0,0,0,0,0,0,1094,3686,1992,2809,3552,3823,2676,142,407,30,-6.670,17.368,19.613,4.267,0.206,-1.044,0.836,1.044,10.039,-0.989,0.073,-0.213,angry
4.44,0,0,0,0,880,0,2544,3799,2271,2901,3560,3752,716,6,292,1,1.987,5.231,8.241,3.031,0.063,-0.729,1.393,-1.832,9.601,-1.534,-0.161,-0.319,angry
4.45,1383,163,0,0,2247,0,3131,3758,2378,2527,3554,3771,61,3,337,0,9.895,11.066,10.005,0.014,1.589,-0.646,0.711,-0.924,11.248,-3.296,-0.549,-0.557,angry
4.46,1965,1261,917,0,2480,0,3261,3817,2281,1948,3324,3623,121,4,301,4,3.263,6.531,10.855,0.285,0.466,-0.133,0.299,0.948,12.529,-5.244,0.026,-0.155,angry
4.47,2075,1846,2288,367,2768,0,3382,3863,1204,153,3045,2025,0,0,0,0,1.192,4.245,9.340,0.093,0.162,-0.090,1.295,4.755,16.539,-8.215,-1.267,0.356,angry
4.48,2155,2247,2795,1127,2910,0,3483,3885,149,0,197,117,0,0,0,0,0.357,3.656,9.483,0.095,0.092,-0.074,1.772,-14.815,17.506,-8.731,-0.712,2.503,angry
4.49,2239,2514,3055,1616,3039,0,3547,3905,0,0,184,0,0,0,0,0,0.436,3.891,9.488,0.067,0.102,-0.034,6.019,-14.547,16.597,-5.701,-0.128,2.490,angry
4.50,2288,2695,3206,1927,3137,0,3579,3888,0,13,176,0,0,0,0,0,0.431,3.733,9.462,0.122,0.065,-0.033,-2.964,-5.258,19.613,-0.600,0.808,2.806,angry
4.51,2336,2850,3328,2157,3226,0,3579,3841,0,0,145,0,0,0,0,0,0.424,3.843,9.335,0.132,0.062,-0.048,4.733,1.274,9.783,1.277,0.011,2.706,angry
4.52,2364,2899,3376,2284,3271,0,3559,3809,0,0,151,0,0,0,0,0,0.486,3.824,9.416,0.088,0.099,-0.052,4.496,2.172,7.649,1.622,-0.275,2.495,angry
4.53,2454,2962,3430,2495,3328,0,3504,3751,0,0,145,0,0,0,0,9,0.318,3.768,9.335,0.088,0.101,-0.055,5.832,2.009,5.904,1.963,-0.484,2.029,angry
4.54,2527,2976,3483,2637,3347,0,3445,3677,11,0,143,0,0,0,0,0,0.199,3.797,9.301,0.088,0.081,-0.033,8.203,0.967,5.717,2.545,-0.345,0.695,angry
4.55,2598,3005,3518,2738,3366,0,3385,3627,0,0,143,0,0,0,0,0,0.268,3.824,9.369,0.055,0.068,-0.032,5.801,-0.723,8.617,3.321,-0.652,-0.782,angry
4.56,2669,2972,3554,2793,3385,0,3325,3583,0,0,135,0,0,0,0,0,0.426,3.694,9.290,0.077,0.038,-0.038,4.518,-0.955,8.672,3.660,-1.020,-1.323,angry
4.57,2736,2933,3583,2853,3408,0,3280,3565,3,0,140,0,0,27,0,0,0.347,3.749,9.278,0.085,0.063,-0.051,1.829,-3.206,10.161,4.206,-1.161,-1.817,angry
4.58,2832,2962,3621,2924,3438,0,3223,3546,0,0,135,0,0,0,0,0,0.232,3.812,9.263,0.076,0.075,-0.036,-0.400,-4.590,11.602,4.556,-1.396,-1.834,angry
4.59,2925,2998,3650,2997,3438,0,3161,3518,0,0,135,0,0,39,0,0,0.187,3.816,9.294,0.067,0.075,-0.033,-0.895,-4.776,11.602,4.558,-1.555,-1.774,angry
4.60,3023,3037,3686,3082,3470,0,3135,3490,0,0,135,0,0,0,7,0,0.232,3.692,9.301,0.060,0.082,-0.026,-1.030,-5.167,15.332,4.376,-1.519,-1.632,angry
4.61,3120,3087,3724,3162,3501,0,3055,3437,0,0,130,0,0,0,0,0,0.215,3.745,9.297,0.072,0.090,-0.025,-0.939,-11.346,19.613,4.622,-1.179,-1.587,angry
4.62,3170,3172,3739,3243,3525,0,2896,3312,0,0,135,0,0,0,0,0,0.120,3.721,9.196,0.087,0.093,-0.021,-2.042,-16.283,18.622,4.547,-0.831,-1.491,angry
4.63,3237,3306,3792,3321,3543,0,2738,3165,0,53,104,0,0,0,0,0,0.182,3.728,9.242,0.091,0.089,-0.006,-0.690,-19.613,8.669,3.261,-0.095,-0.799,angry
4.64,3310,3466,3857,3421,3558,0,2500,2729,0,0,130,0,0,0,0,0,0.158,3.721,9.266,0.141,0.086,0.022,-4.401,-19.613,2.629,1.900,-1.367,-0.412,angry
4.65,3394,3619,3902,3502,3521,0,1982,1408,0,0,135,0,0,0,0,0,0.196,3.543,9.280,0.218,0.109,0.063,-4.235,-19.613,-3.740,1.034,-1.942,-0.829,angry
4.66,3510,3744,3946,3583,3134,0,983,0,0,0,145,0,1,0,0,79,0.330,3.321,9.603,0.474,0.203,0.126,-17.380,-19.613,-9.594,-2.203,1.925,-0.221,angry
4.67,3603,3815,3970,3670,2676,0,270,0,0,0,122,0,0,0,97,1758,0.730,4.144,9.115,1.146,0.462,0.361,-7.259,6.088,11.186,-4.027,0.056,0.397,angry
4.68,3671,3763,3993,3702,2113,0,51,0,0,0,133,0,0,0,159,2389,1.030,2.957,9.768,2.004,0.231,0.663,-4.415,5.928,-6.211,-5.072,-0.075,0.759,angry
4.69,3755,3660,3993,3615,1520,0,176,0,0,1,140,0,0,0,2143,3263,-0.563,2.739,7.144,3.060,0.707,0.748,-10.396,19.613,-19.613,1.725,2.040,0.490,angry
4.70,3770,3549,3926,3193,1246,0,210,0,0,1,1062,1116,291,0,2394,3589,1.336,2.583,9.273,4.165,1.029,0.637,1.228,-6.603,11.772,-0.175,0.181,0.237,angry
4.71,3631,3190,3647,2711,305,0,114,0,0,0,2037,1752,473,0,2518,3683,-0.453,3.156,17.724,5.659,0.909,0.132,0.469,-2.763,9.821,-0.001,0.124,0.059,angry
4.72,2971,1509,2732,1034,0,0,0,0,0,565,2728,1763,748,5,3007,3711,-3.393,11.480,19.613,7.271,-1.143,-2.119,0.651,-2.617,9.869,0.058,0.009,0.036,angry
4.73,1074,0,0,0,0,0,85,0,0,825,2792,1945,999,6,3321,3759,0.936,17.334,19.613,6.076,-0.773,-2.768,0.871,-2.682,9.821,0.017,-0.012,0.067,angry
4.74,0,0,0,0,285,0,59,0,8,895,2935,2116,1237,7,3388,3790,-0.414,10.681,16.568,1.618,-0.046,-2.580,0.895,-2.567,9.919,-0.015,0.022,0.040,angry
4.75,0,0,0,0,0,0,0,0,7,957,3135,2232,1483,5,3641,3807,5.514,-0.323,12.807,-0.242,-0.083,-2.458,0.644,-2.519,9.962,0.017,0.046,0.012,angry
4.76,0,0,0,0,0,0,0,0,17,1111,3027,2248,1582,9,3548,3829,5.066,-2.083,13.144,-1.101,-0.232,-2.288,0.587,-2.595,9.874,0.032,0.072,0.010,angry
4.77,0,0,0,0,0,0,0,0,19,1160,3017,2315,1660,9,3541,3800,6.579,-2.116,8.164,-1.877,-0.732,-1.485,0.721,-2.586,9.771,0.030,0.064,0.026,angry
4.78,0,0,0,0,0,0,0,0,7,1177,3048,2409,1692,5,3572,3791,7.044,-1.633,6.574,-2.110,-0.846,-0.829,0.603,-2.507,9.828,0.019,0.060,0.024,angry
4.79,0,0,0,0,0,0,0,0,4,1191,3027,2443,1735,5,3565,3769,6.393,-0.850,6.579,-2.300,-0.928,-0.189,0.615,-2.337,9.682,0.006,0.046,0.030,angry
4.80,0,0,0,0,0,0,0,0,9,1271,3040,2489,1783,5,3611,3756,5.250,0.139,7.707,-2.522,-1.097,0.395,0.572,-2.504,9.783,-0.023,0.023,0.043,angry
4.81,0,0,0,0,0,0,0,0,29,1259,3058,2534,1822,11,3551,3625,3.972,1.647,9.129,-2.836,-1.252,0.871,0.606,-2.617,9.689,-0.008,0.037,0.042,angry
4.82,0,0,0,0,0,0,0,0,35,1269,3068,2579,1880,10,3686,3676,2.318,3.175,10.204,-3.264,-1.310,1.141,0.637,-2.466,9.749,-0.013,0.060,0.042,angry
4.83,0,0,0,0,0,0,0,0,47,1338,3186,2619,1944,17,3540,3592,-0.043,4.757,9.922,-3.765,-1.358,1.226,0.579,-2.512,9.773,-0.031,0.066,0.052,angry
4.84,0,0,0,0,0,0,0,0,101,1443,3209,2761,2142,28,3517,3540,-1.255,6.352,10.843,-3.979,-1.521,1.085,0.601,-2.476,9.759,-0.055,0.058,0.070,angry
4.85,0,0,0,0,0,0,0,0,100,1596,3252,2917,2437,29,3529,3391,-0.043,6.570,10.781,-3.940,-1.721,1.131,0.625,-2.545,9.598,-0.070,0.048,0.089,angry
4.86,0,0,0,0,0,0,0,0,141,1599,3268,2976,2587,21,3509,3301,0.476,7.989,13.690,-3.757,-1.792,1.374,0.551,-2.648,9.831,-0.062,0.074,0.078,angry
4.87,0,0,0,0,0,0,0,0,179,1787,3414,3078,2795,41,3411,3151,0.560,10.307,16.247,-3.923,-1.694,1.614,0.594,-2.521,9.749,-0.051,0.077,0.067,angry
4.88,0,0,0,0,0,0,0,0,407,1907,3396,3284,2959,47,3254,2913,1.231,11.286,13.259,-3.759,-1.098,1.789,0.548,-2.607,9.855,-0.090,0.106,0.084,angry
4.89,0,0,0,0,0,0,0,0,489,2007,3416,3253,3050,51,3115,2747,-0.057,16.216,14.765,-3.207,-0.926,2.018,0.448,-2.744,9.706,-0.134,0.111,0.078,angry
4.90,0,0,0,0,0,0,0,0,557,2109,3462,3513,3213,53,2941,2483,0.101,19.427,6.773,-2.818,-0.254,2.228,0.402,-2.674,9.833,-0.118,0.126,0.061,angry
4.91,0,0,0,0,0,0,0,0,1095,2331,3496,3593,3437,55,2792,1845,-8.033,19.613,-4.772,-1.458,0.113,1.548,0.498,-2.614,9.754,-0.070,0.128,0.052,angry
4.92,0,0,0,0,0,0,0,0,1141,2440,3508,3653,3341,51,2763,1253,-9.364,19.613,-12.270,0.916,-0.479,0.989,0.651,-3.029,9.902,-0.083,0.126,0.046,angry
4.93,0,0,0,0,0,0,208,1767,1466,2589,3534,3771,3093,27,1955,63,-0.402,10.034,-10.681,2.299,2.979,-0.024,0.074,-7.614,9.452,0.054,0.140,0.158,angry
4.94,0,0,0,0,0,0,752,3361,1981,2648,3549,3957,2719,12,532,35,-18.742,-5.684,16.999,4.822,-0.360,0.603,0.994,-1.755,10.087,-0.107,0.100,0.094,angry
4.95,0,0,0,0,176,0,1489,3615,2089,2760,3557,3912,2088,1,443,2,1.358,16.633,19.613,3.940,0.518,-1.124,0.433,-2.593,9.713,-0.968,0.197,-0.285,angry
4.96,620,0,0,0,1803,0,2664,3658,2357,2827,3570,3929,531,5,435,2,-0.436,19.613,19.613,1.450,-0.482,0.128,0.929,-1.788,9.268,-1.339,-0.312,-0.362,angry
4.97,1962,916,1257,293,2254,0,2892,3681,2333,2661,3570,3827,8,0,267,5,0.134,2.215,7.075,0.327,0.254,-0.267,0.929,-0.575,10.546,-2.724,-0.615,-0.541,angry
4.98,2230,1680,2405,1216,2455,0,3045,3727,2200,2269,3583,3765,163,5,349,2,0.294,4.424,9.922,0.176,0.200,-0.119,0.127,-0.077,10.592,-4.136,0.317,-0.662,angry
4.99,2339,2002,2711,1744,2659,0,3166,3788,1575,589,3437,2663,22,0,0,0,0.067,4.190,9.747,0.074,0.123,-0.080,3.148,-1.925,18.850,-6.595,-0.060,-0.211,angry
5.00,2431,2210,2912,2070,2820,0,3321,3833,875,0,191,727,0,41,0,0,0.204,3.644,9.392,0.002,0.086,-0.042,0.122,-7.580,19.613,-8.731,-1.198,1.578,angry
5.01,2523,2391,3033,2289,2871,0,3399,3867,75,0,138,0,0,0,0,0,0.304,3.680,9.426,0.016,0.087,-0.022,2.119,-9.948,16.946,-8.343,-0.060,2.018,angry
5.02,2602,2550,3155,2465,2928,0,3450,3857,0,0,186,0,0,0,0,0,0.096,3.685,9.172,0.042,0.040,-0.005,-0.723,2.279,19.613,-2.379,0.698,2.940,angry
5.03,2663,2675,3248,2604,3045,0,3482,3840,0,0,174,0,0,0,0,0,0.385,3.711,9.340,0.053,0.048,-0.010,2.212,4.128,14.344,0.378,-0.442,2.795,angry
5.04,2704,2743,3310,2687,3137,0,3482,3807,0,0,161,0,0,0,0,0,0.302,3.666,9.491,0.050,0.067,-0.029,3.982,4.621,10.118,1.336,-0.066,2.930,angry
5.05,2779,2811,3360,2768,3189,0,3445,3791,0,0,161,0,0,0,0,0,0.110,3.654,9.172,0.052,0.061,-0.030,5.969,3.024,7.851,2.026,-0.446,2.407,angry
5.06,2830,2869,3401,2850,3211,0,3390,3735,0,0,148,0,0,0,0,0,0.098,3.654,9.275,0.072,0.053,-0.013,8.698,1.367,8.104,2.850,-0.611,1.017,angry
5.07,2888,2901,3445,2901,3237,0,3341,3681,0,0,145,0,0,36,0,0,0.165,3.654,9.268,0.061,0.042,-0.013,7.647,0.836,8.851,3.276,-0.690,0.233,angry
5.08,2959,2916,3482,2955,3262,0,3275,3630,0,0,140,0,4,0,0,0,0.218,3.666,9.203,0.076,0.030,-0.022,4.202,-1.058,10.022,3.930,-1.403,-0.928,angry
5.09,3015,2943,3530,3017,3293,0,3229,3574,0,0,140,0,0,0,0,0,0.055,3.713,9.256,0.066,0.057,-0.025,1.999,-3.010,10.865,4.378,-1.538,-1.421,angry
5.10,3088,2996,3568,3085,3327,0,3164,3527,0,0,145,0,0,0,0,0,0.103,3.689,9.328,0.063,0.064,-0.024,0.807,-3.668,11.238,4.479,-1.599,-1.518,angry
5.11,3148,3025,3623,3141,3347,0,3070,3475,0,0,138,0,0,0,0,0,0.117,3.630,9.251,0.075,0.063,-0.026,-0.022,-4.329,13.453,4.538,-1.665,-1.654,angry
5.12,3186,3083,3670,3193,3376,0,2966,3387,0,0,143,0,0,0,0,20,0.129,3.704,9.213,0.067,0.072,-0.030,-0.388,-7.082,19.613,4.727,-1.867,-1.771,angry
5.13,3235,3157,3727,3255,3399,0,2774,3247,27,0,140,0,0,0,0,0,0.096,3.620,9.311,0.075,0.079,-0.022,0.457,-9.548,19.613,4.967,-1.844,-1.896,angry
5.14,3318,3302,3783,3344,3421,0,2542,2969,0,0,135,0,0,9,0,0,0.045,3.630,9.273,0.118,0.083,-0.010,-1.413,-17.660,16.312,4.556,-1.245,-2.109,angry
5.15,3375,3470,3842,3440,3422,0,2149,2171,0,25,135,0,0,0,39,0,0.158,3.615,9.313,0.162,0.080,0.010,-1.025,-19.613,7.889,3.040,-0.727,-1.166,angry
5.16,3482,3655,3892,3525,3211,0,1506,0,0,0,138,0,0,0,0,0,0.144,3.733,9.335,0.284,0.087,0.052,-2.830,-19.613,3.946,2.464,-1.355,-0.844,angry
5.17,3553,3781,3937,3627,2978,0,710,0,0,0,140,0,0,0,0,0,0.266,3.606,10.118,0.596,0.278,0.171,-2.569,-19.613,-12.031,-1.167,-1.546,-1.752,angry
5.18,3654,3849,3967,3695,2695,0,335,0,0,0,135,19,0,0,0,0,0.333,4.300,8.906,0.815,0.297,0.290,-3.124,-10.642,-6.452,-2.053,2.441,-0.101,angry
5.19,3735,3887,3997,3728,2359,0,479,0,30,0,238,0,0,0,0,856,0.572,2.576,9.347,1.563,0.230,0.571,-5.171,15.536,19.613,-1.903,3.375,1.202,angry
5.20,3837,3810,4000,3721,1882,0,402,0,0,1,130,0,0,0,701,2679,0.970,3.812,10.295,2.533,0.541,0.714,-6.534,-10.108,8.906,-4.487,1.002,2.064,angry
5.21,3899,3765,3975,3475,1503,0,389,0,0,0,227,0,0,0,2073,3575,1.585,5.057,9.486,3.273,0.989,0.655,-9.491,-8.001,19.613,0.094,0.671,-0.240,angry
5.22,3893,3536,3850,3138,1193,0,259,0,7,0,122,0,0,0,2391,3677,1.738,2.720,9.658,4.420,1.795,0.530,-5.320,2.152,19.613,-0.565,0.751,0.775,angry
5.23,3707,2817,3311,2343,0,0,0,0,0,0,145,879,616,0,2903,3751,0.036,4.092,17.226,6.106,1.374,-0.641,2.042,-2.823,9.900,-0.023,0.158,0.096,angry
5.24,2867,304,1735,539,0,0,0,0,2,594,2175,1187,858,5,3153,3812,-5.124,9.069,14.473,7.495,-1.367,-3.127,0.982,-3.012,10.116,0.023,0.110,0.098,angry
5.25,695,0,0,0,0,0,0,0,4,799,2602,1449,943,3,3307,3847,-1.051,9.900,19.613,5.493,-0.582,-3.091,1.132,-2.413,9.558,-0.008,0.065,0.108,angry
5.26,0,0,0,0,23,0,0,0,3,863,2725,1754,1093,4,3420,3868,7.688,2.277,19.613,2.608,-0.138,-3.428,0.982,-2.770,9.962,-0.022,0.077,0.112,angry
5.27,0,0,0,0,0,0,0,0,4,984,2815,1799,1205,4,3485,3884,8.672,-0.144,19.613,0.449,0.080,-1.918,0.733,-2.631,9.898,-0.023,0.091,0.085,angry
5.28,0,0,0,0,0,0,0,0,3,1033,2874,2002,1303,7,3535,3897,7.810,2.492,15.218,-0.559,0.056,-1.768,0.520,-2.646,9.984,0.001,0.096,0.066,angry
5.29,0,0,0,0,0,0,0,0,4,1163,2876,2143,1330,5,3574,3901,5.574,-1.956,12.632,-1.469,0.032,-1.586,0.814,-2.533,9.778,-0.003,0.107,0.040,angry
5.30,0,0,0,0,0,0,0,0,5,1165,3007,2158,1523,5,3602,3892,5.657,-1.870,7.314,-1.799,-0.343,-1.268,0.867,-2.512,9.855,-0.013,0.100,0.039,angry
5.31,0,0,0,0,0,0,0,0,7,1298,3027,2271,1595,19,3610,3875,5.452,-2.935,5.571,-1.752,-0.678,-0.958,0.967,-2.598,9.706,0.004,0.088,0.039,angry
5.32,0,0,0,0,0,0,0,0,21,1304,3078,2322,1621,9,3604,3863,5.310,-2.382,6.404,-1.829,-1.014,-0.511,0.860,-2.526,9.653,-0.032,0.086,0.055,angry
5.33,0,0,0,0,0,0,0,0,47,1379,3043,2461,1659,18,3565,3823,4.781,0.069,9.084,-2.370,-1.422,0.340,0.716,-2.559,9.850,-0.003,0.078,0.038,angry
5.34,0,0,0,0,0,0,0,0,51,1407,3045,2533,1688,31,3549,3801,3.527,0.706,9.151,-2.787,-1.516,0.779,0.642,-2.480,9.618,-0.008,0.059,0.043,angry
5.35,0,0,0,0,0,0,0,0,41,1384,3058,2599,1756,11,3528,3772,1.800,1.652,9.783,-3.172,-1.620,1.098,0.620,-2.500,9.730,-0.010,0.047,0.040,angry
5.36,0,0,0,0,0,0,0,0,55,1377,3058,2648,1781,18,3500,3747,-0.014,2.665,10.183,-3.525,-1.779,1.273,0.661,-2.521,9.871,-0.035,0.062,0.048,angry
5.37,0,0,0,0,0,0,0,0,87,1518,3163,2701,1896,25,3495,3676,-2.095,4.089,10.527,-4.001,-1.896,1.219,0.668,-2.660,9.778,-0.034,0.051,0.054,angry
5.38,0,0,0,0,0,0,0,0,110,1547,3201,2779,2004,30,3487,3640,-2.622,5.473,11.190,-4.200,-2.005,0.959,0.735,-2.583,9.639,-0.033,0.060,0.066,angry
5.39,0,0,0,0,0,0,0,0,117,1589,3242,2920,2269,30,3463,3509,-1.068,6.701,12.850,-4.086,-2.226,1.035,0.656,-2.595,9.802,-0.079,0.082,0.085,angry
5.40,0,0,0,0,0,0,0,0,205,1636,3268,3053,2535,43,3399,3495,0.077,9.620,17.183,-4.105,-2.204,1.272,0.611,-2.605,9.697,-0.080,0.077,0.073,angry
5.41,0,0,0,0,0,0,0,0,281,1673,3309,3109,2713,51,3306,3294,1.808,12.005,16.743,-4.181,-1.702,1.637,0.589,-2.629,9.914,-0.077,0.086,0.064,angry
5.42,0,0,0,0,0,0,0,0,390,1821,3350,3159,2991,53,3066,2943,-0.800,16.704,14.947,-3.417,-1.217,2.097,0.603,-2.552,9.735,-0.102,0.089,0.082,angry
5.43,0,0,0,0,0,0,0,0,478,2005,3416,3415,3096,53,2999,2630,1.312,19.613,6.541,-2.665,0.755,2.127,0.524,-2.756,9.799,-0.126,0.108,0.083,angry
5.44,0,0,0,0,0,0,0,0,847,2139,3427,3465,3161,53,2861,2396,-11.866,19.613,-5.605,-2.007,0.170,1.947,0.611,-2.945,9.998,-0.116,0.125,0.063,angry
5.45,0,0,0,0,0,0,0,684,1395,2288,3488,3603,3177,51,2605,1654,-11.636,19.613,-19.613,1.503,0.051,1.008,0.527,-2.854,9.488,-0.153,0.179,0.035,angry
5.46,0,0,0,0,0,0,447,2918,1821,2484,3498,3752,2973,47,2006,239,-7.788,-8.765,1.669,3.177,2.929,-1.290,0.807,-3.625,9.957,-0.187,0.144,0.020,angry
5.47,0,0,0,0,0,0,1103,3600,1971,2469,3524,3833,2779,37,1113,125,-0.792,7.247,-0.668,4.674,0.247,-0.896,0.740,-2.895,9.723,-0.211,0.135,0.011,angry
5.48,108,0,0,0,1706,0,2583,3613,2309,2617,3539,3890,1182,5,153,1,19.613,19.613,19.613,4.641,2.143,-1.547,1.403,-3.881,9.531,-1.202,0.248,-0.380,angry
5.49,1998,1407,1851,365,2336,0,2983,3622,2523,2127,3539,3955,71,5,85,1,0.350,6.965,6.902,-0.054,0.129,0.185,1.851,-0.876,10.391,-2.066,-0.789,-0.677,angry
5.50,2193,2107,2748,1165,2622,0,3152,3617,2575,1677,3501,3880,0,0,0,0,0.496,5.322,10.168,0.177,0.040,-0.050,-0.022,0.299,11.672,-3.171,-0.229,-0.709,angry
5.51,2268,2390,3007,1659,2822,0,3295,3702,2327,703,3429,3629,0,17,0,0,0.342,3.335,9.225,0.094,0.062,-0.094,-0.275,1.463,12.842,-5.438,0.922,-0.226,angry
5.52,2343,2654,3169,1981,2939,0,3370,3754,1391,0,2369,1956,0,0,0,1,0.340,3.601,9.218,0.083,0.056,-0.083,0.795,-4.334,19.613,-7.662,-0.220,1.850,angry
5.53,2443,2839,3293,2281,3085,0,3472,3792,676,0,197,664,0,0,0,0,0.328,3.895,9.421,0.079,0.006,-0.034,-1.362,-6.005,19.613,-7.357,0.254,2.855,angry
5.54,2514,2962,3392,2459,3175,0,3534,3815,0,0,179,0,0,0,37,0,0.124,3.560,9.287,0.083,-0.009,-0.015,2.765,-0.946,16.611,-3.371,0.818,3.066,angry
5.55,2593,3051,3446,2559,3292,0,3564,3815,0,0,161,0,0,0,0,0,0.393,3.790,9.299,0.064,0.023,-0.007,4.020,6.041,18.862,-0.054,-0.729,2.668,angry
5.56,2678,3114,3490,2637,3393,0,3568,3774,0,0,156,0,2,0,0,0,0.486,3.697,9.256,0.068,0.037,-0.028,5.674,1.930,10.257,0.974,-0.087,2.795,angry
5.57,2714,3155,3533,2692,3454,0,3536,3714,0,0,151,0,0,0,0,0,0.433,3.728,9.122,0.088,0.050,-0.039,6.847,2.612,6.155,1.654,-0.762,1.933,angry
5.58,2757,3193,3568,2771,3472,0,3486,3652,0,0,148,0,0,0,0,0,0.232,3.728,9.316,0.099,0.058,-0.031,8.037,1.769,6.359,2.218,-0.821,0.460,angry
5.59,2835,3214,3614,2821,3482,0,3387,3583,3,0,143,0,0,0,0,0,0.285,3.792,9.127,0.087,0.041,-0.026,6.041,1.106,8.212,2.591,-1.093,-0.262,angry
5.60,2891,3232,3647,2866,3490,0,3267,3510,0,0,61,0,0,0,0,0,0.395,3.761,9.242,0.094,0.045,-0.027,3.017,-0.218,8.775,3.430,-1.630,-1.158,angry
5.61,2971,3257,3690,2944,3493,0,3141,3411,0,0,135,0,0,0,0,0,0.309,3.824,9.187,0.092,0.071,-0.033,-0.273,-1.135,8.887,3.844,-1.665,-1.292,angry
5.62,3070,3265,3725,3029,3511,0,2986,3316,0,75,135,53,0,0,0,0,0.261,3.785,9.347,0.088,0.092,-0.031,-0.982,-1.841,9.821,3.928,-1.766,-1.211,angry
5.63,3129,3298,3770,3123,3514,0,2833,3186,0,0,138,0,3,1,0,0,0.189,3.809,9.210,0.076,0.089,-0.025,-2.947,-2.897,13.992,3.981,-2.021,-0.890,angry
5.64,3218,3343,3802,3200,3530,0,2693,3003,0,0,135,0,0,0,0,0,0.302,3.785,9.266,0.068,0.097,-0.022,-5.437,-5.377,17.588,3.867,-2.665,-0.350,angry
5.65,3239,3379,3830,3299,3522,0,2487,2673,0,0,135,0,0,0,0,0,0.201,3.809,9.239,0.070,0.103,-0.019,-6.529,-7.269,15.131,3.453,-2.711,0.154,angry
5.66,3323,3471,3863,3373,3468,0,2179,2073,0,35,99,3,0,0,0,0,0.223,3.845,9.213,0.099,0.119,-0.004,-7.829,-19.242,19.613,2.755,-3.054,1.571,angry
5.67,3408,3555,3868,3467,3255,0,1675,721,0,0,112,0,0,0,0,68,0.113,3.651,9.222,0.136,0.157,0.024,-8.887,-19.613,9.261,3.631,-2.886,1.997,angry
5.68,3497,3664,3927,3537,3006,0,900,0,0,0,120,4,0,0,0,0,0.230,3.414,9.716,0.320,0.223,0.094,-9.450,-19.613,-6.069,1.686,-0.606,2.090,angry
5.69,3543,3698,3941,3583,2864,0,687,0,0,0,140,0,0,0,0,0,0.235,3.407,9.256,0.468,0.274,0.131,-15.842,-19.613,-2.832,0.300,-0.343,1.659,angry
5.70,3628,3731,3961,3657,2522,0,178,0,0,0,135,0,0,0,0,0,-0.069,3.797,9.527,0.847,0.329,0.366,-5.655,-19.613,-5.162,-0.936,3.194,1.302,angry
5.71,3699,3667,3973,3689,2105,0,62,0,0,0,130,0,0,3,1231,2091,0.888,3.127,9.402,1.237,0.220,0.548,-9.979,9.189,-3.539,-2.860,0.189,0.106,angry
5.72,3751,3466,3958,3614,1349,0,0,0,0,0,140,0,0,0,2109,2615,0.764,3.108,9.414,1.940,0.531,0.686,-5.425,-19.613,19.613,-1.671,0.938,0.779,angry
5.73,3762,3233,3882,3147,861,0,64,0,0,51,442,489,21,0,2350,3256,1.765,4.379,10.930,3.035,0.666,0.548,3.881,1.465,7.815,-0.266,0.907,0.467,angry
5.74,3702,2637,3655,2681,410,0,78,0,4,819,2927,2273,414,4,2583,3383,1.401,4.551,10.925,3.661,0.931,0.278,0.663,-3.086,10.185,-0.225,0.351,0.256,angry
5.75,3245,1737,2957,1658,0,0,60,0,5,883,3086,2723,467,3,2745,3427,0.376,5.727,13.965,4.862,0.026,-0.465,0.455,-3.316,10.329,-0.166,0.334,0.092,angry
5.76,2295,0,944,161,0,0,16,0,37,1193,3212,3047,543,9,2920,3507,0.496,12.462,14.875,5.819,0.501,-1.352,0.263,-2.892,9.737,-0.027,0.180,0.015,angry
5.77,0,0,13,0,0,0,112,0,160,1143,3329,3243,1001,39,2919,3509,3.670,3.400,19.613,2.429,1.638,-1.462,0.515,-3.012,9.531,-0.026,0.059,0.021,angry
5.78,0,0,0,0,0,0,48,0,270,1241,3437,3317,1216,47,2957,3476,3.938,0.690,15.543,0.298,1.531,0.242,0.575,-2.610,9.625,-0.042,0.072,0.025,angry
5.79,0,0,0,0,0,0,27,0,504,1309,3391,3479,1755,54,2989,3375,3.519,-1.444,9.670,-0.760,1.297,0.621,0.639,-2.835,9.692,-0.016,0.091,0.026,angry
5.80,0,0,0,0,0,0,3,0,783,1439,3411,3564,2231,52,3035,3221,1.949,-1.073,7.690,-1.396,1.224,1.021,0.622,-2.816,9.761,0.000,0.050,0.025,angry
5.81,0,0,0,0,0,0,0,0,858,1586,3252,3627,2206,52,3033,3160,1.393,-0.488,8.016,-1.667,1.096,1.197,0.570,-2.863,9.845,-0.010,0.031,0.021,angry
5.82,0,0,0,0,0,0,43,0,889,1659,3416,3653,2227,51,3025,3093,1.970,0.821,7.896,-2.407,1.170,1.491,0.539,-2.861,9.838,-0.003,0.022,0.016,angry
5.83,0,0,0,0,0,0,103,0,1007,1722,3350,3635,2321,51,3029,2971,2.365,2.207,7.805,-2.936,1.539,1.781,0.532,-2.794,9.742,0.044,0.029,0.021,angry
5.84,0,0,0,0,0,0,113,0,1039,1779,3416,3704,2431,51,3029,2914,2.698,4.125,8.296,-3.314,1.691,2.102,0.498,-2.787,9.716,0.041,0.019,0.027,angry
5.85,0,0,0,0,0,0,130,0,1001,1723,3416,3695,2491,51,3038,2904,3.733,5.875,9.316,-3.534,1.784,2.415,0.553,-2.780,9.787,0.051,0.009,0.032,angry
5.86,0,0,0,0,19,0,179,0,967,1851,3419,3699,2653,47,3093,3000,6.436,8.042,11.001,-3.788,1.975,2.845,0.627,-2.828,9.687,0.062,0.018,0.044,angry
5.87,0,0,0,0,142,0,235,0,829,1837,3508,3669,2741,51,3189,3124,12.005,10.953,9.639,-4.009,2.798,3.745,0.443,-2.667,9.498,0.054,0.004,0.045,angry
5.88,0,0,0,0,211,0,223,0,807,1751,3403,3662,2761,81,3227,3188,18.148,16.228,5.653,-3.715,3.569,5.923,0.419,-2.662,9.718,0.074,0.026,0.048,angry
5.89,0,0,0,0,278,0,240,0,779,1718,3519,3601,2859,52,3309,3319,19.613,19.613,2.768,-2.512,3.845,8.731,0.524,-2.684,9.481,0.029,0.019,0.064,angry
5.90,0,0,0,0,564,0,221,0,811,1654,3396,3561,2840,55,3379,3421,12.151,19.613,-0.807,-1.488,4.174,8.731,0.462,-2.677,9.716,0.020,0.006,0.060,angry
5.91,0,0,0,0,670,0,213,0,811,1768,3396,3473,2867,53,3433,3419,2.919,19.613,2.715,-0.429,2.837,8.731,0.541,-2.682,9.869,0.001,0.013,0.052,angry
5.92,0,0,0,0,782,0,360,0,653,1853,3386,3243,2751,51,3439,3499,-19.613,4.702,2.938,0.790,-0.435,7.734,0.584,-2.682,9.723,-0.029,0.001,0.065,angry
5.93,0,767,1319,0,1262,0,448,0,635,1718,3350,3023,2568,52,3310,3499,-3.809,12.412,2.085,0.606,0.043,2.175,0.510,-2.758,9.752,-0.016,-0.023,0.058,angry
5.94,142,2448,2891,576,1991,0,751,0,555,1762,3163,2889,2419,52,3231,3493,5.090,13.276,7.049,-0.673,0.050,0.880,0.596,-2.832,9.828,0.006,-0.026,0.058,angry
5.95,1424,2992,3276,1255,2209,0,909,0,345,1485,3242,2464,1820,51,2873,3493,3.227,2.567,9.256,-0.239,-0.334,-0.337,0.656,-2.844,9.886,0.067,0.030,0.072,angry
5.96,2020,3216,3471,1970,2794,0,1117,0,190,1319,3165,1941,1020,41,2653,3656,-0.915,-1.891,11.303,-0.183,0.202,-0.355,-0.189,-2.801,9.876,0.117,0.090,0.099,angry
5.97,2276,3059,3517,2236,3071,0,2451,2559,121,1195,2997,1590,731,25,2387,3561,-0.007,3.795,9.584,-0.215,0.290,-0.294,-0.601,-2.806,10.439,0.094,0.020,0.258,angry
5.98,2221,2772,3439,2273,2886,0,2908,3264,79,5,1179,711,477,3,1799,3557,0.103,3.361,9.400,-0.059,0.190,-0.151,-9.009,-1.185,10.197,0.142,-0.174,1.188,angry
5.99,2146,2803,3261,2091,2844,0,3117,3479,0,0,189,0,0,0,566,3347,0.012,3.642,9.232,-0.100,0.069,-0.093,-19.613,-3.519,10.290,0.645,-0.973,5.145,angry
6.00,2069,2856,3122,1985,2964,0,3291,3610,0,0,184,18,0,0,0,3110,0.625,3.622,9.254,-0.075,-0.003,-0.081,-19.613,-12.701,13.257,1.523,-1.206,8.208,angry
6.01,2064,2864,3071,2065,3046,0,3375,3719,0,0,156,0,0,0,0,2108,0.836,3.680,9.160,-0.051,0.050,-0.058,-13.532,-19.613,16.276,1.810,-1.306,8.731,angry
6.02,2078,2849,3070,2047,3086,0,3388,3778,0,0,151,0,0,29,0,916,0.522,3.644,9.299,0.005,0.083,-0.015,-0.321,-19.127,0.886,1.420,-2.341,8.731,angry
6.03,2123,2832,3070,2082,3066,0,3370,3815,0,0,145,0,0,0,0,813,0.292,3.630,9.182,0.038,0.065,-0.003,2.430,-17.174,2.655,0.411,-2.888,8.731,angry
6.04,2117,2797,3103,2175,3062,0,3344,3826,0,0,140,0,0,0,0,506,0.419,3.670,9.313,0.060,0.067,-0.005,9.914,-13.472,7.185,0.232,-0.078,6.495,angry
6.05,2160,2704,3125,2323,3088,0,3306,3825,0,0,140,0,0,0,0,245,0.271,3.675,9.304,0.086,0.084,-0.003,4.221,-7.731,6.187,-0.625,-0.223,3.507,angry
6.06,2240,2645,3171,2456,3082,0,3270,3840,0,41,130,0,0,0,0,255,0.098,3.723,9.285,0.071,0.098,-0.011,2.059,-6.687,8.444,-0.763,-0.189,2.865,angry
6.07,2271,2611,3213,2559,3093,0,3275,3841,0,0,161,0,0,0,0,47,0.206,3.639,9.325,0.047,0.072,-0.006,-1.640,-4.300,10.022,-0.677,0.045,2.425,angry
6.08,2306,2559,3248,2656,3105,0,3263,3835,17,0,135,0,30,0,0,41,0.053,3.661,9.278,0.037,0.057,-0.001,-3.498,-3.081,9.864,-0.758,-0.051,2.792,angry
6.09,2345,2523,3278,2730,3088,0,3280,3824,0,0,135,10,0,12,0,48,0.117,3.627,9.301,0.065,0.048,-0.007,-2.981,-3.565,10.944,-0.645,-0.147,3.121,angry
6.10,2415,2608,3317,2805,3135,0,3287,3818,0,0,127,0,0,0,0,0,0.103,3.644,9.318,0.079,0.057,-0.027,-1.025,-3.737,10.032,-0.321,-0.102,3.539,angry
6.11,2501,2731,3362,2891,3167,0,3310,3799,0,0,130,0,0,0,5,0,-0.053,3.718,9.287,0.065,0.045,-0.013,1.621,-3.259,9.701,-0.229,0.006,3.609,angry
6.12,2596,2871,3408,2949,3182,0,3331,3791,0,0,0,0,0,0,0,0,0.034,3.711,9.328,0.056,0.020,0.003,3.189,-3.354,10.060,-0.117,-0.070,3.447,angry
6.13,2645,2971,3451,3005,3147,0,3366,3764,0,0,130,0,0,0,0,0,0.177,3.692,9.251,0.055,0.017,0.004,5.255,-3.555,10.317,0.216,0.030,2.795,angry
6.14,2686,3070,3489,3041,3190,0,3387,3735,0,0,115,0,0,0,0,0,0.213,3.680,9.270,0.063,0.025,-0.000,4.465,-3.855,9.687,0.411,-0.240,2.219,angry
6.15,2753,3147,3533,3071,3227,0,3393,3699,0,0,120,0,0,0,0,0,0.127,3.699,9.266,0.059,0.035,0.006,4.159,-3.740,8.861,0.409,-0.442,2.053,angry
6.16,2810,3216,3574,3126,3221,0,3404,3632,0,0,222,0,0,0,0,0,0.101,3.539,9.232,0.069,0.039,0.015,2.679,-3.989,8.681,0.269,-0.752,2.001,angry
6.17,2899,3289,3627,3138,3237,0,3386,3523,0,0,125,0,0,0,3,0,0.041,3.579,9.313,0.107,0.046,0.008,2.717,-4.161,7.659,0.068,-1.479,2.175,angry
6.18,3024,3363,3691,3248,3266,0,3331,3251,0,0,74,0,0,0,0,0,0.165,3.718,9.388,0.128,0.086,-0.006,3.505,-4.216,6.814,-0.088,-1.742,2.239,angry
6.19,3147,3440,3734,3319,3259,0,3198,2695,0,0,122,0,0,0,13,0,0.055,3.718,9.254,0.152,0.096,-0.002,5.219,-4.767,5.646,-0.438,-2.028,2.104,angry
6.20,3250,3513,3791,3409,3244,0,2985,2097,0,0,125,0,0,0,0,1,0.254,3.812,9.352,0.204,0.132,0.044,5.289,-4.642,3.625,-1.094,-2.508,1.698,angry
6.21,3335,3583,3825,3482,3198,0,2639,1280,0,0,104,0,0,0,0,0,0.038,3.541,9.165,0.247,0.209,0.105,5.878,-5.195,5.088,-1.491,-2.879,1.430,angry
6.22,3408,3650,3867,3553,3150,0,1652,0,0,0,145,0,19,0,9,0,0.151,3.859,9.340,0.330,0.241,0.162,-19.613,-3.160,19.613,-0.820,-0.199,-0.553,angry
6.23,3447,3667,3877,3603,3053,0,1081,0,0,0,120,0,0,0,1053,1621,0.682,4.513,9.388,0.612,0.323,0.342,-8.248,-1.604,12.804,-0.596,0.092,0.263,angry
6.24,3476,3615,3884,3598,2546,0,768,0,0,0,130,0,0,0,1398,2237,1.776,4.085,9.282,0.934,0.397,0.433,8.215,-2.382,2.260,-0.084,0.409,0.099,angry
6.25,3511,3402,3871,3427,1871,0,591,0,0,0,135,0,0,0,1802,2923,0.577,3.440,9.026,1.279,0.336,0.393,2.066,-3.584,10.192,-0.159,0.000,0.172,angry
6.26,3554,3280,3813,3261,1350,0,348,0,0,0,806,917,0,0,2077,3241,0.524,3.330,9.773,1.772,0.535,0.462,0.515,-3.053,10.120,0.081,0.076,0.076,angry
6.27,3509,2814,3582,3011,602,0,346,0,0,0,1297,1237,198,0,2410,3363,3.917,6.311,12.416,1.712,1.620,0.150,0.294,-2.025,9.823,0.024,0.130,0.091,angry
6.28,3365,1167,2750,2511,0,0,340,0,2,483,2572,1802,761,4,2814,3541,4.494,5.909,10.985,1.846,2.721,-0.373,0.512,-2.787,9.950,0.002,0.011,0.075,angry
6.29,2506,0,639,511,0,0,266,0,2,885,2879,2007,1079,3,3189,3661,4.448,7.242,15.656,1.253,3.741,-2.556,0.733,-2.449,9.675,0.027,-0.024,0.043,angry
6.30,0,0,0,0,0,0,145,0,4,1211,2963,2167,1448,4,3349,3711,10.688,9.646,18.191,-0.274,5.830,-2.138,0.560,-2.389,9.728,-0.003,-0.045,0.037,angry
6.31,0,0,0,0,0,0,68,0,11,1673,3048,2359,1979,0,3544,3711,13.994,3.898,7.053,-1.175,3.526,2.612,0.584,-2.509,9.867,-0.041,-0.014,0.022,angry
6.32,0,0,0,0,0,0,60,0,43,1861,3158,2527,2195,0,3627,3665,4.640,3.766,4.408,0.080,3.052,3.734,0.543,-2.562,9.826,-0.028,-0.007,0.027,angry
6.33,0,0,0,0,0,0,112,0,34,1913,3171,2611,2339,13,3647,3602,4.175,4.089,8.157,0.311,1.929,4.057,0.371,-2.480,9.847,-0.017,-0.019,0.027,angry
6.34,0,0,0,0,0,0,92,0,39,1967,3176,2709,2443,139,3671,3475,2.552,3.134,9.448,-0.058,1.518,3.935,0.474,-2.464,9.914,-0.026,0.009,0.027,angry
6.35,0,0,0,0,0,0,106,0,52,1915,3258,2713,2605,17,3673,3290,-0.388,1.547,9.258,-0.559,0.903,3.312,0.567,-2.507,9.874,-0.043,-0.016,0.020,angry
6.36,0,0,0,0,0,0,105,0,50,1957,3288,2776,2715,17,3671,3259,-0.582,1.623,10.597,-1.137,0.395,2.397,0.453,-2.629,9.826,-0.014,0.013,0.020,angry
6.37,0,0,0,0,0,0,96,0,59,2007,3296,2790,2760,19,3673,3219,0.594,2.296,10.709,-1.936,0.212,1.589,0.486,-2.574,9.675,0.004,0.007,0.014,angry
6.38,0,0,0,0,0,0,80,0,77,1991,3309,2799,2809,21,3683,3229,1.537,2.701,9.819,-2.252,0.000,1.338,0.500,-2.433,9.831,-0.004,-0.008,0.013,angry
6.39,0,0,0,0,0,0,72,0,57,2003,3324,2823,2925,51,3670,3189,4.439,4.372,9.407,-2.518,-0.308,1.405,0.512,-2.607,9.850,-0.020,-0.001,0.019,angry
6.40,0,0,0,0,0,0,54,0,42,2151,3345,2886,3048,13,3668,3183,5.861,5.878,9.474,-2.611,-0.348,1.996,0.527,-2.555,9.792,-0.001,0.019,0.007,angry
6.41,0,0,0,0,0,0,43,0,63,2181,3345,2925,3092,22,3665,3195,5.715,7.144,10.125,-2.617,-0.525,2.763,0.512,-2.504,9.790,-0.001,0.016,0.012,angry
6.42,0,0,0,0,0,0,21,0,211,2247,3368,2976,3174,35,3662,3171,4.053,8.887,11.875,-2.626,-0.585,3.295,0.448,-2.547,9.790,-0.013,0.013,0.022,angry
6.43,0,0,0,0,0,0,20,0,137,2330,3386,3019,3272,47,3627,3083,2.375,9.251,11.677,-2.702,-0.497,3.439,0.541,-2.533,9.799,-0.022,0.020,0.022,angry
6.44,0,0,0,0,0,0,22,0,152,2381,3396,3017,3325,38,3571,3076,0.881,9.182,11.088,-2.516,-0.368,3.188,0.512,-2.550,9.859,-0.031,0.023,0.028,angry
6.45,0,0,0,0,0,0,0,0,159,2457,3421,3068,3420,39,3480,2963,-0.488,10.293,12.687,-2.287,-0.475,2.619,0.496,-2.433,9.752,-0.049,0.019,0.034,angry
6.46,0,0,0,0,0,0,0,0,152,2484,3375,3069,3512,39,3321,2813,-2.430,10.226,10.704,-2.469,-0.866,1.918,0.517,-2.535,9.795,-0.075,0.016,0.038,angry
6.47,0,0,0,0,0,0,0,0,127,2525,3465,3111,3557,29,3325,2729,-4.820,9.021,7.415,-2.037,-1.191,1.041,0.414,-2.646,9.809,-0.074,0.018,0.044,angry
6.48,0,0,0,0,0,0,0,0,242,2591,3560,3161,3608,45,3247,2218,-4.942,10.199,4.815,-1.286,-1.178,0.638,0.400,-2.634,9.828,-0.063,0.035,0.052,angry
6.49,0,0,0,0,0,0,0,0,277,2695,3386,3275,3701,47,3309,2015,-6.081,15.404,3.994,-0.770,-0.574,0.314,0.785,-3.577,10.027,0.047,0.058,0.131,angry
6.50,0,0,0,0,0,0,0,0,341,2797,3511,3319,3705,51,3244,1645,-6.230,14.933,-1.942,-0.309,-0.296,0.066,0.165,-2.224,9.785,-0.085,0.079,0.096,angry
6.51,0,0,0,0,0,0,0,0,426,2803,3411,3419,3545,53,3077,555,-5.306,13.204,-1.149,1.029,-0.289,0.036,0.297,-2.461,9.507,-0.100,0.046,0.086,angry
6.52,0,0,0,0,0,0,54,1011,1063,2921,3547,3509,3419,30,2797,221,-1.958,9.081,9.187,1.385,4.490,0.509,0.611,-2.715,9.826,-0.103,-0.015,0.098,angry
6.53,0,0,0,0,0,0,580,3177,1117,2999,3557,3564,3339,47,2431,291,-17.277,-11.521,6.261,2.514,1.566,0.460,0.472,-2.670,9.850,-0.074,-0.047,0.120,angry
6.54,0,0,0,0,0,0,917,3610,1625,3161,3396,3603,3027,5,797,0,-8.792,13.838,19.613,4.115,0.172,-1.152,0.905,-2.229,10.400,-0.715,-0.094,-0.062,angry
6.55,0,0,0,0,695,0,2435,3734,1950,3275,3580,3557,2005,4,918,0,5.425,6.519,12.845,2.074,0.276,-0.454,0.761,-2.976,9.507,-0.966,-0.087,-0.098,angry
6.56,669,0,0,0,1897,0,2946,3747,1951,3235,3580,3527,1525,47,814,0,3.840,3.062,8.449,0.374,0.922,-0.457,0.907,-1.836,9.895,-1.249,-0.149,-0.205,angry
6.57,1424,341,637,0,2253,0,3143,3789,1957,2727,3506,3239,1612,5,507,0,0.713,5.679,10.381,0.385,0.122,-0.223,-0.354,-1.403,12.002,-3.684,-0.085,-0.465,angry
6.58,1675,914,1472,262,2449,0,3265,3856,1510,1381,3524,1066,1067,0,0,0,0.091,4.017,9.560,0.096,0.140,-0.131,1.961,0.958,17.016,-6.969,-1.030,-0.618,angry
6.59,1827,1242,1959,218,2621,0,3371,3904,1363,157,2700,605,969,0,0,0,0.213,3.601,9.464,-0.010,0.086,-0.047,1.769,-5.203,19.613,-8.490,-1.964,-0.201,angry
6.60,1872,1470,2254,731,2717,0,3453,3930,678,0,232,0,0,0,0,0,0.395,3.644,9.359,-0.015,0.086,-0.022,2.133,-17.121,15.869,-8.731,-3.387,0.782,angry
6.61,1904,1744,2446,944,2790,0,3502,3953,0,0,181,0,0,0,0,0,0.283,3.503,9.359,0.029,0.063,-0.001,8.509,-8.303,14.825,-4.727,-0.827,2.597,angry
6.62,1898,1900,2602,1216,2860,0,3533,3951,0,0,350,0,0,0,0,0,0.414,3.644,9.474,0.018,0.075,-0.008,0.022,-7.906,19.613,-1.108,0.991,3.422,angry
6.63,1909,2011,2703,1372,2975,0,3566,3951,0,27,151,0,0,0,0,0,0.409,3.572,9.246,0.019,0.072,-0.023,1.592,0.453,9.807,1.830,-0.096,3.122,angry
6.64,1872,2093,2774,1392,3024,0,3557,3946,0,0,145,0,0,0,0,0,0.177,3.642,9.440,0.011,0.062,-0.013,5.179,2.892,5.447,2.396,-0.164,3.131,angry
6.65,1767,2139,2799,1342,3059,0,3572,3947,0,0,140,0,0,7,0,19,0.127,3.632,9.448,0.000,0.033,0.012,8.068,1.460,7.427,2.623,0.017,2.704,angry
6.66,1717,2147,2793,1230,3067,0,3575,3932,0,0,140,0,0,0,23,0,0.180,3.536,9.333,-0.009,0.018,0.017,10.118,-0.017,7.973,2.986,0.353,1.908,angry
6.67,1585,2151,2805,1053,3091,0,3572,3920,0,0,138,0,0,0,1,0,0.385,3.321,9.227,0.022,0.030,-0.003,8.672,-1.942,8.758,3.786,0.088,0.006,angry
6.68,1626,2309,2879,1310,3134,0,3572,3914,0,0,110,0,0,0,0,0,0.436,3.510,9.340,0.074,0.041,-0.042,6.266,-3.768,8.729,4.231,-0.732,-1.505,angry
6.69,1778,2503,2995,1578,3179,0,3573,3893,0,0,135,0,0,0,0,0,0.263,3.531,9.318,0.082,0.053,-0.046,5.011,-4.831,9.246,4.426,-0.814,-1.884,angry
6.70,1839,2559,3118,1758,3217,0,3581,3874,0,0,115,0,0,88,0,0,0.218,3.388,9.275,0.105,0.060,-0.059,1.863,-6.069,10.381,4.608,-0.808,-1.975,angry
6.71,1968,2704,3245,2038,3280,0,3575,3839,0,0,135,0,0,0,0,0,0.283,3.546,9.359,0.116,0.046,-0.060,0.113,-6.187,12.673,4.441,-1.179,-1.674,angry
6.72,2192,2918,3346,2420,3343,0,3568,3811,0,0,133,5,0,1,0,0,0.306,3.680,9.433,0.130,0.035,-0.054,-0.084,-6.780,15.385,4.381,-1.570,-1.522,angry
6.73,2319,3044,3426,2649,3399,0,3562,3771,0,0,99,0,0,0,0,0,0.158,3.551,9.278,0.119,0.018,-0.039,2.409,-12.093,19.613,4.887,-1.735,-1.674,angry
6.74,2461,3164,3495,2830,3453,0,3521,3713,0,0,135,0,0,57,0,0,0.180,3.584,9.227,0.133,0.001,-0.029,-0.244,-19.613,14.150,4.865,-0.952,-2.087,angry
6.75,2659,3255,3583,2992,3536,0,3473,3649,0,0,48,0,0,0,0,0,0.366,3.685,9.321,0.133,0.018,-0.018,-2.100,-19.613,10.132,4.323,-0.618,-1.826,angry
6.76,2814,3383,3713,3192,3615,0,3337,3474,0,0,253,0,0,0,0,0,0.417,3.397,9.297,0.184,0.041,-0.001,-4.604,-19.613,0.795,2.702,-0.981,-0.946,angry
6.77,3061,3614,3792,3283,3670,0,3042,3097,0,0,135,0,24,0,0,0,0.292,3.658,9.414,0.230,0.083,0.015,-4.250,-19.613,-6.460,0.382,-0.529,-0.722,angry
6.78,3224,3779,3862,3430,3664,0,2604,1117,0,0,133,0,0,0,0,0,0.474,3.905,10.029,0.293,0.200,0.040,-5.322,-19.613,-11.770,-2.524,0.117,-1.020,angry
6.79,3386,3912,3923,3532,3318,0,1251,0,0,0,120,0,0,0,3,435,0.163,2.370,9.598,0.643,0.247,0.115,-0.960,11.995,19.613,-0.932,3.304,1.052,angry
6.80,3568,4006,4009,3547,2640,0,612,0,0,0,107,0,1,0,381,2652,1.697,3.919,9.481,1.577,0.362,0.438,-5.248,-1.985,6.517,-4.435,0.557,1.850,angry
6.81,3664,3935,3975,3567,2119,0,446,0,0,0,69,0,0,0,1123,3273,1.056,1.714,8.595,2.928,0.248,0.731,4.829,-13.496,18.720,-3.463,0.243,0.934,angry
6.82,3747,3622,3951,3255,1746,0,389,0,0,0,0,0,0,0,2222,3640,0.575,2.442,9.527,3.675,0.452,0.493,-3.757,-15.234,18.411,0.564,1.745,0.561,angry
6.83,3712,3310,3792,2659,1058,0,129,0,0,0,112,0,185,0,2685,3787,5.210,5.871,16.949,5.153,0.923,0.362,-0.261,-2.337,10.137,-0.133,0.500,0.129,angry
6.84,3055,2367,3024,1619,0,0,0,0,0,0,115,0,443,35,2937,3833,-0.939,5.109,19.613,7.674,-1.084,-0.857,1.286,-3.713,10.590,0.048,0.260,0.100,angry
6.85,1830,0,496,0,0,0,0,0,0,25,145,0,648,0,3229,3903,-1.750,13.750,19.606,8.731,-0.635,-2.980,1.219,-2.586,9.898,0.087,0.129,0.042,angry
6.86,0,0,0,0,0,0,0,0,0,27,156,0,724,0,3340,3931,3.867,11.499,19.613,4.536,0.644,-2.911,1.142,-2.507,8.540,0.051,0.035,0.056,angry
6.87,0,0,0,0,0,0,0,0,0,121,667,0,761,0,3420,3950,2.617,2.729,15.234,2.478,0.768,-2.940,1.006,-2.744,9.926,0.061,0.041,0.031,angry
6.88,0,0,0,0,0,0,0,0,0,31,319,0,827,0,3575,3967,6.689,-4.168,19.613,0.216,0.250,-2.086,0.764,-2.658,9.819,0.083,0.038,-0.012,angry
6.89,0,0,0,0,0,0,0,0,0,13,591,0,916,0,3541,3981,6.383,-0.323,13.436,-0.550,-0.013,-2.062,0.649,-2.346,9.998,0.076,0.031,-0.031,angry
6.90,0,0,0,0,0,0,0,0,7,31,1080,0,997,0,3571,3987,5.416,-3.759,13.125,-1.264,-0.264,-1.848,0.903,-2.456,9.742,0.057,0.025,-0.026,angry
6.91,0,0,0,0,0,0,0,0,0,59,1568,0,1055,0,3589,4005,6.033,-2.433,9.266,-1.673,-0.579,-1.504,1.046,-2.413,9.754,0.051,0.067,-0.006,angry
6.92,0,0,0,0,0,0,0,0,0,31,1533,0,1014,0,3575,3982,6.132,-2.686,8.674,-2.022,-0.848,-1.063,0.790,-2.591,9.886,0.056,0.056,0.017,angry
6.93,0,0,0,0,0,0,0,0,0,426,1609,0,931,0,3576,3976,6.831,-1.360,8.440,-2.382,-0.983,-0.502,0.893,-2.267,9.598,0.044,0.043,0.018,angry
6.94,0,0,0,0,0,0,0,0,0,381,1456,0,949,0,3581,3981,6.426,-0.184,8.468,-2.740,-1.072,0.080,0.642,-2.207,9.682,0.013,0.035,0.023,angry
6.95,0,0,0,0,0,0,0,0,0,379,1781,0,1097,1,3655,3951,5.174,0.903,8.617,-3.083,-1.178,0.597,0.654,-2.346,9.550,0.003,0.053,0.019,angry
6.96,0,0,0,0,0,0,0,0,0,455,1876,0,1124,53,3571,3896,3.761,2.009,8.923,-3.396,-1.301,0.972,0.611,-2.375,9.876,-0.001,0.076,0.033,angry
6.97,0,0,0,0,0,0,0,0,0,61,1983,0,1191,0,3564,3912,2.308,3.091,9.670,-3.697,-1.422,1.192,0.759,-2.310,9.706,-0.009,0.107,0.047,angry
6.98,0,0,0,0,0,0,0,0,1,623,2065,11,1227,1,3556,3883,1.226,4.295,10.266,-3.975,-1.526,1.283,0.704,-2.327,9.785,-0.029,0.124,0.069,angry
6.99,0,0,0,0,0,0,0,0,1,627,2065,95,1255,3,3549,3859,-0.010,5.363,11.119,-4.250,-1.637,1.273,0.821,-2.227,9.531,-0.054,0.146,0.099,angry
7.00,0,0,0,0,0,0,0,0,3,716,2011,426,1403,3,3543,3827,-0.613,5.892,11.270,-4.401,-1.806,1.224,0.752,-2.222,9.546,-0.089,0.160,0.132,angry
7.01,0,0,0,0,0,0,0,0,3,1007,2526,788,1653,5,3539,3765,-0.869,6.299,11.691,-4.441,-1.966,1.172,0.642,-2.160,9.622,-0.138,0.134,0.169,angry
7.02,0,0,0,0,0,0,0,0,5,1135,2682,1140,1763,6,3516,3732,-0.874,6.838,12.910,-4.396,-2.058,1.152,0.730,-2.315,9.780,-0.162,0.161,0.210,angry
7.03,0,0,0,0,0,0,0,0,1,1273,2915,1617,1909,12,3517,3675,-0.462,8.246,15.313,-4.349,-2.147,1.214,0.579,-2.380,9.787,-0.190,0.192,0.226,angry
7.04,0,0,0,0,0,0,0,0,71,1687,3130,2156,2451,20,3399,3428,1.453,10.537,17.420,-4.410,-1.870,1.503,0.560,-2.315,9.716,-0.241,0.157,0.196,angry
7.05,0,0,0,0,0,0,0,0,0,1829,3201,2581,2700,27,3356,3177,2.919,16.917,15.062,-4.154,-0.778,1.935,0.445,-2.526,9.649,-0.271,0.140,0.204,angry
7.06,0,0,0,0,0,0,0,0,213,2270,3365,3043,3051,42,3123,2653,-0.876,19.613,17.549,-3.581,-0.797,2.577,0.350,-2.562,9.869,-0.181,0.118,0.102,angry
7.07,0,0,0,0,0,0,0,0,860,2380,3432,3356,3181,51,2973,2103,-2.674,19.613,-1.106,-3.481,0.498,3.061,0.606,-2.782,9.864,-0.195,0.141,0.074,angry
7.08,0,0,0,0,240,0,0,0,1032,2555,3478,3463,3370,51,2775,1417,-19.613,19.613,-15.553,-1.474,0.113,1.223,0.326,-2.995,9.749,-0.202,0.131,0.071,angry
7.09,0,0,0,0,0,0,69,1366,1483,2661,3508,3665,3399,18,2205,87,-5.071,19.613,-19.613,3.800,0.905,0.610,0.498,-3.110,9.486,-0.052,0.088,0.054,angry
7.10,0,0,0,0,0,0,1167,3402,2105,2792,3478,3847,2769,31,603,123,-14.638,-10.946,19.613,5.187,1.715,-1.203,0.505,-1.195,9.663,-0.285,0.077,-0.007,angry
7.11,0,0,0,0,0,0,1677,3719,2221,2961,3557,3881,2109,25,299,90,-5.315,19.613,17.427,4.658,1.643,-2.400,0.373,-3.294,8.916,-0.967,0.239,-0.318,angry
7.12,0,0,0,0,1849,0,2896,3797,2444,2999,3572,3895,603,3,277,1,19.613,19.613,19.613,0.047,4.111,-1.496,2.009,-2.241,9.163,-1.823,-0.516,-0.495,angry
7.13,1397,943,1210,0,2384,0,3092,3682,2455,2187,3549,3887,219,1,264,3,2.052,5.535,9.191,0.783,0.111,-0.218,-0.261,-1.041,9.986,-4.265,0.226,-0.806,angry
7.14,1851,2071,2624,864,2750,0,3313,3715,2315,1427,3595,3801,167,17,9,7,1.101,5.552,9.852,0.090,0.219,-0.131,0.096,1.365,11.358,-5.951,1.001,-0.444,angry
7.15,2047,2489,3017,1692,2993,0,3448,3782,1447,361,2979,2467,0,0,0,0,0.223,4.171,9.404,0.185,0.057,-0.108,1.743,-5.804,19.613,-8.731,-0.290,1.358,angry
7.16,2209,2783,3247,2095,3124,0,3567,3819,124,0,174,115,51,0,26,0,0.316,3.824,9.618,0.094,0.017,-0.045,0.697,-15.716,19.613,-8.731,-1.175,3.753,angry
7.17,2323,2966,3366,2386,3274,0,3611,3808,0,0,151,0,0,0,0,0,0.453,3.721,9.239,0.090,0.055,-0.036,1.659,-12.426,19.613,-2.481,1.085,4.449,angry
7.18,2420,3086,3439,2593,3361,0,3614,3773,0,0,145,0,38,0,0,0,0.208,3.761,9.342,0.046,0.052,-0.026,7.405,1.082,19.613,-0.505,-1.106,2.406,angry
7.19,2479,3149,3495,2672,3450,0,3581,3713,0,0,120,0,0,0,0,0,0.407,3.701,9.366,0.058,0.052,-0.024,8.475,3.946,7.609,1.419,0.184,2.192,angry
7.20,2496,3188,3520,2733,3472,0,3555,3655,0,0,140,0,0,0,0,0,0.448,3.859,9.395,0.056,0.048,-0.022,7.345,3.689,5.631,1.468,0.362,1.550,angry
7.21,2499,3223,3536,2775,3485,0,3520,3647,0,9,181,0,0,0,0,0,0.373,3.766,9.340,0.067,0.044,-0.019,7.494,3.215,5.198,1.545,-0.227,0.786,angry
7.22,2544,3266,3571,2816,3489,0,3440,3541,0,0,120,0,0,0,0,0,0.194,3.699,9.330,0.071,0.039,-0.024,8.341,1.082,7.817,2.083,-0.813,-0.685,angry
7.23,2593,3294,3600,2879,3489,0,3329,3473,0,0,102,0,0,0,0,0,0.160,3.754,9.261,0.063,0.037,-0.024,7.508,0.342,8.602,2.585,-0.772,-1.322,angry
7.24,2644,3322,3632,2923,3520,0,3181,3409,0,0,120,0,0,0,0,0,0.292,3.610,9.285,0.074,0.035,-0.027,3.910,-1.245,9.886,3.581,-0.866,-2.106,angry
7.25,2721,3353,3665,2985,3547,0,3089,3329,0,0,120,0,0,0,0,0,0.340,3.713,9.232,0.099,0.033,-0.029,1.448,-3.476,11.698,4.493,-1.251,-2.212,angry
7.26,2814,3402,3703,3040,3565,0,3024,3234,0,0,181,0,0,0,0,0,0.261,3.795,9.290,0.077,0.056,-0.026,0.412,-4.125,11.653,4.845,-1.354,-2.081,angry
7.27,2934,3439,3738,3130,3583,0,2989,3143,0,0,258,0,0,0,0,0,0.201,3.757,9.292,0.072,0.078,-0.035,-1.298,-4.973,11.612,5.071,-1.568,-1.567,angry
7.28,3062,3486,3773,3194,3619,0,2894,3011,0,0,120,0,0,0,0,0,0.177,3.771,9.222,0.088,0.077,-0.038,-0.900,-5.885,15.936,4.881,-2.119,-0.989,angry
7.29,3170,3517,3823,3289,3638,0,2779,2741,0,0,0,0,36,0,0,0,0.170,3.709,9.210,0.089,0.074,-0.030,1.362,-8.164,19.613,4.992,-2.409,-0.887,angry
7.30,3278,3583,3839,3362,3639,0,2629,1968,0,0,115,0,0,0,0,0,0.158,3.725,9.287,0.144,0.103,-0.037,3.230,-18.146,19.613,5.127,-2.327,-1.981,angry
7.31,3376,3666,3895,3439,3539,0,2302,721,0,0,115,0,0,0,0,0,0.333,3.974,9.723,0.145,0.183,-0.023,1.077,-19.613,19.613,4.998,-1.628,-2.318,angry
7.32,3491,3782,3952,3539,3346,0,1535,0,0,0,120,0,0,0,0,0,0.472,4.276,9.498,0.332,0.196,0.047,-6.081,-19.613,2.768,3.239,-0.748,-2.406,angry
7.33,3618,3892,3978,3639,3056,0,743,0,0,0,117,0,0,0,0,0,0.120,3.112,9.189,0.511,0.307,0.102,-10.422,-19.613,-11.155,0.167,0.202,-1.464,angry
7.34,3758,3979,4012,3711,2774,0,503,0,0,0,294,0,0,0,0,24,0.395,3.448,9.376,1.053,0.181,0.379,-8.490,-14.365,-17.775,-2.473,2.310,-0.054,angry
7.35,3858,4007,4036,3734,2277,0,417,0,0,0,110,0,0,0,215,1561,0.883,2.265,9.287,1.836,0.094,0.695,-4.168,16.530,19.613,-2.265,3.855,2.319,angry
7.36,3943,3865,4037,3712,1776,0,429,0,0,3,104,0,19,0,1235,3091,1.990,2.878,11.643,3.389,0.412,0.932,-3.534,-9.778,8.478,-4.116,1.649,2.304,angry
7.37,3962,3605,3969,3373,1586,0,375,0,0,0,127,0,94,0,2469,3653,2.263,2.928,9.067,4.939,1.158,0.679,-7.647,8.217,-10.843,-0.517,2.495,0.766,angry
7.38,3827,3173,3610,2438,247,0,0,0,0,0,110,0,252,0,2715,3701,1.765,3.938,19.613,7.565,-0.141,0.099,2.782,-4.154,4.101,-0.015,0.746,-0.049,angry
7.39,2559,1154,2169,560,0,0,0,0,2,9,1200,1081,589,1,3093,3771,-8.780,16.226,19.613,8.731,-2.315,-2.562,0.479,-2.354,10.331,-0.014,0.238,0.147,angry
7.40,0,0,0,0,0,0,0,0,3,555,2730,1769,967,4,3333,3833,3.474,14.399,19.613,7.361,-1.310,-3.004,0.759,-1.975,9.239,-0.004,0.081,0.091,angry
7.41,0,0,0,0,0,0,0,0,2,603,2899,1815,1486,3,3474,3763,7.417,12.493,19.613,2.478,0.437,-3.604,1.132,-2.526,9.488,-0.084,0.034,0.117,angry
7.42,0,0,0,0,0,0,0,0,3,743,2984,1976,1725,3,3545,3836,9.014,-1.437,19.613,-0.203,-0.090,-1.880,0.869,-2.744,10.891,-0.138,0.014,0.095,angry
7.43,0,0,0,0,0,0,0,0,55,921,3058,2181,1940,75,3575,3833,5.499,-4.956,12.574,-1.568,0.183,-2.066,0.766,-2.550,10.101,-0.007,0.170,0.055,angry
7.44,0,0,0,0,0,0,0,0,3,1127,3078,2405,2190,5,3604,3773,5.677,-3.689,9.515,-2.013,-0.769,-1.516,0.764,-2.306,9.799,-0.039,0.137,0.050,angry
7.45,0,0,0,0,0,0,0,0,26,1253,2904,2523,2321,10,3514,3727,7.008,-3.017,7.987,-2.240,-1.162,-0.945,0.953,-2.342,9.481,-0.071,0.115,0.062,angry
7.46,0,0,0,0,0,0,0,0,86,1397,3232,2697,2475,23,3451,3511,7.140,-0.316,8.622,-2.994,-1.116,0.145,0.560,-2.519,9.833,-0.136,0.070,0.101,angry
7.47,0,0,0,0,0,0,0,0,99,1445,3232,2799,2535,26,3383,3399,4.082,1.896,9.831,-3.826,-1.273,1.102,0.546,-2.631,9.797,-0.119,0.048,0.095,angry
7.48,0,0,0,0,0,0,0,0,120,1417,3337,2871,2543,31,3297,3274,2.320,3.141,9.761,-4.308,-1.300,1.398,0.572,-2.569,10.027,-0.114,0.065,0.083,angry
7.49,0,0,0,0,0,0,0,0,139,1523,3416,2970,2697,33,3051,2971,-0.670,4.860,9.558,-4.796,-1.462,1.375,0.493,-2.629,9.771,-0.106,0.067,0.070,angry
7.50,0,0,0,0,0,0,0,0,263,1607,3322,3157,2814,0,2825,2613,-1.690,6.936,10.719,-5.013,-1.857,1.031,0.536,-2.624,9.756,-0.121,0.081,0.075,angry
7.51,0,0,0,0,0,0,0,0,281,1683,3365,3208,2887,47,2749,2515,-0.199,8.018,11.926,-5.075,-2.125,0.890,0.575,-2.562,9.809,-0.114,0.103,0.076,angry
7.52,0,0,0,0,0,0,0,0,435,1830,3416,3357,2991,51,2575,2267,1.547,9.651,15.033,-4.861,-2.278,1.185,0.560,-2.816,9.790,-0.097,0.120,0.067,angry
7.53,0,0,0,0,0,0,0,0,519,1850,3424,3486,3093,41,2495,1813,5.033,14.794,19.613,-4.914,-2.073,1.749,0.261,-2.983,9.814,-0.075,0.152,0.054,angry
7.54,0,0,0,0,0,0,0,0,1010,2019,3488,3563,3116,21,2439,1395,3.675,19.613,19.613,-4.923,-1.173,2.672,0.448,-2.880,9.706,-0.045,0.173,0.054,angry
7.55,0,0,0,0,0,0,0,0,1294,2229,3508,3705,3124,48,2189,615,0.532,19.613,11.155,-4.505,-1.192,3.446,0.534,-2.746,9.658,-0.005,0.119,0.070,angry
7.56,0,0,0,0,416,0,0,0,1439,2253,3516,3775,3035,41,1819,181,-9.558,19.613,-8.803,-2.566,0.154,3.041,0.749,-3.134,9.306,0.005,0.086,0.068,angry
7.57,0,0,0,0,688,0,11,0,1889,2471,3547,3897,2967,20,615,73,-19.613,19.613,-12.862,-0.581,-1.442,0.795,0.304,-2.890,9.859,-0.124,0.050,0.044,angry
7.58,0,0,0,0,0,0,398,1889,2291,2641,3575,3968,2323,25,555,87,-1.252,19.613,-19.613,2.607,3.241,-0.530,0.127,-3.010,9.831,-0.618,0.277,-0.223,angry
7.59,0,0,0,0,0,0,1414,3583,2532,2710,3580,3947,1747,2,540,1,-13.384,-1.865,19.613,7.320,-0.635,0.229,1.274,-1.935,9.215,-0.956,0.059,-0.416,angry
7.60,0,0,0,0,0,0,2078,3826,2855,2773,3595,4012,723,8,229,13,0.546,19.613,19.613,3.840,1.457,-1.705,1.551,-0.690,9.450,-1.713,-0.479,-0.497,angry
7.61,0,0,0,0,1791,0,3071,3816,2676,2057,3708,4007,167,5,179,2,9.737,19.613,19.613,2.975,3.404,-2.233,0.931,-0.022,11.145,-4.134,0.143,-0.837,angry
7.62,1272,1232,694,0,2559,0,3329,3761,2247,1021,3636,3791,0,0,0,0,-1.053,4.424,11.741,0.831,0.646,-0.511,1.097,3.012,12.730,-7.798,1.451,-0.229,angry
7.63,1811,2139,2634,555,2937,0,3486,3817,1656,329,3268,3275,0,0,0,0,0.096,3.711,9.409,0.282,0.303,-0.253,2.593,-2.895,19.613,-8.731,1.230,0.908,angry
7.64,2128,2559,3083,1674,3139,0,3561,3841,426,0,186,875,0,0,0,0,0.259,4.034,9.548,0.278,0.149,-0.173,-5.124,-4.487,19.613,-8.731,-0.959,4.146,angry
7.65,2375,2755,3299,2277,3285,0,3621,3854,0,0,156,0,0,0,0,0,0.359,4.053,9.371,0.132,0.098,-0.088,8.334,-8.859,19.422,-3.535,0.463,4.824,angry
7.66,2595,2864,3419,2651,3393,0,3639,3835,0,0,153,0,0,0,0,8,0.187,3.776,9.206,0.085,0.118,-0.060,0.929,-19.613,19.613,-0.445,-0.095,3.718,angry
7.67,2736,2970,3491,2842,3472,0,3583,3769,0,0,153,0,0,0,0,0,0.175,3.857,9.306,0.044,0.103,-0.012,12.783,0.309,10.266,1.639,-0.573,2.627,angry
7.68,2819,3051,3557,2940,3489,0,3536,3679,0,0,133,0,0,0,0,0,0.441,3.594,9.330,0.078,0.067,-0.004,8.298,3.314,7.824,2.336,-0.040,2.126,angry
7.69,2863,3101,3583,2992,3457,0,3421,3575,0,0,130,0,0,0,7,0,0.393,3.757,9.330,0.060,0.082,-0.021,7.116,1.712,6.577,2.798,-1.029,0.419,angry
7.70,2911,3136,3616,3027,3426,0,3274,3491,0,0,7,0,0,0,0,0,0.302,3.752,9.282,0.064,0.080,-0.031,6.579,0.402,7.391,3.235,-1.448,-1.085,angry
7.71,2937,3145,3640,3057,3407,0,3155,3439,0,0,112,0,0,0,0,0,0.136,3.809,9.242,0.058,0.069,-0.026,5.112,-0.927,9.371,3.665,-1.414,-1.704,angry
7.72,3007,3163,3658,3120,3390,0,2921,3333,0,0,271,0,0,0,0,0,0.180,3.776,9.187,0.064,0.050,-0.029,0.776,-2.191,10.147,4.568,-1.417,-2.183,angry
7.73,3067,3184,3695,3155,3391,0,2854,3262,0,0,99,0,0,0,0,0,0.347,3.757,9.273,0.049,0.058,-0.018,-0.912,-2.871,10.355,4.830,-1.404,-2.024,angry
7.74,3147,3200,3723,3222,3429,0,2831,3182,0,0,120,0,0,0,0,0,0.251,3.742,9.230,0.061,0.077,-0.016,-2.090,-4.865,11.887,5.117,-1.836,-1.551,angry
7.75,3219,3225,3767,3292,3483,0,2769,3105,53,0,135,0,0,0,0,0,0.141,3.804,9.239,0.059,0.093,-0.019,-1.223,-6.127,13.829,5.094,-2.148,-1.244,angry
7.76,3308,3275,3803,3374,3534,0,2700,2976,0,0,120,0,0,0,0,0,0.170,3.785,9.311,0.070,0.097,-0.018,-0.534,-6.577,16.257,5.043,-2.399,-1.231,angry
7.77,3397,3344,3847,3441,3582,0,2591,2647,0,0,120,0,0,0,0,0,0.122,3.747,9.256,0.081,0.090,-0.003,3.840,-13.367,19.613,5.389,-2.368,-1.630,angry
7.78,3488,3457,3898,3520,3523,0,2297,1712,0,0,7,0,0,0,0,0,0.225,3.783,9.349,0.106,0.101,0.016,0.098,-19.613,16.647,4.870,-1.750,-2.348,angry
7.79,3575,3633,3935,3600,3371,0,1799,0,0,0,117,0,0,0,0,0,0.170,3.745,9.395,0.188,0.123,0.046,-1.051,-19.613,8.918,3.886,-1.564,-2.272,angry
7.80,3679,3747,3978,3689,3183,0,976,0,0,0,115,0,0,0,0,0,0.366,3.584,9.364,0.392,0.252,0.107,-5.291,-19.613,-2.885,2.058,-1.801,-2.149,angry
7.81,3778,3863,4015,3749,2891,0,387,0,0,0,117,0,73,0,0,0,-0.271,3.189,8.947,0.739,0.296,0.260,-6.821,-19.613,-19.613,-2.573,-0.829,-3.058,angry
7.82,3856,3924,4032,3788,2496,0,470,0,0,0,115,0,0,0,0,0,0.515,2.859,8.638,1.303,0.175,0.492,-3.656,-19.613,-19.613,-3.789,1.868,-1.924,angry
7.83,3952,3907,4049,3798,2129,0,400,0,0,0,104,0,0,0,456,2215,0.105,2.461,10.283,2.203,0.154,0.731,-19.613,-1.080,10.503,-7.349,-1.858,-0.769,angry
7.84,3995,3703,4031,3733,1579,0,370,0,0,0,71,0,0,0,1745,3549,0.929,1.961,8.076,4.029,0.681,0.902,10.391,-13.317,19.613,-4.318,0.932,1.786,angry
7.85,3977,3583,3935,3315,1215,0,249,0,0,0,89,0,0,0,2269,3747,0.520,2.727,8.351,5.645,0.762,0.511,14.078,-19.613,19.613,-1.569,4.970,0.912,angry
7.86,3643,3099,3513,2407,0,0,0,0,0,0,0,2,477,0,2761,3837,4.128,8.265,19.613,7.748,-0.478,-0.094,0.577,-1.465,7.195,-0.154,0.619,0.220,angry
7.87,2306,401,1776,551,0,0,0,0,3,503,2326,1096,747,3,3037,3865,-4.235,9.876,19.613,8.731,-1.183,-3.532,0.187,-2.507,10.262,-0.157,0.280,0.212,angry
7.88,0,0,0,0,0,0,0,0,1,666,2677,1653,1001,3,3175,3871,3.603,12.799,19.613,7.301,-0.851,-3.779,1.207,-3.666,10.111,-0.015,0.182,0.119,angry
7.89,0,0,0,0,0,0,0,0,3,819,2851,1895,1319,5,3307,3918,5.313,13.187,18.833,3.537,0.822,-4.312,0.706,-2.284,9.548,-0.025,0.134,0.124,angry
7.90,0,0,0,0,0,0,0,0,0,889,2976,2101,1431,4,3389,3903,5.308,0.960,19.613,-0.410,-0.908,-1.843,1.166,-2.626,10.156,-0.038,0.124,0.127,angry
7.91,0,0,0,0,0,0,0,0,55,1045,2966,2315,1517,40,3465,3919,8.416,1.702,14.183,-1.140,-0.570,-2.114,0.632,-3.007,9.950,-0.039,0.130,0.111,angry
7.92,0,0,0,0,0,0,0,0,55,1123,3084,2601,1767,21,3512,3885,5.813,-2.006,8.598,-2.067,-0.727,-1.478,0.563,-2.634,9.862,-0.020,0.116,0.038,angry
7.93,0,0,0,0,0,0,0,0,141,1172,3142,2667,1806,27,3443,3807,5.638,-1.721,7.525,-2.702,-1.219,-0.528,0.745,-2.612,9.737,-0.004,0.113,0.028,angry
7.94,0,0,0,0,0,0,0,0,137,1279,3150,2745,1735,35,3381,3695,4.961,-0.074,8.179,-3.240,-1.374,0.455,0.709,-2.523,9.565,-0.046,0.083,0.040,angry
7.95,0,0,0,0,0,0,0,0,132,1312,3173,2911,1611,35,3222,3675,2.296,2.049,9.462,-4.115,-1.478,1.204,0.441,-2.641,9.749,-0.034,0.064,0.039,angry
7.96,0,0,0,0,0,0,0,0,103,1311,3183,3007,1623,37,3112,3543,-0.668,2.847,8.799,-4.711,-1.317,1.354,0.527,-2.679,9.682,-0.013,0.070,0.029,angry
7.97,0,0,0,0,0,0,0,0,214,1271,3191,3048,1647,45,2981,3468,-2.892,5.918,11.971,-5.188,-1.544,1.086,0.532,-2.629,9.764,-0.017,0.078,0.029,angry
7.98,0,0,0,0,0,0,0,0,255,1299,3222,3134,1823,19,2827,3349,-1.707,7.065,10.891,-5.446,-1.952,0.915,0.453,-2.650,9.826,-0.037,0.063,0.040,angry
7.99,0,0,0,0,0,0,0,0,422,1352,3227,3339,2009,0,2746,3256,0.323,8.320,12.866,-5.323,-1.930,1.170,0.565,-2.591,9.809,-0.050,0.077,0.039,angry
8.00,0,0,0,0,0,0,0,0,309,1365,3242,3232,2248,53,2792,3169,1.968,10.613,17.269,-4.882,-1.942,1.674,0.517,-2.650,9.802,-0.056,0.096,0.041,angry
8.01,0,0,0,0,0,0,0,0,719,1591,3337,3356,2680,52,2809,2796,8.899,19.613,19.613,-4.658,-1.120,2.431,0.472,-2.686,9.603,-0.049,0.152,0.050,angry
8.02,0,0,0,0,0,0,0,0,1033,1629,3365,3435,2823,45,2808,2719,0.886,19.613,13.951,-3.863,-0.956,3.301,0.441,-2.727,9.905,-0.058,0.172,0.049,angry
8.03,0,0,0,0,0,0,0,0,1362,1749,3416,3573,3005,59,2747,2386,-1.968,19.613,0.551,-3.424,0.002,3.741,0.527,-2.689,9.826,-0.058,0.186,0.045,angry
8.04,0,0,0,0,308,0,0,0,1577,1933,3467,3729,2975,51,2317,1554,-19.613,19.613,-15.098,-1.875,-0.908,2.063,0.342,-2.373,9.852,-0.123,0.066,0.019,angry
8.05,0,0,0,0,0,0,177,1325,2087,2211,3503,3877,2750,57,1139,255,-1.192,19.613,-19.613,3.946,0.113,0.798,0.199,-2.370,9.986,-0.213,0.058,-0.010,angry
8.06,0,0,0,0,0,0,1563,3523,2309,2329,3396,3933,2421,35,489,104,-16.951,-19.613,19.613,5.408,0.518,-0.285,0.848,-1.468,9.847,-0.636,0.018,-0.162,angry
8.07,0,0,0,0,415,0,2278,3807,2479,2203,3534,4077,725,28,1,47,-4.357,19.613,17.796,5.214,0.778,-1.923,2.856,-1.808,9.278,-1.583,-0.323,-0.585,angry
8.08,282,811,0,0,2499,0,3334,3765,2725,1503,3529,3997,0,0,0,0,-6.129,19.613,19.613,0.123,0.456,-0.110,1.070,-1.693,10.956,-3.434,-0.096,-0.870,angry
8.09,1796,2106,2037,210,2864,0,3469,3825,2751,1319,3529,3928,0,0,0,0,4.324,4.377,12.014,0.377,0.717,-0.272,4.228,-4.087,12.469,-4.510,1.092,-0.512,angry
8.10,2019,2481,2882,1116,3114,0,3522,3850,1821,27,3363,3355,0,0,0,0,0.740,3.915,8.882,0.244,0.239,-0.191,3.510,-1.408,19.613,-8.731,0.569,1.416,angry
8.11,2224,2723,3169,1939,3317,0,3600,3856,375,0,69,604,0,0,0,0,0.443,4.343,9.586,0.132,0.154,-0.154,-1.894,-5.303,19.125,-8.731,0.108,4.397,angry
8.12,2340,2903,3340,2281,3455,0,3664,3851,0,0,143,0,0,0,0,0,0.572,3.675,9.304,0.152,0.029,-0.077,1.458,-11.839,18.021,-6.615,0.069,4.107,angry
8.13,2417,3008,3436,2538,3539,0,3679,3820,0,0,135,0,0,0,0,0,0.283,3.548,9.608,0.142,-0.012,-0.041,4.192,-3.510,19.613,-1.563,-0.945,2.672,angry
8.14,2543,3119,3518,2708,3628,0,3648,3734,0,0,107,0,0,0,0,0,0.450,3.709,9.194,0.143,0.028,-0.041,7.173,2.251,9.222,0.793,-0.306,2.480,angry
8.15,2661,3210,3574,2896,3659,0,3568,3629,0,27,115,0,0,0,0,0,0.874,3.926,9.292,0.128,0.044,-0.046,7.417,1.065,6.749,1.174,-0.392,1.766,angry
8.16,2771,3276,3632,2941,3695,0,3465,3527,0,0,61,0,0,19,0,0,0.496,3.802,9.385,0.117,0.075,-0.047,7.558,1.496,4.958,1.771,-0.821,0.050,angry
8.17,2871,3341,3674,3024,3708,0,3317,3406,0,0,102,0,0,0,0,74,0.328,3.749,9.254,0.102,0.060,-0.043,4.602,0.431,7.230,2.401,-1.106,-1.288,angry
8.18,2960,3397,3712,3104,3720,0,3124,3298,0,0,110,0,0,0,0,0,0.283,3.929,9.282,0.102,0.041,-0.029,3.146,-0.376,8.317,2.884,-1.175,-1.644,angry
8.19,3042,3436,3743,3146,3722,0,3024,3171,0,0,117,0,0,0,0,0,0.438,3.800,9.191,0.089,0.040,-0.031,-0.414,-1.669,9.378,3.713,-1.329,-1.815,angry
8.20,3124,3488,3775,3201,3741,0,2933,2993,0,0,181,0,0,0,0,0,0.340,3.893,9.153,0.098,0.056,-0.032,-2.579,-2.497,8.933,4.037,-1.496,-1.463,angry
8.21,3194,3548,3811,3271,3735,0,2771,2726,0,0,110,0,0,0,0,0,0.330,3.900,9.196,0.094,0.075,-0.033,-2.638,-3.146,9.924,4.113,-1.548,-1.197,angry
8.22,3254,3583,3834,3316,3739,0,2655,2281,0,0,104,0,0,0,0,0,0.321,3.867,9.218,0.089,0.080,-0.030,-2.873,-3.879,13.321,4.472,-1.721,-0.678,angry
8.23,3296,3629,3859,3389,3725,0,2543,1914,0,0,115,0,0,0,0,13,0.388,3.867,9.222,0.083,0.090,-0.029,-4.223,-4.786,16.087,4.504,-2.283,-0.076,angry
8.24,3344,3661,3891,3446,3691,0,2382,1463,0,0,104,0,0,0,0,0,0.285,3.967,9.258,0.091,0.090,-0.023,-4.185,-6.668,17.624,4.445,-2.563,0.284,angry
8.25,3408,3691,3916,3494,3520,0,1986,398,0,0,110,0,0,0,0,0,0.280,3.879,9.105,0.130,0.103,-0.017,-5.588,-14.834,18.634,4.001,-2.821,0.889,angry
8.26,3441,3711,3945,3546,3415,0,1638,0,4,0,104,0,0,0,0,0,0.297,3.828,9.249,0.156,0.120,-0.004,-7.029,-19.613,11.260,2.829,-3.028,0.999,angry
8.27,3535,3758,3958,3609,3311,0,1111,0,0,0,104,0,0,0,0,0,0.429,3.824,9.270,0.229,0.159,0.033,-9.412,-19.613,8.961,2.631,-2.518,1.066,angry
8.28,3573,3798,3970,3637,3216,0,799,0,0,0,104,7,0,1,0,0,0.462,3.876,9.311,0.360,0.196,0.059,-11.667,-19.613,5.124,2.313,-1.973,0.828,angry
8.29,3632,3834,3986,3674,3068,0,475,0,0,0,104,0,0,0,0,0,0.290,4.008,9.184,0.454,0.301,0.096,-11.902,-16.984,-0.132,1.107,-0.846,0.523,angry
8.30,3710,3887,4006,3724,2813,0,475,0,0,0,102,33,0,0,0,0,0.445,3.419,9.091,0.820,0.299,0.294,-5.468,-8.229,-8.437,-0.613,4.052,1.346,angry
8.31,3771,3895,4019,3754,2606,0,373,0,0,0,194,0,2,0,477,902,0.029,3.503,9.258,1.131,0.241,0.424,3.091,19.613,19.613,-2.067,3.245,0.575,angry
8.32,3846,3824,4022,3719,2164,0,351,0,0,0,99,0,0,0,1350,2703,0.934,2.188,10.094,2.163,0.311,0.660,-12.088,-11.897,16.307,-3.295,1.256,1.674,angry
8.33,3901,3487,4003,3478,1703,0,381,0,0,0,104,0,0,0,2167,3339,0.606,3.021,8.595,3.206,0.496,0.698,12.201,-19.613,19.613,0.056,4.552,2.185,angry
8.34,3842,3349,3888,2893,1396,0,383,0,0,0,112,0,17,0,2523,3725,0.946,3.318,10.506,4.252,0.704,0.525,3.917,-2.710,7.365,-0.153,0.875,0.218,angry
