timestamp,L1,L2,L3,L4,L5,L6,L7,L8,R1,R2,R3,R4,R5,R6,R7,R8,acc_x_left,acc_y_left,acc_z_left,gyro_x_left,gyro_y_left,gyro_z_left,acc_x_right,acc_y_right,acc_z_right,gyro_x_right,gyro_y_right,gyro_z_right,mood
0.00,3146,2529,3312,3407,1235,0,1311,2559,1085,1507,2715,3749,877,47,2589,3528,0.031,3.699,9.335,0.043,0.026,-0.012,0.622,-2.777,9.704,0.004,0.023,0.018,angry
0.01,3142,2533,3313,3409,1243,0,1360,2591,1096,1496,2725,3685,887,47,2623,3538,0.089,3.740,9.285,0.041,0.025,-0.010,0.599,-2.717,9.732,0.007,0.021,0.017,angry
0.02,3141,2533,3306,3404,1246,0,1369,2609,1051,1447,2720,3726,902,47,2614,3540,0.024,3.747,9.266,0.042,0.028,-0.007,0.620,-2.701,9.747,0.010,0.020,0.013,angry
0.03,3138,2539,3311,3407,1254,0,1371,2630,1050,1459,2738,3731,925,47,2615,3543,0.074,3.699,9.328,0.043,0.027,-0.005,0.646,-2.725,9.761,0.008,0.023,0.020,angry
0.04,3136,2542,3303,3401,1259,0,1376,2641,956,1464,2735,3729,915,47,2636,3549,0.081,3.754,9.237,0.043,0.024,-0.009,0.642,-2.775,9.708,0.007,0.020,0.015,angry
0.05,3138,2542,3307,3399,1255,0,1396,2643,879,1427,2735,3793,922,50,2643,3631,0.077,3.747,9.222,0.048,0.023,-0.010,0.611,-2.689,9.735,0.004,0.021,0.016,angry
0.06,3134,2541,3309,3402,1264,0,1407,2652,907,1439,2741,3691,925,119,2641,3555,0.108,3.740,9.227,0.045,0.028,-0.009,0.630,-2.679,9.768,0.001,0.016,0.015,angry
0.07,3132,2529,3282,3397,1265,0,1399,2656,903,1462,2751,3735,937,50,2637,3559,0.074,3.747,9.285,0.044,0.028,-0.003,0.601,-2.713,9.697,0.007,0.021,0.017,angry
0.08,3135,2533,3300,3393,1264,0,1423,2671,895,1416,2751,3733,927,48,2635,3559,0.079,3.742,9.309,0.043,0.028,-0.007,0.673,-2.729,9.742,0.006,0.015,0.016,angry
0.09,3133,2527,3296,3389,1283,0,1426,2677,869,1438,2730,3729,947,51,2636,3560,0.050,3.733,9.285,0.044,0.026,-0.013,0.601,-2.705,9.713,0.007,0.020,0.017,angry
0.10,3138,2538,3298,3398,1264,0,1427,2701,789,1371,2695,3769,853,47,2613,3564,0.010,3.733,9.313,0.043,0.029,-0.008,0.594,-2.696,9.749,0.012,0.021,0.015,angry
0.11,3138,2534,3296,3402,1253,0,1422,2716,544,1233,2733,3692,775,48,2585,3572,-0.002,3.754,9.301,0.041,0.027,-0.010,0.603,-2.708,9.742,0.016,0.019,0.016,angry
0.12,3132,2523,3294,3403,1247,0,1382,2751,403,1046,2725,3661,659,48,2651,3567,0.101,3.687,9.313,0.037,0.029,-0.006,0.594,-2.708,9.814,0.032,0.016,0.014,angry
0.13,3083,2510,3270,3398,1156,0,1359,2815,204,691,2720,3531,587,41,2491,3579,0.105,3.917,9.187,0.032,0.031,-0.002,0.630,-2.720,9.723,0.041,0.007,0.009,angry
0.14,3071,2477,3237,3373,1010,0,1398,2898,202,583,2608,3239,437,41,2335,3603,0.019,3.795,9.268,0.019,0.030,-0.007,0.766,-2.306,9.651,0.007,0.032,-0.011,angry
0.15,2953,2329,3133,3283,943,0,1498,2996,179,425,2531,3043,249,38,2291,3620,0.041,3.773,9.309,-0.004,0.051,-0.009,0.627,-2.708,9.723,0.043,0.015,0.010,angry
0.16,2737,2165,3023,3182,905,0,1578,3086,149,147,2474,2783,207,27,2300,3643,0.026,3.651,9.330,0.016,0.042,-0.007,0.599,-2.581,9.737,0.036,0.015,0.010,angry
0.17,2639,2057,2976,3129,880,0,1700,3145,123,63,2454,2557,166,17,2183,3667,0.113,3.527,9.361,0.030,0.041,-0.005,0.627,-2.629,9.685,0.031,0.024,0.012,angry
0.18,2555,1974,2928,3099,832,0,1771,3194,27,20,2444,2428,154,3,2224,3677,0.043,3.701,9.323,0.027,0.038,-0.012,0.596,-2.693,9.692,0.030,0.017,0.006,angry
0.19,2475,1861,2881,3039,816,0,1783,3247,7,26,2428,2477,165,0,2221,3688,0.034,3.713,9.270,0.037,0.035,-0.008,0.601,-2.660,9.665,0.034,0.021,0.008,angry
0.20,2395,1685,2827,2973,848,0,1833,3243,0,0,2403,2456,153,0,2235,3699,0.067,3.723,9.242,0.027,0.045,-0.010,0.649,-2.646,9.730,0.035,0.023,0.014,angry
0.21,2310,1420,2742,2892,847,0,1846,3275,27,3,2413,2387,165,0,2267,3705,0.036,3.692,9.275,0.029,0.042,-0.014,0.589,-2.674,9.711,0.034,0.024,0.009,angry
0.22,2266,1094,2614,2800,837,0,1840,3297,0,1,2387,2409,182,3,2291,3721,0.069,3.704,9.280,0.034,0.043,-0.010,0.656,-2.622,9.685,0.039,0.023,0.010,angry
0.23,2258,986,2559,2800,752,0,1870,3312,0,0,2382,2039,116,0,2357,3743,0.117,3.608,9.321,0.054,0.030,-0.010,0.711,-2.540,9.716,0.045,0.010,-0.001,angry
0.24,2349,967,2608,2832,634,0,1852,3309,0,0,2387,2107,90,0,2375,3747,-0.026,3.697,9.323,0.062,0.027,-0.009,0.625,-2.591,9.749,0.039,0.011,0.005,angry
0.25,2381,1008,2633,2879,688,0,1791,3299,0,0,2408,2312,189,0,2477,3700,0.012,3.682,9.328,0.064,0.027,-0.011,0.716,-2.581,9.780,-0.042,0.030,0.039,angry
0.26,2437,1018,2641,2879,641,0,1649,3259,0,0,2446,2507,205,0,2571,3823,0.024,3.749,9.309,0.061,0.015,-0.004,0.613,-2.650,9.874,-0.013,0.025,0.026,angry
0.27,2368,907,2499,2721,587,0,1488,3212,5,0,2454,2585,295,0,2606,3797,0.074,3.713,9.402,0.060,-0.010,-0.002,0.596,-2.595,9.835,0.011,0.008,0.024,angry
0.28,2065,491,2043,2244,629,0,1177,3082,41,17,2472,2603,426,3,2715,3811,0.117,3.737,9.347,0.068,-0.025,0.001,0.706,-2.737,9.663,0.050,-0.010,0.014,angry
0.29,1808,384,1509,1730,499,0,685,2784,0,7,2505,2159,531,0,2845,3865,-0.321,3.115,8.578,0.165,-0.072,-0.009,0.711,-2.847,9.941,0.087,-0.055,-0.019,angry
0.30,1680,336,1018,1141,286,0,0,1535,0,37,2505,1915,559,0,2921,3868,0.010,3.256,9.232,0.219,-0.157,0.029,0.479,-2.933,10.534,0.111,-0.085,-0.062,angry
0.31,1501,398,911,477,0,0,0,0,0,9,2039,1203,748,0,3091,3931,-1.877,1.824,10.621,0.443,-0.412,-0.446,0.728,-2.672,9.831,0.176,-0.086,-0.049,angry
0.32,1363,160,511,322,0,0,0,0,0,0,0,667,876,33,3214,4011,2.452,2.610,10.223,1.229,-0.434,-0.791,1.444,-2.684,9.723,0.256,-0.114,-0.073,angry
0.33,1195,0,0,0,0,0,0,0,0,0,28,575,977,0,3275,4045,1.566,2.327,12.459,1.707,-0.787,-1.425,0.582,-2.365,9.737,0.192,-0.111,-0.092,angry
0.34,464,0,0,0,0,0,0,0,0,0,0,419,1067,0,3359,4071,2.083,1.293,14.260,1.642,-0.700,-1.814,0.855,-2.251,9.835,0.141,-0.081,-0.078,angry
0.35,16,0,0,0,0,0,0,0,0,0,0,217,1172,27,3421,4095,6.330,4.882,14.545,1.313,-0.547,-1.929,0.929,-2.339,9.756,0.092,-0.047,-0.041,angry
0.36,47,0,0,0,0,0,0,0,16,0,0,101,1245,0,3456,4095,7.077,1.365,16.644,0.225,-0.019,-1.672,0.934,-2.282,9.756,0.083,-0.044,-0.043,angry
0.37,81,0,0,0,0,0,0,0,0,0,0,47,1211,0,3485,4095,7.496,-1.353,11.569,-0.182,0.094,-1.351,0.857,-2.377,9.831,0.083,-0.044,-0.043,angry
0.38,109,0,0,0,0,0,0,0,0,0,0,0,1243,0,3510,4007,6.938,-2.346,9.833,-0.261,-0.170,-0.904,0.833,-2.248,9.807,0.062,-0.035,-0.025,angry
0.39,118,0,0,0,0,0,0,0,0,2,145,21,1236,0,3519,4095,6.694,-2.830,9.886,-0.384,-0.463,-0.455,0.840,-2.121,9.701,0.023,-0.003,0.006,angry
0.40,117,0,0,0,0,0,0,0,0,0,0,0,1231,0,3525,4095,6.153,-2.950,9.732,-0.596,-0.525,-0.029,0.903,-2.246,9.682,-0.013,0.021,0.018,angry
0.41,113,0,0,0,0,0,0,0,0,0,0,0,1132,0,3539,4095,4.650,-2.739,9.644,-0.791,-0.562,0.351,0.850,-2.322,9.826,-0.030,0.040,0.022,angry
0.42,52,0,0,0,0,0,0,0,0,5,0,0,1093,0,3379,4095,3.496,-1.817,10.192,-0.964,-0.650,0.702,0.903,-2.310,9.737,-0.046,0.045,0.033,angry
0.43,32,0,0,0,0,0,0,0,0,1,0,0,1082,0,3465,4095,2.382,-0.230,10.353,-1.256,-0.561,1.022,0.855,-2.368,9.754,-0.046,0.045,0.033,angry
0.44,16,0,0,0,0,0,0,0,39,6,0,0,1005,0,3391,4095,0.795,0.007,10.209,-1.396,-0.470,1.161,0.862,-2.349,9.740,-0.043,0.056,0.041,angry
0.45,38,0,0,0,0,0,0,0,0,7,0,0,1083,0,3417,4095,-1.003,0.364,9.847,-1.521,-0.392,1.178,0.792,-2.440,9.720,-0.045,0.084,0.056,angry
0.46,0,0,0,0,0,0,0,0,0,11,99,0,1055,0,3465,4095,-1.741,1.123,9.306,-1.572,-0.355,1.041,0.903,-2.456,9.833,-0.047,0.084,0.056,angry
0.47,11,0,0,0,0,0,0,0,9,3,0,0,1084,0,3455,4095,-1.018,2.433,8.294,-1.532,-0.246,0.866,0.819,-2.423,9.862,-0.043,0.113,0.056,angry
0.48,0,0,0,0,0,0,0,0,0,2,0,50,989,0,3455,4093,-0.338,3.984,6.132,-1.368,0.078,0.835,0.816,-2.452,9.862,-0.030,0.121,0.065,angry
0.49,0,0,0,0,0,0,0,0,0,0,0,157,997,0,3447,4095,-3.311,6.699,8.614,-1.012,-0.098,0.909,0.766,-2.373,9.833,-0.030,0.131,0.078,angry
0.50,0,0,0,0,0,0,0,0,0,0,53,285,1033,0,3464,4094,-4.283,10.072,10.010,-1.156,-0.309,0.856,0.654,-2.308,9.881,-0.030,0.131,0.078,angry
0.51,0,0,0,0,0,0,0,0,0,0,74,355,983,3,3462,4095,-4.566,11.339,7.793,-1.315,-0.119,0.613,0.637,-2.363,9.675,-0.031,0.141,0.086,angry
0.52,0,0,0,0,0,0,0,0,0,1,481,612,1094,0,3469,4092,-5.040,12.076,4.324,-1.171,0.193,0.302,0.812,-2.409,9.699,-0.021,0.159,0.111,angry
0.53,0,0,0,0,0,0,0,0,0,1,980,717,1093,0,3449,4094,-2.488,19.613,-4.183,-0.294,0.302,0.405,0.670,-2.109,9.622,-0.037,0.233,0.202,angry
0.54,0,0,0,0,0,0,0,855,0,0,1870,1061,1189,0,3537,4095,-9.735,18.591,-1.154,0.593,1.247,-0.178,0.713,-1.587,9.562,-0.202,0.236,0.205,angry
0.55,0,0,0,0,0,0,0,2042,0,0,2449,1772,1259,0,3431,4067,-3.757,19.613,-3.548,2.202,0.153,0.177,0.591,-2.049,9.941,-0.286,0.261,0.221,angry
0.56,0,0,0,0,0,0,0,2677,0,11,2572,2403,1463,370,3405,4095,0.994,15.998,19.613,0.818,1.656,-0.814,0.206,-2.210,9.941,-0.286,0.261,0.221,angry
0.57,0,0,0,0,0,0,634,3203,355,741,2843,2995,1989,47,2943,3775,-0.287,-5.466,0.472,1.229,0.662,-0.474,0.508,-2.526,9.955,-0.276,0.143,0.086,angry
0.58,2,0,0,0,316,0,1566,3458,933,1250,3027,3366,1553,53,1635,1991,-13.036,19.613,19.613,4.761,-2.428,0.025,0.634,-2.988,9.694,-0.326,-0.029,0.014,angry
0.59,1315,0,90,285,959,0,2110,3660,1653,1464,3022,3481,916,45,742,814,0.089,8.219,16.640,-0.025,0.381,-0.220,1.185,0.369,9.433,-1.821,-0.224,-0.286,angry
0.60,1712,91,1328,1872,1134,0,2675,3762,2599,1671,3145,3671,29,0,0,279,0.093,3.663,9.907,0.070,0.172,-0.127,3.644,-3.000,9.819,-2.249,-0.620,-0.532,angry
0.61,1994,689,2410,2511,1393,80,2969,3815,2924,723,3022,3652,0,0,6,55,0.124,3.859,9.608,0.026,0.074,-0.030,3.591,-2.569,13.434,-3.288,0.272,-0.445,angry
0.62,2251,1269,2785,2821,1925,310,3136,3839,2811,0,2751,3501,0,0,0,0,0.421,3.567,9.309,0.020,0.075,-0.030,2.346,-2.248,10.266,-4.606,1.415,0.975,angry
0.63,2462,1493,3055,3023,2229,1200,3237,3841,2075,0,1737,2133,2,0,0,0,0.294,3.608,9.321,0.026,0.044,0.004,6.852,-4.281,19.613,-8.012,1.686,2.319,angry
0.64,2559,1821,3202,3135,2379,1597,3283,3844,0,0,0,30,0,0,0,0,0.362,3.699,9.479,0.020,0.092,-0.008,6.876,-10.266,19.613,-4.998,2.761,2.818,angry
0.65,2640,1931,3300,3220,2527,1646,3295,3833,0,0,0,0,0,0,0,0,0.153,3.572,9.373,0.036,0.086,-0.014,18.447,6.591,18.308,-2.375,3.779,2.611,angry
0.66,2695,2117,3365,3271,2602,752,3236,3779,0,0,0,0,0,0,0,0,0.134,3.610,9.424,0.054,0.062,-0.006,14.660,7.513,16.106,-0.036,0.757,-0.400,angry
0.67,2737,2234,3419,3311,2515,0,3108,3693,0,0,0,0,0,0,9,0,0.180,3.467,9.402,0.069,0.043,-0.004,9.201,8.528,12.560,2.378,0.201,-1.319,angry
0.68,2749,2311,3451,3319,2447,0,2999,3633,0,0,0,0,0,0,0,0,0.148,3.551,9.378,0.091,0.023,-0.007,6.531,8.351,9.459,2.842,-0.436,-1.464,angry
0.69,2771,2357,3479,3335,2385,0,2861,3549,0,0,0,0,0,0,0,0,0.110,3.579,9.361,0.091,0.029,-0.017,4.654,6.280,9.732,3.154,-1.090,-1.447,angry
0.70,2797,2451,3508,3345,2320,0,2730,3461,0,0,0,0,0,0,0,0,0.002,3.608,9.371,0.085,0.042,-0.022,3.749,3.905,11.162,3.575,-1.578,-1.357,angry
0.71,2832,2559,3495,3374,2307,0,2373,3335,45,0,0,0,18,0,0,0,0.038,3.553,9.208,0.087,0.045,-0.041,3.007,1.326,12.186,4.109,-1.982,-1.290,angry
0.72,2896,2658,3615,3421,2437,0,2178,3221,0,0,0,0,0,0,0,0,0.103,3.737,9.436,0.082,0.077,-0.053,1.401,-2.217,12.390,4.847,-2.066,-1.109,angry
0.73,2926,2725,3670,3494,2623,0,2135,3085,0,0,0,0,0,0,0,0,0.218,3.831,9.335,0.094,0.086,-0.049,1.025,-5.248,14.863,5.155,-2.281,-0.848,angry
0.74,2973,2817,3739,3583,2768,0,2146,2918,0,0,0,0,0,0,0,0,0.010,3.622,9.519,0.094,0.171,-0.056,2.674,-6.325,16.278,5.106,-2.444,-0.938,angry
0.75,3043,3013,3810,3692,2910,0,2016,2158,0,0,0,0,0,0,0,0,0.010,3.445,9.352,0.128,0.217,-0.047,7.192,-11.815,16.589,4.644,-2.133,-1.978,angry
0.76,3212,3167,3869,3778,2929,0,1731,622,0,0,0,0,0,71,0,0,-0.043,3.505,9.455,0.147,0.230,-0.041,0.043,-19.613,17.068,3.106,-2.145,-3.431,angry
0.77,3376,3326,3934,3850,2783,0,1239,0,0,0,0,0,0,0,0,0,0.031,3.500,9.912,0.328,0.149,-0.002,-2.801,-19.613,11.353,2.535,-2.093,-3.909,angry
0.78,3552,3482,3984,3919,2254,0,295,0,0,0,0,0,0,0,0,0,0.711,4.130,8.006,0.588,0.107,0.169,-8.902,-19.613,-5.586,0.865,-0.345,-2.567,angry
0.79,3662,3546,4013,3949,1906,0,202,0,0,0,0,0,0,0,0,0,-0.453,3.290,9.512,0.829,0.055,0.354,-11.636,-19.613,-8.260,-1.353,-0.986,-2.186,angry
0.80,3828,3562,4023,3968,1220,0,301,0,0,9,0,0,0,0,0,0,0.438,2.998,8.871,1.541,-0.011,0.692,0.903,-7.175,-7.400,-2.041,3.441,-0.391,angry
0.81,3903,3421,4034,3984,1050,0,246,0,0,0,0,0,0,0,325,1706,0.555,2.195,9.402,2.105,-0.235,0.937,-14.681,19.613,19.613,-2.664,4.124,1.391,angry
0.82,3964,3052,4013,3958,922,0,155,0,0,0,0,0,0,0,263,3175,0.472,2.792,8.724,3.531,0.331,1.197,-19.613,6.364,8.135,-5.415,-1.570,0.172,angry
0.83,3989,2617,3900,3809,126,0,0,0,0,0,0,0,0,43,1679,3835,1.290,3.857,6.359,5.140,1.360,0.969,18.160,-17.743,19.613,-3.390,-0.308,1.120,angry
0.84,3891,1929,3489,3127,0,0,0,0,0,0,0,0,0,0,2541,3957,-3.452,7.705,19.613,7.772,0.482,0.055,-11.904,4.199,14.973,0.072,3.087,1.061,angry
0.85,3686,784,2841,2640,0,0,0,0,0,0,0,23,118,0,2712,3992,-4.700,5.622,19.613,8.718,-1.826,-2.159,1.575,-3.225,9.685,0.382,1.730,0.476,angry
0.86,2000,0,197,0,0,0,0,0,0,26,1420,311,447,1,2952,4024,-1.532,16.108,16.326,8.731,-2.480,-3.383,0.867,-3.299,10.470,-0.165,0.474,0.358,angry
0.87,0,0,0,0,0,0,0,0,1,1145,2413,1789,1255,1,3259,4041,11.360,8.080,19.613,4.554,-0.986,-4.094,1.372,-2.887,9.859,-0.135,0.355,0.267,angry
0.88,0,0,0,0,0,0,0,0,52,1558,2587,2223,1853,2,3365,4043,2.974,15.294,19.613,1.215,-0.408,-2.194,1.006,-3.577,10.896,-0.216,0.211,0.212,angry
0.89,0,0,0,0,0,0,0,0,2,1960,2715,2957,2445,0,3400,4005,11.756,3.043,13.487,-1.375,0.582,-1.446,0.687,-2.825,9.859,-0.102,0.124,0.098,angry
0.90,0,0,0,0,0,0,0,0,107,2058,2812,3131,2580,28,3486,3979,6.316,-3.486,11.605,-1.841,0.640,-1.096,0.903,-2.871,10.235,-0.054,0.107,0.082,angry
0.91,0,0,0,0,0,0,0,0,191,2246,2677,3325,2702,40,3463,3925,4.238,-2.356,9.088,-2.385,-0.500,-0.439,0.826,-2.892,9.816,-0.041,0.141,0.061,angry
0.92,0,0,0,0,0,0,0,0,319,2347,3002,3431,2776,46,3335,3690,5.409,-1.120,8.408,-3.028,-0.823,0.138,0.812,-2.246,9.486,-0.040,0.151,0.052,angry
0.93,0,0,0,0,0,0,0,0,607,2412,3048,3574,2751,0,2995,3224,3.551,1.080,10.108,-3.901,-0.870,0.698,0.759,-2.586,9.598,-0.046,0.069,0.036,angry
0.94,0,0,0,0,0,0,0,0,717,2449,3048,3597,2659,47,2674,3018,0.520,1.839,9.206,-4.685,-1.238,0.948,0.754,-2.923,9.764,0.018,0.043,0.027,angry
0.95,0,0,0,0,0,0,0,0,617,2439,3063,3638,2471,51,2359,2841,-0.620,3.220,8.990,-5.018,-1.424,0.922,0.728,-2.428,9.948,-0.039,0.037,0.039,angry
0.96,0,0,0,0,0,0,0,0,751,2509,3084,3656,1965,47,1997,2455,-2.998,3.910,10.307,-5.136,-1.986,0.597,0.479,-2.555,9.718,-0.054,0.050,0.036,angry
0.97,0,0,0,0,0,0,0,0,971,2430,3086,3717,1865,51,1813,1686,-2.471,6.378,12.254,-5.195,-2.540,0.391,0.591,-2.749,9.993,-0.021,0.047,0.046,angry
0.98,0,0,0,0,0,0,0,0,981,2403,3099,3737,1815,27,1617,1183,-0.457,8.825,15.012,-5.270,-2.719,0.496,0.632,-2.543,9.723,-0.065,0.034,0.051,angry
0.99,0,0,0,0,0,0,0,0,1183,2422,3137,3740,2031,71,1181,828,2.593,11.617,18.811,-5.145,-2.768,1.041,0.515,-2.789,9.926,-0.052,-0.001,0.037,angry
1.00,0,0,0,0,0,0,0,0,1736,2382,3227,3783,2361,53,1131,88,6.158,19.613,15.668,-5.021,-1.702,2.234,0.848,-2.473,9.579,-0.022,-0.054,0.075,angry
1.01,0,0,0,0,0,0,0,0,1966,2343,3299,3827,2517,36,1276,192,-3.931,19.613,11.329,-3.535,-1.074,3.077,0.603,-2.978,9.840,0.005,-0.080,0.110,angry
1.02,0,0,0,0,0,0,0,0,2391,2439,3334,4030,2659,5,1373,7,-5.339,19.613,3.120,-3.372,0.016,3.436,0.453,-2.380,9.665,-0.071,-0.040,0.081,angry
1.03,0,0,0,0,0,0,0,0,2510,2341,3288,4007,2683,3,815,12,-8.631,19.613,-8.200,-2.823,1.406,2.700,0.895,-2.428,9.869,-0.144,-0.039,0.056,angry
1.04,0,0,0,0,0,0,0,45,2855,2570,3329,4095,2139,0,111,0,-15.816,19.613,-19.613,1.647,-0.445,1.780,0.376,-1.051,9.658,-0.633,0.061,-0.177,angry
1.05,0,0,0,0,0,0,369,2935,3005,2707,3421,4095,1461,2,361,0,-8.145,-10.515,5.255,5.013,3.100,-1.009,1.075,-3.323,9.402,-0.911,-0.010,-0.366,angry
1.06,0,0,0,0,0,0,1093,3747,3295,2809,3337,4095,441,2,312,0,-11.485,16.455,6.924,6.070,-0.744,-0.559,1.935,-1.190,9.515,-1.300,-0.378,-0.437,angry
1.07,0,0,0,0,691,0,2435,3848,3369,2479,3378,4088,426,0,22,0,19.120,13.798,19.613,2.792,0.417,-0.403,1.985,-0.259,13.731,-3.395,-1.005,-0.771,angry
1.08,1446,567,0,0,828,0,2845,3810,3031,1971,3386,4053,221,0,0,0,-6.285,1.082,15.335,0.998,1.524,-0.615,1.144,-2.274,11.499,-5.319,0.614,-0.458,angry
1.09,1771,1680,2410,1907,1707,0,3083,3827,2040,31,2720,3183,0,27,0,0,-1.889,6.697,12.474,0.185,0.265,-0.147,8.748,1.666,19.613,-8.731,0.339,3.421,angry
1.10,2018,2174,2905,2655,2327,34,3263,3876,251,0,0,847,0,0,0,0,0.259,5.617,9.618,0.024,0.191,-0.149,0.007,-19.178,19.613,-8.731,-0.030,4.692,angry
1.11,2253,2474,3186,2956,2691,615,3374,3901,0,5,0,29,0,0,0,0,0.702,3.948,9.369,0.051,0.099,-0.037,3.486,-4.594,19.613,-2.749,1.914,5.134,angry
1.12,2493,2635,3308,3118,2813,796,3411,3879,0,0,0,0,0,0,0,0,0.160,3.666,9.455,0.006,0.094,-0.021,12.292,0.424,19.613,-0.726,-1.426,2.206,angry
1.13,2646,2709,3401,3214,2869,384,3376,3833,13,0,0,0,0,0,0,0,0.156,3.687,9.321,0.033,0.060,0.004,10.139,6.929,12.534,2.420,0.750,1.092,angry
1.14,2696,2774,3461,3262,2861,0,3264,3758,0,0,0,0,58,0,0,0,0.488,3.778,9.407,0.052,0.058,-0.005,7.001,5.318,9.912,3.418,-1.097,-0.226,angry
1.15,2765,2871,3487,3287,2686,0,3049,3677,0,0,0,0,0,0,0,8,0.472,3.800,9.313,0.015,0.107,-0.023,6.479,2.765,8.334,3.846,-1.625,-0.728,angry
1.16,2770,2875,3498,3294,2478,0,2902,3600,0,0,0,0,0,0,17,0,0.160,3.716,9.189,0.025,0.090,-0.020,4.906,1.259,8.882,4.218,-1.800,-1.093,angry
1.17,2811,2895,3503,3307,2143,0,2636,3459,0,0,0,0,0,0,0,0,0.141,3.694,9.273,0.047,0.067,-0.026,1.166,-2.073,10.824,5.118,-2.167,-1.499,angry
1.18,2834,2912,3519,3312,2101,0,2288,3305,0,0,0,0,0,0,0,0,0.120,3.699,9.275,0.064,0.047,-0.033,0.014,-2.753,12.735,5.693,-2.325,-1.440,angry
1.19,2827,2884,3548,3326,2143,0,2096,3143,0,0,0,0,22,0,0,0,0.254,3.656,9.167,0.043,0.064,-0.047,-1.590,-5.025,14.559,5.898,-2.507,-1.445,angry
1.20,2749,2839,3583,3349,2464,0,2158,3039,0,0,0,0,0,0,0,0,0.151,3.723,9.191,0.035,0.075,-0.067,-0.113,-7.776,17.916,6.106,-2.771,-1.695,angry
1.21,2807,2853,3653,3417,2718,0,2293,2991,0,0,0,0,0,0,0,0,0.268,3.764,9.201,0.033,0.085,-0.081,2.162,-10.264,19.039,5.987,-2.850,-2.181,angry
1.22,3037,2995,3739,3544,2926,0,2363,2583,0,0,0,0,0,0,0,0,0.160,4.001,9.282,0.021,0.190,-0.011,-0.402,-19.613,19.613,4.954,-2.752,-3.647,angry
1.23,3225,3198,3817,3689,3159,0,2303,2057,0,0,0,0,0,0,0,16,0.022,4.053,9.821,0.113,0.218,0.055,-0.165,-19.613,11.746,3.839,-1.211,-3.580,angry
1.24,3422,3357,3891,3794,3181,0,1686,503,0,0,0,0,0,0,0,0,0.062,3.270,9.881,0.311,0.280,0.071,-6.060,-19.613,-3.519,3.432,-0.263,-2.209,angry
1.25,3570,3575,3952,3879,2594,0,372,0,0,0,15,55,0,0,0,0,-0.050,2.923,9.383,0.655,0.199,0.191,-9.448,-19.613,-15.936,-2.566,-2.685,-2.107,angry
1.26,3742,3700,4013,3943,1585,0,96,0,0,0,0,0,0,0,0,1061,0.819,1.504,9.843,1.745,0.288,0.672,4.599,-0.460,4.573,-2.331,4.758,0.512,angry
1.27,3844,3661,4022,3957,1263,0,96,0,0,0,0,0,53,0,229,3109,1.415,2.440,10.697,1.828,-0.170,0.777,-16.065,4.707,19.613,-4.809,2.166,1.344,angry
1.28,3946,3063,4009,3927,638,0,0,0,0,0,0,0,0,0,731,3707,1.618,0.280,7.099,4.352,0.557,1.185,-19.613,2.145,6.488,-5.381,-0.839,1.389,angry
1.29,3955,2820,3920,3815,395,0,0,0,0,6,0,41,0,0,1748,3788,0.508,3.984,7.072,5.147,0.935,0.386,4.362,-18.632,13.903,-4.254,-0.775,2.325,angry
1.30,3774,2059,3411,3089,0,0,0,0,0,0,0,0,135,0,2711,4060,0.515,9.469,19.613,8.517,0.289,-0.106,-2.061,3.926,9.041,0.610,3.795,1.147,angry
1.31,2962,478,2493,2471,0,0,0,0,0,587,0,0,466,0,2901,4070,-6.615,-0.778,19.613,8.731,-1.994,-2.912,-2.203,-5.097,15.737,-0.119,1.220,0.195,angry
1.32,868,0,31,0,0,0,0,0,1,1553,1942,696,1386,2,3257,4095,1.506,12.826,19.613,8.731,-1.189,-4.084,1.707,-3.194,9.759,-0.022,0.517,0.229,angry
1.33,0,0,0,0,0,0,0,0,2,1847,1911,888,1977,2,3450,4095,6.567,19.613,19.613,2.213,0.994,-3.382,1.331,-2.239,9.888,0.072,0.306,0.185,angry
1.34,0,0,0,0,0,0,0,0,0,2069,2372,1327,2327,2,3611,4095,11.753,-1.851,19.613,-0.404,-0.012,-1.323,1.717,-2.756,9.950,-0.053,0.370,0.166,angry
1.35,0,0,0,0,0,0,0,0,0,2351,2387,2172,2697,1,3615,4095,8.310,-4.623,9.005,-1.676,0.696,-0.897,0.699,-2.990,10.178,-0.010,0.052,0.130,angry
1.36,0,0,0,0,0,0,0,0,2,2381,2531,2365,2821,2,3621,4049,4.676,-4.456,8.878,-1.722,0.087,-0.542,0.680,-3.002,10.602,0.006,0.103,0.081,angry
1.37,0,0,0,0,0,0,0,0,1,2387,2577,2549,2879,3,3572,3966,5.143,-2.440,9.136,-2.273,-0.693,-0.143,0.962,-2.725,10.206,-0.014,0.127,0.065,angry
1.38,0,0,0,0,0,0,0,0,0,2623,2830,2773,2988,1,3385,3487,6.304,-0.718,8.566,-3.208,-0.837,0.413,1.214,-2.622,9.828,-0.080,0.162,0.082,angry
1.39,0,0,0,0,0,0,0,0,6,2616,2863,2888,2969,2,3171,3339,4.618,0.424,8.796,-3.795,-0.787,0.725,1.003,-2.641,9.613,-0.089,0.141,0.070,angry
1.40,0,0,0,0,0,0,0,0,11,2598,2884,3015,2933,6,2741,3238,2.650,1.295,9.282,-4.323,-1.031,0.995,0.800,-2.792,9.814,-0.078,0.110,0.069,angry
1.41,0,0,0,0,0,0,0,0,26,2648,2986,3091,2897,0,2631,3096,1.427,2.358,8.882,-4.740,-1.405,1.185,0.759,-2.732,9.852,-0.060,0.098,0.074,angry
1.42,0,0,0,0,0,0,0,0,107,2644,3007,3089,2861,20,2549,2905,0.709,2.682,8.241,-5.043,-1.507,1.205,0.845,-2.670,9.804,-0.052,0.120,0.087,angry
1.43,0,0,0,0,0,0,0,0,113,2715,3020,3239,2863,28,2377,2741,-1.087,4.168,9.859,-5.221,-1.653,1.062,0.828,-2.775,9.589,-0.056,0.093,0.064,angry
1.44,0,0,0,0,0,0,0,0,405,2795,3058,3342,2897,47,2019,2173,-1.355,7.113,13.194,-5.407,-2.231,0.899,0.783,-2.523,9.644,-0.112,0.095,0.042,angry
1.45,0,0,0,0,0,0,0,0,595,2839,3089,3589,2932,48,1818,1610,0.527,9.929,15.957,-5.661,-2.441,0.927,0.927,-2.784,9.414,-0.087,0.075,0.056,angry
1.46,0,0,0,0,0,0,0,0,698,2907,3222,3599,2971,51,1959,1391,4.041,14.164,19.613,-5.420,-2.672,1.403,0.163,-2.239,10.120,-0.095,0.029,0.070,angry
1.47,0,0,0,0,0,0,0,0,1301,2971,3181,3739,3055,43,1979,205,1.001,19.613,17.846,-5.385,-2.145,2.904,0.582,-2.820,9.902,-0.003,0.005,0.107,angry
1.48,0,0,0,0,0,0,0,0,1847,3022,3222,3893,3081,39,1641,189,0.529,19.613,8.150,-4.180,-0.850,3.019,0.960,-2.875,9.438,-0.021,0.012,0.131,angry
1.49,0,0,0,0,0,0,0,0,2288,3101,3288,3999,2894,4,653,0,-12.313,19.613,-6.570,-2.447,0.412,2.537,0.972,-2.456,9.708,-0.174,-0.018,0.108,angry
1.50,66,0,0,0,0,0,0,0,2536,3205,3309,4031,2723,2,211,0,-15.270,19.613,-19.613,0.916,-0.743,1.166,0.833,-1.197,9.838,-0.488,-0.022,-0.026,angry
1.51,0,0,0,0,0,0,109,2815,2805,3437,3334,3861,1816,3,421,0,-4.911,-19.613,-0.508,2.188,3.252,-0.673,0.658,-3.266,9.459,-0.667,-0.013,-0.234,angry
1.52,242,0,0,0,0,0,768,3768,2909,3315,3342,3975,1149,6,333,0,-15.031,3.424,7.532,5.829,-1.194,-0.151,1.156,0.091,10.930,-1.446,-0.348,-0.160,angry
1.53,476,0,0,0,0,0,1845,3903,3000,3455,3380,3511,728,0,171,0,-1.053,12.960,19.613,3.374,-0.291,-0.439,3.045,-0.220,9.531,-3.367,-0.300,-0.505,angry
1.54,675,0,0,0,604,0,2931,3853,2005,2525,3386,3455,1080,0,0,0,-0.441,19.613,19.613,1.394,2.222,-3.358,2.986,-5.895,13.044,-8.731,-1.038,0.911,angry
1.55,1776,1250,0,0,1667,0,3347,3809,1685,799,2311,2431,505,0,13,0,2.689,4.922,11.260,1.017,3.213,-1.527,6.325,-7.410,19.613,-8.731,-1.706,1.877,angry
1.56,1978,2011,1953,553,2245,0,3445,3899,462,0,0,215,0,26,0,0,1.611,8.665,15.311,0.167,1.125,-0.408,4.113,-2.782,19.613,-8.731,-0.340,4.611,angry
1.57,2096,2288,2791,2339,2538,772,3504,3939,0,0,0,0,0,0,0,0,0.587,5.131,9.359,0.055,0.432,-0.142,12.775,-6.558,19.613,-4.064,-0.301,4.925,angry
1.58,2301,2449,3124,2814,2690,1295,3538,3933,0,0,69,0,0,0,0,0,0.242,3.747,9.268,0.031,0.201,-0.037,2.818,-6.943,19.613,0.681,-1.241,2.223,angry
1.59,2533,2655,3279,3024,2803,1063,3519,3886,0,0,0,0,0,0,0,0,0.460,4.142,9.601,0.093,0.089,0.011,14.494,4.168,12.613,2.204,0.027,1.337,angry
1.60,2646,2746,3385,3120,2880,201,3417,3782,0,0,0,6,0,0,0,0,0.323,3.737,9.232,0.084,0.037,0.004,6.965,2.964,10.740,3.747,-0.007,-0.013,angry
1.61,2672,2870,3457,3168,2839,0,3216,3654,0,0,0,0,0,7,0,0,0.852,3.867,9.266,0.056,0.122,-0.062,3.845,2.073,7.353,4.391,-1.009,-0.784,angry
1.62,2708,2919,3484,3207,2649,0,3063,3555,0,0,0,24,57,0,0,0,0.510,3.950,9.306,0.031,0.141,-0.057,2.650,-0.223,10.168,4.744,-1.367,-1.026,angry
1.63,2772,2978,3526,3269,2249,0,2818,3390,0,0,0,0,0,0,0,0,0.249,3.757,9.340,0.065,0.118,-0.029,2.224,-2.138,11.612,5.324,-1.526,-1.274,angry
1.64,2832,3008,3568,3319,1984,0,2438,3181,0,0,0,70,0,0,0,0,0.249,3.701,9.108,0.074,0.078,-0.029,0.666,-3.900,11.607,5.963,-1.304,-1.410,angry
1.65,2849,3024,3603,3362,1933,0,2064,2992,0,0,0,0,0,0,0,0,0.292,3.895,9.225,0.050,0.087,-0.050,-0.611,-6.541,15.538,6.372,-1.686,-1.270,angry
1.66,2914,2993,3647,3429,2087,0,1840,2823,0,0,0,0,0,0,0,0,0.227,3.792,9.263,0.022,0.121,-0.055,-0.225,-7.752,16.479,6.451,-2.009,-1.278,angry
1.67,3059,3007,3711,3502,2291,0,1645,2635,0,0,0,0,0,0,0,0,0.036,3.871,9.275,0.032,0.131,-0.029,1.987,-10.324,19.613,6.047,-2.371,-1.569,angry
1.68,3197,3071,3767,3583,2529,0,1657,2238,0,0,0,0,35,0,0,0,0.065,3.828,9.376,0.022,0.161,-0.019,0.958,-19.613,19.613,5.546,-2.490,-2.548,angry
1.69,3321,3267,3833,3722,2789,0,1642,1408,0,0,0,0,0,47,0,0,0.218,3.836,9.527,0.134,0.320,0.044,2.861,-19.613,19.613,5.255,-1.585,-2.786,angry
1.70,3472,3442,3903,3814,2785,0,1167,0,0,0,0,0,7,0,0,0,0.029,3.460,9.493,0.318,0.311,0.070,-10.302,-19.613,-4.606,3.462,-1.054,-1.971,angry
1.71,3603,3583,3965,3874,2318,0,176,0,0,0,0,0,0,0,0,0,0.464,2.780,9.773,0.639,0.290,0.153,-12.239,-19.613,-8.289,0.116,-2.038,-1.109,angry
1.72,3710,3666,3996,3929,1910,0,0,0,0,0,0,0,0,0,0,0,0.476,3.409,9.527,1.042,0.388,0.399,-10.099,-19.613,-13.645,-2.925,-0.762,-0.800,angry
1.73,3807,3683,4011,3967,1253,0,0,0,0,0,0,0,0,3,7,0,-0.292,1.300,9.057,1.486,0.097,0.607,7.017,-19.613,-10.192,-2.491,2.267,-0.145,angry
1.74,3888,3562,4038,3978,950,0,0,0,23,0,0,0,43,39,187,2150,-0.373,2.863,9.512,1.658,-0.023,0.663,0.383,19.613,19.613,-2.827,4.242,1.804,angry
1.75,3988,3206,4042,3986,586,0,0,0,0,0,0,0,0,0,115,3339,1.008,-0.235,10.558,3.407,0.191,1.153,-16.850,-2.172,3.220,-6.814,-3.044,-0.734,angry
1.76,4032,2706,3906,3886,139,0,0,0,0,0,0,0,0,0,1491,3899,1.532,1.422,8.729,4.969,1.304,0.896,3.081,-19.501,19.613,-4.785,-1.428,1.823,angry
1.77,3908,1926,3481,3461,0,0,0,0,0,0,0,6,62,0,2735,4030,2.562,9.809,8.859,8.226,2.647,0.592,8.329,-0.891,-0.029,0.325,3.939,1.245,angry
1.78,3498,693,2989,2832,0,0,0,0,0,0,0,6,62,0,2735,4030,-0.812,4.963,19.613,8.731,-0.699,-1.882,8.329,-0.891,-0.029,0.325,3.939,1.245,angry
1.79,2238,0,1645,1872,0,0,0,0,26,1275,0,0,664,0,3032,4095,1.377,14.444,19.613,8.731,-1.724,-4.463,5.634,-3.809,8.327,0.192,1.317,0.419,angry
1.80,0,0,0,0,0,0,0,0,0,1449,0,169,1107,0,3223,4095,4.415,19.613,19.613,7.772,-1.224,-4.186,-1.264,-2.990,11.023,-0.019,0.709,0.325,angry
1.81,0,0,0,0,0,0,0,0,1,1779,1092,603,1647,3,3368,4095,9.347,19.613,19.613,1.386,1.259,-3.089,2.028,-3.136,10.159,0.016,0.446,0.144,angry
1.82,0,0,0,0,0,0,0,0,1,1867,1527,1050,2025,3,3493,4095,12.376,-3.668,19.613,-0.778,0.306,-0.938,1.049,-3.170,9.651,0.070,0.151,0.159,angry
1.83,0,0,0,0,0,0,0,0,1,2065,1937,1127,2278,3,3547,4095,11.032,0.024,12.531,-1.633,1.388,-0.655,1.274,-2.914,10.408,0.017,0.091,0.113,angry
1.84,0,0,0,0,0,0,0,0,0,2135,2249,1420,2367,0,3619,4095,5.143,-4.379,10.532,-2.217,0.721,-0.379,0.843,-2.825,9.984,0.042,0.078,0.060,angry
1.85,0,0,0,0,0,0,0,0,7,2141,2285,1643,2439,0,3594,4095,4.441,-2.509,7.080,-2.357,-0.034,-0.047,1.389,-2.569,9.756,0.038,0.133,-0.007,angry
1.86,0,0,0,0,0,0,0,0,8,2204,2349,1597,2491,0,3563,4095,4.863,-2.792,7.202,-2.795,-0.615,0.238,0.950,-2.861,10.046,0.092,0.125,-0.004,angry
1.87,0,0,0,0,0,0,0,0,13,2203,2477,1595,2519,6,3525,4056,5.490,-1.528,6.235,-3.145,-0.827,0.599,1.238,-2.354,9.809,0.010,0.135,0.006,angry
1.88,0,0,0,0,0,0,0,0,0,2203,2541,1676,2398,1,3413,3979,4.848,0.103,7.690,-3.562,-0.888,0.928,1.185,-2.389,9.424,-0.038,0.162,0.078,angry
1.89,0,0,0,0,0,0,0,0,25,2199,2531,1961,2086,8,3264,3787,3.745,1.528,8.612,-4.143,-0.996,1.239,1.056,-2.454,9.352,-0.062,0.192,0.127,angry
1.90,0,0,0,0,0,0,0,0,83,2189,2515,2201,1843,22,3033,3455,2.418,2.325,8.593,-4.665,-1.119,1.414,0.625,-2.598,9.483,-0.078,0.155,0.116,angry
1.91,0,0,0,0,0,0,0,0,77,2111,2567,2408,1868,25,2728,3443,0.769,2.638,7.932,-5.079,-1.212,1.484,0.656,-2.761,9.893,-0.010,0.149,0.084,angry
1.92,0,0,0,0,0,0,0,0,109,2163,2515,2548,1941,28,2617,3445,-0.589,3.294,8.574,-5.295,-1.352,1.447,0.735,-2.679,9.914,-0.021,0.142,0.079,angry
1.93,0,0,0,0,0,0,0,0,165,2181,2715,2840,2122,37,2504,3279,-2.157,5.215,11.327,-5.603,-1.659,1.199,0.735,-2.732,9.804,-0.084,0.109,0.099,angry
1.94,0,0,0,0,0,0,0,0,275,2175,2730,2877,2264,46,2455,3165,-2.406,7.017,13.058,-5.814,-2.058,0.941,0.634,-2.725,9.876,-0.082,0.117,0.078,angry
1.95,0,0,0,0,0,0,0,0,533,2259,2858,3187,2567,48,2443,3081,-1.216,9.206,16.161,-5.862,-2.400,0.867,0.821,-2.696,9.392,-0.053,0.127,0.059,angry
1.96,0,0,0,0,0,0,0,0,839,2291,2981,3387,2925,51,2471,3020,3.187,14.854,19.613,-5.302,-2.677,1.162,0.996,-3.153,9.443,0.079,0.132,0.066,angry
1.97,0,0,0,0,0,0,0,0,1131,2315,3012,3470,3033,51,2451,2956,1.987,19.613,17.935,-4.957,-1.610,2.341,0.666,-2.643,10.053,-0.021,0.001,0.043,angry
1.98,0,0,0,0,0,0,0,0,1885,2456,3130,3671,3277,63,2265,2532,3.527,19.613,8.100,-3.478,0.398,2.184,0.833,-2.813,9.689,-0.095,-0.019,0.047,angry
1.99,0,0,0,0,0,0,0,0,2269,2605,3196,3871,3115,47,1751,320,-19.613,19.613,-11.564,-2.470,-0.898,1.758,1.130,-2.665,9.692,-0.262,-0.068,0.000,angry
2.00,64,0,0,0,0,0,0,397,2603,2785,3252,3997,2584,13,41,139,-14.846,19.613,-19.613,2.042,-0.424,0.272,1.120,-2.722,9.663,-0.328,0.022,-0.032,angry
2.01,0,0,0,0,0,0,195,3088,2776,2844,3324,4043,1951,3,39,106,-3.625,3.733,19.613,4.075,2.660,-0.913,-0.057,-2.428,10.659,-1.166,0.258,-0.408,angry
2.02,273,0,0,0,0,0,752,3717,3039,2939,3301,4007,298,0,10,0,-10.886,9.629,0.634,7.243,-1.184,-0.688,1.877,-0.160,9.816,-1.645,-0.380,-0.512,angry
2.03,900,0,0,0,0,0,2436,3837,2853,2477,3324,3957,415,3,0,0,-2.239,11.442,17.368,3.724,-0.597,-1.150,-4.705,-0.227,16.051,-4.563,-0.264,-0.335,angry
2.04,1754,625,0,0,791,0,2975,3731,2637,1861,3370,3866,327,0,0,42,8.669,-4.566,-6.627,-0.088,3.970,-1.987,1.568,-2.358,11.837,-7.151,0.573,0.511,angry
2.05,2091,1903,2027,787,1648,0,3250,3791,1228,0,2282,2224,0,0,0,0,-3.388,4.049,13.393,0.065,1.229,-0.407,3.151,2.315,19.613,-8.731,-0.374,2.914,angry
2.06,2321,2224,2942,2433,2230,305,3408,3879,183,0,0,149,0,0,0,0,-0.939,3.508,10.453,0.124,0.330,-0.193,1.166,-8.600,19.613,-8.731,0.103,4.105,angry
2.07,2533,2496,3194,2839,2638,848,3485,3869,0,0,0,0,20,0,0,0,0.390,3.948,9.371,0.018,0.157,-0.042,3.742,-4.293,19.613,-5.389,-0.050,4.309,angry
2.08,2718,2683,3335,3060,2805,867,3496,3838,0,0,0,0,0,0,0,0,0.464,4.336,9.555,0.037,0.063,-0.032,6.074,4.341,19.613,-1.077,-2.727,2.876,angry
2.09,2874,2860,3472,3191,2943,427,3451,3760,0,0,0,0,55,0,0,0,0.318,3.979,9.694,0.064,0.049,-0.009,11.772,3.634,11.562,1.822,0.107,1.685,angry
2.10,2958,3020,3555,3280,2992,0,3312,3621,0,0,0,0,0,0,0,0,0.599,3.917,9.579,0.082,0.084,-0.062,10.168,2.519,9.572,2.388,0.654,0.774,angry
2.11,2999,3082,3600,3315,2934,0,3136,3489,0,0,0,0,2,0,0,0,0.599,3.974,9.270,0.049,0.102,-0.064,8.076,2.368,7.939,2.944,0.206,-0.132,angry
2.12,3062,3122,3621,3367,2825,0,2992,3366,0,0,0,0,0,0,0,0,0.206,3.836,9.120,0.025,0.104,-0.051,6.596,1.954,7.319,3.222,-0.374,-0.918,angry
2.13,3119,3166,3648,3408,2704,0,2814,3248,0,0,0,0,54,0,0,0,0.165,3.790,9.378,0.021,0.106,-0.030,5.885,1.020,8.056,3.492,-0.706,-1.443,angry
2.14,3203,3205,3678,3454,2421,0,2414,2961,0,0,0,0,0,0,0,0,0.287,3.869,9.548,0.057,0.071,-0.026,3.139,-1.786,10.252,4.538,-0.945,-1.901,angry
2.15,3216,3263,3711,3499,2196,0,1899,2311,0,0,17,0,0,30,0,0,0.280,3.704,9.189,0.111,0.042,-0.045,1.518,-3.922,11.071,5.343,-1.142,-1.808,angry
2.16,3239,3279,3732,3529,2069,0,1535,1482,37,0,0,0,0,0,0,4,0.158,3.828,9.194,0.072,0.081,-0.043,1.101,-4.673,11.365,5.586,-1.241,-1.659,angry
2.17,3335,3290,3774,3582,2193,0,1392,1251,0,0,33,0,0,0,0,0,0.187,3.742,9.258,0.048,0.112,-0.027,-0.304,-6.144,13.192,5.645,-1.750,-1.273,angry
2.18,3413,3302,3799,3641,2202,0,1217,1037,0,0,0,0,0,0,0,0,0.211,4.010,9.340,0.022,0.145,-0.017,0.725,-7.779,18.502,5.495,-2.544,-1.071,angry
2.19,3459,3317,3838,3707,2321,0,1067,666,0,0,0,0,0,0,0,0,0.290,3.788,9.256,0.074,0.196,0.020,3.462,-9.828,19.613,5.445,-2.760,-1.207,angry
2.20,3536,3373,3860,3744,2351,0,995,368,0,0,0,0,0,0,0,0,0.239,3.859,9.766,0.122,0.253,0.018,7.372,-15.359,19.613,5.272,-2.647,-1.649,angry
2.21,3613,3415,3889,3787,2267,0,657,0,0,0,0,0,0,0,0,0,0.254,3.747,9.294,0.265,0.234,0.050,-0.069,-19.613,19.613,5.099,-2.653,-2.524,angry
2.22,3731,3491,3909,3830,2169,0,321,0,63,0,0,0,0,0,0,0,0.388,3.742,9.507,0.370,0.302,0.078,-2.411,-19.613,19.319,4.728,-2.323,-2.325,angry
2.23,3835,3493,3931,3878,2053,0,186,0,5,0,0,0,0,0,0,0,0.330,3.615,9.436,0.526,0.218,0.135,-3.984,-19.613,9.902,4.198,-1.072,-1.536,angry
2.24,3903,3555,3962,3882,1834,0,0,0,0,0,0,0,0,0,0,0,0.412,3.663,9.512,0.689,0.209,0.187,-11.162,-19.613,-0.989,3.602,-1.045,-1.617,angry
2.25,3968,3583,3978,3927,1374,0,0,0,0,0,0,0,0,0,0,0,0.347,3.622,9.421,0.869,0.167,0.270,-12.153,-19.613,-6.414,1.951,-0.627,-1.195,angry
2.26,4016,3570,3991,3951,1149,0,0,0,0,0,0,0,21,0,0,0,0.646,4.223,9.306,1.181,0.181,0.517,-18.115,-19.613,-8.198,0.294,-0.158,-0.390,angry
2.27,4059,3472,4001,3965,643,0,0,0,0,0,0,0,0,0,0,0,0.340,2.720,9.026,1.588,0.205,0.687,-12.110,-19.613,-11.631,-2.078,0.212,0.068,angry
2.28,4080,3250,4003,3982,457,0,0,0,0,0,0,0,0,0,0,933,0.572,3.694,8.578,1.993,0.200,0.800,-0.328,-13.783,-3.405,-1.556,2.191,0.826,angry
2.29,4095,3050,3986,3965,763,0,0,0,0,0,0,0,0,0,0,2891,1.192,1.635,10.561,2.738,0.441,0.891,-6.359,16.580,19.613,-3.860,0.709,0.885,angry
2.30,4095,2791,3927,3925,436,0,0,0,0,0,0,0,0,0,0,3644,3.663,3.033,10.293,3.874,0.730,0.904,-8.837,11.186,0.347,-6.240,-1.803,0.062,angry
2.31,4095,2527,3613,3762,0,0,0,0,0,0,0,0,0,0,482,3912,2.729,3.666,9.366,5.484,0.630,0.248,-4.515,-19.613,13.578,-5.145,-0.614,1.764,angry
2.32,4081,1751,3388,3419,0,0,0,0,0,0,120,0,0,0,1641,4040,-0.287,2.660,12.943,7.192,0.203,-0.441,4.029,-14.025,19.613,-3.470,-1.044,1.120,angry
2.33,3568,368,1874,1619,0,0,0,0,0,779,0,0,275,0,2775,4095,-3.809,12.234,19.613,8.731,-4.230,-3.480,0.673,-0.067,10.331,0.302,3.358,0.740,angry
2.34,1865,0,0,0,0,0,0,0,0,1780,102,41,840,0,3083,4095,10.238,19.613,19.613,8.731,-4.481,-4.244,2.217,-2.260,10.269,-0.251,1.550,0.327,angry
2.35,0,0,0,0,0,0,0,0,2,2198,1502,821,1299,0,3166,4095,17.116,19.613,19.613,1.140,0.334,-2.833,1.528,-2.895,8.559,-0.113,1.025,0.393,angry
2.36,0,0,0,0,0,0,0,0,1,2406,463,1813,1703,1,3229,4095,16.381,2.229,16.245,0.449,1.483,-0.972,0.670,-3.354,9.732,-0.104,0.568,0.172,angry
2.37,0,0,0,0,0,0,0,0,18,2482,2275,2457,2132,7,3304,4095,10.719,-0.091,13.757,-0.864,2.272,-0.067,0.481,-3.306,11.066,-0.210,0.404,0.065,angry
2.38,0,0,0,0,0,0,0,0,29,2780,2792,3044,2509,7,3431,4031,5.239,-1.839,6.795,-2.033,2.280,1.081,0.524,-2.526,10.477,-0.114,0.152,0.007,angry
2.39,0,0,0,0,0,0,0,0,47,2927,2792,3183,2671,14,3341,3939,2.461,-3.979,2.801,-2.193,2.175,1.301,0.716,-2.595,9.519,-0.168,0.031,0.005,angry
2.40,0,0,0,0,0,0,0,0,219,2988,2822,3243,2815,43,3320,3865,0.563,-3.349,3.103,-2.094,1.830,1.254,1.082,-3.170,9.895,-0.118,0.125,0.012,angry
2.41,0,0,0,0,0,0,0,0,459,3133,2922,3403,2965,50,3102,3575,0.311,0.476,6.673,-2.601,1.158,0.955,1.092,-2.763,9.656,-0.065,0.157,0.029,angry
2.42,0,0,0,0,0,0,0,0,483,3163,2963,3541,3079,48,3080,3373,1.946,1.891,6.768,-3.121,1.166,0.778,0.986,-2.789,9.433,-0.079,0.111,0.042,angry
2.43,0,0,0,0,0,0,0,0,743,3179,2976,3592,3063,47,2889,3141,2.849,3.189,6.996,-3.528,1.213,0.755,0.869,-2.919,9.797,-0.094,0.106,0.035,angry
2.44,0,0,0,0,0,0,0,0,883,3231,2981,3623,3065,48,2535,2903,3.764,4.908,7.309,-3.881,1.150,0.900,0.979,-2.859,9.606,-0.096,0.082,0.041,angry
2.45,0,0,0,0,0,0,0,0,1124,3263,3061,3661,3027,47,2277,2681,4.592,6.349,6.864,-4.092,1.088,1.188,0.907,-2.842,9.661,-0.132,0.061,0.041,angry
2.46,0,0,0,0,0,0,0,0,1342,3273,3022,3704,2974,4,2021,2328,4.487,9.285,6.895,-4.248,1.135,1.645,1.037,-2.907,9.558,-0.106,0.058,0.054,angry
2.47,0,0,0,0,0,0,0,0,1509,3287,3027,3743,2845,47,1758,1865,3.546,10.027,6.699,-4.228,1.143,1.655,0.979,-2.947,9.661,-0.099,0.061,0.052,angry
2.48,0,0,0,0,0,0,0,0,1771,3257,3073,3741,2359,58,1063,808,3.338,12.112,6.258,-3.762,0.626,1.257,1.125,-2.964,9.550,-0.067,0.129,0.053,angry
2.49,0,0,0,0,0,0,0,0,1931,3207,3084,3783,1865,47,445,564,11.047,18.725,7.029,-3.169,0.070,1.636,1.025,-3.007,9.476,-0.037,0.156,0.075,angry
2.50,0,0,0,0,0,0,0,0,1846,3123,3091,3769,1502,42,215,459,19.613,19.613,1.633,-2.894,2.400,3.941,0.924,-3.002,9.747,-0.071,0.106,0.090,angry
2.51,0,0,0,0,0,0,0,0,2083,3101,3132,3813,823,3,1,86,18.818,19.613,-4.027,-1.924,3.799,7.617,1.075,-2.983,9.464,-0.156,0.073,0.074,angry
2.52,0,0,0,0,0,0,0,0,2257,3027,3145,3859,681,0,0,3,17.645,19.613,-4.647,-1.183,4.238,8.731,0.795,-3.177,9.783,-0.121,0.051,0.080,angry
2.53,0,0,0,0,0,0,0,0,2277,2999,3155,3895,637,0,0,0,11.526,19.613,-5.897,-0.970,5.466,8.731,0.622,-3.055,9.905,-0.116,-0.006,0.092,angry
2.54,0,0,0,0,0,0,0,0,2386,2927,3140,3901,485,0,0,0,2.021,19.613,-7.685,-0.621,6.268,8.731,0.747,-3.163,9.562,-0.182,0.002,0.092,angry
2.55,0,0,0,0,0,0,0,0,2491,2891,3165,3899,393,0,0,0,-5.986,19.613,-8.875,-0.175,6.738,8.731,0.773,-2.983,9.778,-0.204,-0.061,0.133,angry
2.56,0,0,0,0,0,0,0,0,2649,2891,3196,3967,360,0,70,0,-14.569,18.299,-8.526,0.515,6.279,8.731,0.723,-2.825,9.744,-0.279,-0.106,0.239,angry
2.57,1178,0,0,0,0,0,0,0,2723,2814,3201,3926,334,0,0,10,-19.613,19.613,19.613,-7.302,0.551,8.731,0.412,-2.851,9.333,-0.477,-0.467,0.537,angry
2.58,2384,1070,2819,2352,0,0,0,0,2887,2734,3209,3959,363,0,0,0,11.147,19.613,2.940,-0.197,0.762,5.957,0.105,-3.263,9.656,-0.246,-0.471,1.209,angry
2.59,2889,2527,3443,3047,525,0,0,0,2956,2532,3201,3948,141,0,0,0,2.770,8.966,7.207,-1.476,0.417,2.047,-1.034,-3.225,9.809,-0.055,-1.181,3.265,angry
2.60,2992,3045,3647,3184,1078,0,75,0,2964,2357,3109,3913,59,0,2,0,3.036,5.624,8.559,-1.368,-0.015,0.463,0.733,-4.027,10.027,0.422,-2.025,5.680,angry
2.61,2941,3070,3651,3149,2499,71,1731,368,2933,1950,3053,3895,0,0,0,0,-0.876,7.683,14.071,-0.975,-0.128,-0.565,0.022,-6.333,9.615,0.921,-2.686,7.462,angry
2.62,2740,2718,3377,3060,2743,2640,2995,3111,2586,935,2853,3725,0,0,0,0,2.413,4.465,8.971,-0.196,0.037,-0.411,0.685,-5.777,7.645,0.888,-2.859,8.100,angry
2.63,2459,2721,3294,2862,2941,2727,3309,3472,1781,18,2725,3428,0,0,0,0,-0.481,3.417,9.254,-0.171,-0.123,-0.128,2.282,-6.160,9.038,0.949,-2.906,8.504,angry
2.64,2153,2814,3216,2645,3071,1993,3437,3600,127,0,1768,2217,0,0,6,0,0.103,3.572,9.591,-0.142,-0.093,-0.111,2.131,-6.823,8.399,0.855,-2.366,8.731,angry
2.65,1921,2881,3159,2298,3053,751,3466,3650,0,0,0,1303,0,0,0,0,2.789,3.903,8.897,-0.087,-0.052,-0.121,4.800,-8.916,7.448,0.879,-1.923,8.731,angry
2.66,1793,2883,3071,2137,3113,575,3471,3709,0,0,0,19,0,0,0,0,1.125,3.859,9.392,-0.090,0.101,-0.035,7.240,-7.949,15.706,0.824,-0.863,7.495,angry
2.67,1728,2763,2939,1914,3091,326,3439,3747,0,0,0,0,0,0,0,0,0.601,3.687,9.720,-0.034,0.151,-0.011,3.510,-3.886,7.286,0.196,-1.879,4.700,angry
2.68,1763,2666,2826,1886,3025,0,3377,3779,0,0,0,0,0,0,3,0,0.359,3.615,9.400,-0.022,0.147,-0.024,-1.329,-3.503,9.637,-0.147,-1.810,4.234,angry
2.69,1679,2477,2757,1859,2969,0,3331,3779,47,21,0,0,0,0,0,0,0.129,3.438,9.227,-0.009,0.114,-0.014,-3.685,-2.059,9.309,-0.161,-1.498,4.109,angry
2.70,1610,2343,2734,1857,2961,64,3301,3792,0,0,0,0,0,0,0,0,0.144,3.551,9.376,0.013,0.083,-0.005,-3.043,-1.887,9.045,-0.143,-1.264,4.193,angry
2.71,1575,2271,2729,1863,2949,37,3312,3792,0,0,0,0,0,0,0,0,0.196,3.670,9.402,0.002,0.083,-0.013,-1.283,-1.255,7.994,-0.156,-1.074,4.115,angry
2.72,1517,2173,2763,1890,2962,0,3330,3795,0,0,0,0,0,0,0,0,0.089,3.486,9.337,-0.007,0.076,0.000,0.553,-1.460,8.224,0.006,-1.174,3.973,angry
2.73,1535,2117,2766,1901,2981,114,3343,3803,0,0,0,0,0,0,0,0,0.273,3.481,9.342,-0.013,0.051,0.009,1.312,-1.391,7.025,0.133,-1.107,3.828,angry
2.74,1488,2067,2798,1898,3018,175,3386,3811,0,0,0,0,0,0,0,0,0.129,3.438,9.328,0.003,0.042,0.011,2.093,-1.216,7.970,0.356,-1.138,3.363,angry
2.75,1478,2128,2916,2115,3065,313,3427,3814,0,0,0,0,0,0,0,0,0.206,3.433,9.316,0.086,0.050,-0.024,1.982,-0.682,7.618,0.587,-1.178,3.190,angry
2.76,1579,2251,3022,2372,3055,471,3449,3804,0,0,0,0,0,0,0,0,0.196,3.469,9.316,0.111,0.072,-0.036,2.227,-1.288,8.490,0.903,-1.359,2.800,angry
2.77,1809,2327,3121,2587,2991,747,3470,3814,0,0,12,0,7,0,0,0,0.201,3.330,9.285,0.145,0.098,-0.063,2.677,-1.982,8.636,1.134,-1.322,2.276,angry
2.78,1968,2386,3194,2795,2938,927,3463,3794,0,0,0,0,0,0,0,0,0.139,3.570,9.337,0.149,0.109,-0.061,2.638,-2.227,8.176,1.095,-1.340,1.947,angry
2.79,2133,2438,3269,2957,2885,980,3439,3762,0,4,0,0,0,0,0,0,0.160,3.603,9.347,0.163,0.111,-0.052,0.543,-2.449,7.980,0.694,-1.321,1.578,angry
2.80,2253,2533,3328,3088,2875,498,3343,3674,0,0,0,0,0,0,0,0,0.129,3.524,9.335,0.176,0.108,-0.021,10.400,-7.702,-6.179,-2.807,-2.058,-0.622,angry
2.81,2399,2598,3404,3188,2887,0,3114,3251,0,0,0,0,0,0,383,1785,0.292,3.553,9.459,0.184,0.146,0.041,18.411,-19.613,19.613,3.098,1.999,1.288,angry
2.82,2545,2672,3467,3274,2399,0,2689,2672,0,0,0,0,0,0,1016,2764,0.093,3.800,9.309,0.232,0.294,0.267,-0.759,0.620,11.267,0.014,0.139,0.392,angry
2.83,2713,2717,3508,3343,1245,0,1606,857,0,1,908,813,121,2,1461,3030,-1.137,2.995,9.816,0.385,0.609,0.944,0.788,-4.362,10.515,-0.057,0.004,0.212,angry
2.84,2944,2645,3514,3339,403,0,0,0,63,0,1635,1060,280,1,2053,3177,2.840,3.086,12.002,1.934,1.137,1.957,1.080,-3.270,9.852,0.102,0.125,0.102,angry
2.85,3165,1791,3362,3335,0,0,0,0,133,35,2249,1492,471,7,2675,3529,5.250,5.842,12.998,1.698,1.554,0.952,0.251,-1.537,10.549,0.060,0.246,0.160,angry
2.86,3214,0,2065,3027,0,0,0,0,0,6,2308,1735,473,3,2829,3631,6.043,5.131,13.549,2.237,3.479,0.214,0.577,-2.442,9.519,0.017,0.212,0.195,angry
2.87,2685,0,98,1358,0,0,0,0,12,175,2454,2204,619,3,3027,3782,7.374,3.486,10.597,3.262,5.715,-2.393,0.551,-2.588,9.914,-0.007,0.108,0.084,angry
2.88,0,0,0,0,0,0,0,0,100,485,2700,2283,895,727,3214,3865,19.613,8.823,19.613,2.050,7.321,-0.897,0.455,-2.830,9.943,0.051,0.015,0.047,angry
2.89,0,0,0,0,0,0,0,0,101,633,2659,2186,1134,909,3283,3896,19.613,17.621,16.582,0.802,3.430,4.826,0.589,-2.579,9.740,0.034,0.016,0.034,angry
2.90,0,0,0,0,0,0,0,0,167,1003,2794,2171,1575,1019,3369,3982,11.377,5.550,8.964,0.614,3.794,6.410,0.788,-2.646,9.816,-0.015,0.039,0.063,angry
2.91,0,0,0,0,0,0,0,0,173,1052,2720,2251,1595,931,3367,3911,-2.330,-1.391,12.871,-0.315,1.951,5.393,0.797,-2.655,9.859,-0.024,0.026,0.055,angry
2.92,0,0,0,0,0,0,0,0,139,969,2718,1843,1337,31,3215,3861,-4.846,-4.980,12.186,-1.171,0.651,3.139,0.654,-2.646,9.845,-0.004,0.012,0.027,angry
2.93,0,0,0,0,0,0,0,0,125,1003,2725,1784,1233,29,3091,3724,-3.220,-4.829,12.127,-2.245,-0.314,1.240,0.575,-2.559,9.795,-0.033,-0.005,0.028,angry
2.94,0,0,0,0,0,0,0,0,119,1094,2723,1843,1275,28,2926,3567,0.584,-2.282,10.882,-3.114,-0.639,0.440,0.721,-2.559,9.637,-0.052,0.017,0.040,angry
2.95,0,0,0,0,0,0,0,0,87,1123,2725,1955,1216,0,2733,3261,2.940,0.797,9.194,-3.653,-0.792,0.346,0.687,-2.614,9.629,-0.046,0.049,0.070,angry
2.96,0,0,0,0,0,0,0,0,135,1174,2730,2029,1095,36,2642,3271,3.594,1.559,8.511,-3.707,-0.778,0.468,0.699,-2.638,9.728,-0.029,0.051,0.087,angry
2.97,0,0,0,0,0,0,0,0,153,1181,2799,2089,1328,36,2699,3357,5.052,4.266,10.230,-3.669,-1.111,0.939,0.728,-2.643,9.663,0.006,0.053,0.110,angry
2.98,0,0,0,0,0,0,0,0,199,1173,2822,2299,1613,40,2727,3400,8.801,6.737,10.106,-3.618,-1.241,2.061,0.792,-2.662,9.486,0.011,0.064,0.116,angry
2.99,0,0,0,0,0,0,0,0,251,1389,2874,2725,2020,37,2869,3399,10.068,10.252,10.293,-3.005,-0.978,3.980,0.594,-2.799,9.629,0.007,0.063,0.090,angry
3.00,0,0,0,0,0,0,0,0,488,1597,3045,3118,2415,48,2897,3295,2.121,17.978,9.045,-2.514,-0.315,5.852,0.364,-1.982,10.003,0.025,-0.005,0.088,angry
3.01,0,0,0,0,0,0,0,0,703,1851,2848,3260,2600,51,2907,3177,-6.237,19.613,6.316,-1.718,0.755,5.445,0.354,-2.382,10.209,0.040,0.002,0.110,angry
3.02,0,0,0,0,0,0,0,0,1561,2140,3099,3493,2907,46,2824,2687,-13.709,19.613,2.179,-1.528,-0.216,3.817,0.699,-2.667,9.656,-0.037,-0.106,0.081,angry
3.03,0,0,0,0,0,0,0,0,2023,2349,3199,3707,2979,47,2427,1621,-7.173,19.613,-19.206,1.644,-0.601,1.243,0.804,-2.600,9.867,-0.181,-0.097,0.052,angry
3.04,0,0,0,0,0,0,0,2912,2264,2425,3173,3789,2619,46,1895,308,-4.827,-3.613,0.931,4.643,1.442,-0.637,0.788,-2.112,9.924,-0.329,-0.099,0.033,angry
3.05,0,0,0,0,0,0,1281,3665,2762,2702,3252,3924,1455,29,237,109,-8.914,4.216,8.890,3.445,-0.814,-0.415,0.527,0.883,9.888,-1.118,-0.196,-0.241,angry
3.06,816,0,0,0,656,0,2461,3750,3055,2505,3352,3955,249,10,247,25,8.878,19.613,19.613,-1.399,0.041,0.049,2.145,-1.238,9.811,-2.196,-1.176,-0.285,angry
3.07,1578,591,996,432,943,0,2832,3817,3109,2181,3268,3924,154,17,10,0,2.078,0.781,3.694,0.296,0.369,-0.225,1.702,-2.447,11.990,-3.084,-1.155,0.156,angry
3.08,1803,1166,2159,1750,1459,0,3057,3885,2511,1231,3173,3743,71,0,0,0,0.567,3.127,8.993,0.102,0.105,-0.090,2.588,-3.565,14.114,-6.549,0.402,1.808,angry
3.09,1942,1605,2614,2176,2115,171,3282,3931,1529,0,1906,1828,0,0,0,0,0.795,4.082,10.063,0.008,0.092,-0.076,4.865,-2.358,19.613,-8.731,-0.140,5.005,angry
3.10,2060,1923,2800,2399,2422,170,3386,3936,598,0,0,495,0,0,25,0,0.579,3.486,9.108,0.105,-0.023,-0.021,0.165,-17.655,18.555,-8.731,-0.426,4.647,angry
3.11,2118,2076,2966,2559,2626,384,3431,3935,0,18,0,0,0,0,0,0,0.402,3.764,9.390,0.020,0.092,-0.041,10.460,3.704,19.613,-2.881,1.294,6.042,angry
3.12,2205,2246,3091,2687,2720,166,3423,3955,0,0,0,0,0,0,0,0,0.170,3.455,9.321,0.025,0.092,-0.019,16.338,5.310,15.119,1.341,0.079,2.645,angry
3.13,2263,2288,3167,2742,2723,0,3362,3875,0,0,0,0,0,0,0,0,0.299,3.761,9.397,0.035,0.061,-0.003,12.869,7.099,12.230,2.103,0.052,1.622,angry
3.14,2259,2325,3200,2749,2703,0,3309,3831,0,0,0,0,0,0,0,0,0.323,3.666,9.361,0.014,0.084,-0.013,9.565,6.129,9.246,2.436,-0.168,0.532,angry
3.15,2257,2357,3214,2732,2619,0,3253,3828,0,0,0,0,0,0,0,0,0.299,3.591,9.352,0.005,0.082,-0.022,6.857,5.037,8.329,2.729,-1.123,-0.367,angry
3.16,2261,2427,3226,2721,2559,0,3184,3789,0,0,0,0,0,0,0,23,0.247,3.546,9.227,0.025,0.072,-0.024,4.963,4.379,7.891,2.867,-1.866,-0.971,angry
3.17,2244,2450,3246,2674,2603,0,3071,3737,0,0,0,0,0,0,0,0,0.345,3.594,9.266,0.049,0.044,-0.019,1.420,0.699,11.607,3.829,-2.071,-1.428,angry
3.18,2270,2489,3273,2721,2624,0,3041,3701,0,0,0,0,0,0,0,0,0.141,3.522,9.227,0.067,0.043,-0.033,-1.252,-2.006,13.903,4.969,-2.220,-1.431,angry
3.19,2336,2513,3318,2793,2726,0,3006,3678,2,0,0,0,54,0,11,0,0.323,3.503,9.330,0.075,0.059,-0.057,-2.248,-2.873,13.824,5.346,-2.310,-1.420,angry
3.20,2411,2543,3381,2912,2891,0,2978,3661,0,0,0,0,0,0,0,62,0.136,3.558,9.246,0.080,0.092,-0.071,-3.227,-4.551,13.640,5.501,-2.469,-1.205,angry
3.21,2413,2670,3488,3056,3056,0,3002,3632,0,0,0,0,0,0,0,3,0.168,3.496,9.155,0.107,0.090,-0.069,-0.323,-6.788,18.155,5.263,-2.983,-1.240,angry
3.22,2512,2830,3601,3213,3216,0,2933,3565,0,0,0,0,0,0,0,0,0.117,3.673,9.376,0.126,0.076,-0.056,1.046,-11.356,19.613,5.096,-3.059,-1.706,angry
3.23,2750,2967,3705,3372,3359,0,2832,3386,0,0,0,0,0,0,0,0,0.206,3.450,9.268,0.134,0.186,-0.053,-2.892,-19.613,19.613,4.785,-2.401,-2.479,angry
3.24,3005,3136,3808,3543,3475,0,2673,2779,0,0,0,0,0,0,0,0,0.165,3.304,9.457,0.218,0.235,-0.024,-5.631,-19.613,-2.416,2.495,-0.500,-2.690,angry
3.25,3231,3381,3890,3710,3330,0,2032,0,23,0,0,0,0,0,0,0,-0.084,4.214,9.443,0.251,0.318,-0.041,-10.776,-19.613,-7.523,1.139,0.293,-2.369,angry
3.26,3453,3579,3965,3810,2603,0,448,0,0,0,0,0,11,0,0,0,0.345,3.249,10.082,0.727,0.286,0.177,-9.153,-19.613,-12.148,-1.913,1.613,-1.681,angry
3.27,3666,3810,3940,3888,1577,0,419,0,0,0,0,0,0,0,157,2890,1.537,4.034,8.667,1.701,-0.019,0.723,-10.317,8.938,19.613,-3.240,2.477,1.669,angry
3.28,3843,3583,4029,3899,862,0,413,0,0,0,0,23,0,0,413,3611,0.804,1.336,8.703,3.090,-0.311,1.150,-11.849,-2.172,6.333,-5.252,-2.111,0.227,angry
3.29,3922,3041,3985,3760,528,0,197,0,0,3,0,0,0,0,1707,3839,2.102,5.193,8.930,4.633,0.999,0.870,19.613,-9.400,19.613,-3.126,-0.216,0.849,angry
3.30,3834,2416,3744,3230,0,0,0,0,0,0,0,0,0,0,2398,3949,3.419,7.901,10.803,7.095,1.783,0.599,-2.636,-4.642,18.024,-0.160,1.658,0.674,angry
3.31,3367,1402,3175,2832,0,0,0,0,0,0,0,0,0,0,2398,3949,2.758,9.287,19.613,8.731,-0.394,-1.232,-2.636,-4.642,18.024,-0.160,1.658,0.674,angry
3.32,1839,0,715,476,0,0,0,0,0,0,1699,479,245,0,2936,4043,0.936,6.754,19.613,8.731,-1.175,-4.517,-0.158,-2.411,10.733,0.040,0.397,0.174,angry
3.33,0,0,0,0,0,0,0,0,0,51,2167,1250,667,0,3293,4091,12.048,6.874,19.613,5.974,0.217,-4.446,1.494,-2.224,9.208,-0.056,0.337,0.069,angry
3.34,0,0,0,0,0,0,0,0,0,635,2444,1622,1161,3,3415,4095,5.794,19.613,19.613,0.938,0.884,-2.442,1.377,-2.875,9.823,-0.017,0.099,0.100,angry
3.35,0,0,0,0,0,0,0,0,0,1130,2549,1870,1658,2,3453,4091,11.966,-4.520,19.613,-0.641,0.145,-0.898,1.729,-2.186,9.969,-0.092,0.066,0.064,angry
3.36,0,0,0,0,0,0,0,0,1,1413,2689,2057,2073,1,3513,4051,6.974,-4.465,12.498,-2.314,0.684,-0.784,0.895,-2.734,10.180,0.022,0.075,0.031,angry
3.37,0,0,0,0,0,0,0,0,1,1413,2689,2057,2073,1,3513,4051,5.839,-2.911,9.986,-2.526,0.199,-0.423,0.895,-2.734,10.180,0.022,0.075,0.031,angry
3.38,0,0,0,0,0,0,0,0,5,1483,2725,2275,2279,9,3453,3900,6.060,-2.040,10.075,-3.193,-0.231,-0.083,1.228,-2.430,9.661,-0.034,0.113,0.064,angry
3.39,0,0,0,0,0,0,0,0,3,1561,2720,2395,2299,2,3351,3577,5.619,0.122,8.770,-4.071,-0.383,0.441,1.164,-2.452,9.797,-0.078,0.107,0.078,angry
3.40,0,0,0,0,0,0,0,0,1,1573,2725,2468,2279,2,3215,3475,4.640,1.949,9.383,-4.525,-0.485,0.718,0.900,-2.614,9.874,-0.074,0.085,0.079,angry
3.41,0,0,0,0,0,0,0,0,55,1549,2843,2516,2273,3,2971,3473,3.711,3.247,8.693,-5.042,-0.673,0.952,0.781,-2.662,9.725,-0.039,0.044,0.067,angry
3.42,0,0,0,0,0,0,0,0,1,1681,2889,2629,2293,3,2877,3379,3.069,3.768,7.341,-5.340,-0.794,1.099,0.804,-2.370,9.591,-0.047,0.050,0.073,angry
3.43,0,0,0,0,0,0,0,0,1,1816,2940,2745,2362,8,2733,3257,2.373,4.887,7.855,-5.379,-0.929,1.160,0.946,-2.411,9.771,-0.078,0.089,0.114,angry
3.44,0,0,0,0,0,0,0,0,3,1973,2933,2807,2470,3,2533,3107,1.743,6.402,9.675,-5.453,-1.233,1.222,0.816,-2.583,9.847,-0.104,0.079,0.139,angry
3.45,0,0,0,0,0,0,0,0,87,2094,2927,2971,2591,18,2490,2925,1.731,7.798,10.475,-5.527,-1.496,1.295,1.020,-2.562,9.790,-0.082,0.121,0.134,angry
3.46,0,0,0,0,0,0,0,0,125,2259,3043,3144,2839,30,2412,2683,1.765,8.914,11.332,-5.357,-1.731,1.400,0.555,-1.817,10.060,-0.047,0.086,0.136,angry
3.47,0,0,0,0,0,0,0,0,329,2460,3094,3419,3043,47,2375,2539,1.099,11.602,18.313,-4.919,-1.930,1.433,0.912,-2.897,9.172,0.028,0.096,0.118,angry
3.48,0,0,0,0,0,0,0,0,491,2557,3135,3511,3129,45,2531,2409,3.029,19.613,19.613,-5.209,-1.873,1.425,0.678,-2.425,9.632,-0.019,0.040,0.087,angry
3.49,0,0,0,0,0,0,0,0,1181,2651,3171,3702,3294,47,2447,1436,-4.662,19.613,10.250,-4.631,-1.450,1.706,0.967,-2.732,9.780,-0.175,0.010,0.064,angry
3.50,0,0,0,0,0,0,0,0,1609,2855,3232,3865,3308,33,2108,121,-10.467,19.613,-1.149,-2.770,-2.369,1.255,0.879,-2.473,9.689,-0.122,-0.002,0.063,angry
3.51,0,0,0,0,0,0,0,0,1973,2923,3263,3927,3125,24,1671,91,-8.878,19.613,-8.411,-0.738,-1.455,0.794,0.950,-2.662,9.720,-0.182,-0.021,0.072,angry
3.52,0,0,0,0,0,0,0,0,2487,3162,3309,4095,2487,72,159,0,-2.456,19.613,-19.613,2.445,0.254,1.472,0.259,-1.058,10.003,-1.321,0.051,-0.366,angry
3.53,0,0,0,0,0,0,607,2811,2870,3253,3380,3987,1203,2,343,0,-10.065,1.978,17.344,4.389,3.632,0.170,0.158,-0.584,10.357,-0.953,0.124,-0.176,angry
3.54,0,0,0,0,0,0,1285,3649,2995,3238,3414,3862,789,4,363,0,-19.613,3.206,7.939,5.427,0.107,-0.660,1.501,-1.956,9.491,-1.503,-0.080,-0.243,angry
3.55,417,0,0,0,437,0,2736,3791,3064,3069,3386,3413,799,1,123,0,19.613,19.613,19.613,1.938,5.604,-3.815,0.769,-0.575,11.167,-4.864,0.059,-0.757,angry
3.56,1872,1018,265,0,1199,0,3025,3811,1949,1015,3094,2567,981,0,0,0,-3.907,12.684,19.613,0.508,0.993,-0.444,-1.281,1.506,13.508,-8.731,-1.290,-0.358,angry
3.57,2099,1807,2510,2096,1895,0,3249,3853,1471,39,2175,1573,328,0,1,0,-0.962,4.427,9.438,0.096,0.364,-0.119,0.713,2.947,19.613,-8.731,-3.275,1.896,angry
3.58,2295,2062,2940,2687,2321,205,3383,3888,307,0,0,0,0,0,0,0,0.261,3.390,9.469,0.014,0.210,-0.044,2.385,-16.417,19.613,-8.731,-1.828,3.149,angry
3.59,2532,2289,3190,2939,2685,924,3467,3877,0,0,0,0,0,0,0,0,0.431,3.795,9.270,0.057,0.033,0.010,-3.045,-16.273,19.613,-0.467,1.210,3.878,angry
3.60,2652,2607,3343,3067,2864,343,3463,3839,0,0,0,0,0,0,0,0,0.273,3.718,9.404,0.007,0.068,0.019,7.618,5.717,19.613,0.530,-2.453,2.718,angry
3.61,2721,2727,3461,3157,2927,0,3345,3674,0,0,0,0,0,0,0,0,0.678,3.773,9.383,0.083,0.068,-0.009,10.089,4.820,13.827,3.385,-0.453,2.287,angry
3.62,2751,2860,3537,3216,2807,0,3066,3464,13,0,0,4,0,0,0,0,0.467,3.790,9.280,0.023,0.124,-0.050,7.836,1.324,9.436,4.956,-0.019,0.827,angry
3.63,2784,2901,3563,3255,2678,0,2875,3335,0,0,176,0,0,0,0,0,0.256,3.804,9.285,0.031,0.117,-0.035,5.760,0.050,8.945,5.311,-0.508,0.262,angry
3.64,2871,2971,3623,3312,2494,0,2338,3024,7,0,0,0,0,0,0,0,0.000,3.529,9.163,0.066,0.079,-0.021,4.621,-1.609,9.266,5.729,-1.076,-0.217,angry
3.65,2905,3057,3664,3365,2225,0,1904,2452,0,0,0,0,0,54,0,0,0.237,3.759,9.227,0.075,0.077,-0.032,3.934,-3.199,7.132,6.114,-1.448,-0.965,angry
3.66,2992,3114,3707,3439,2257,0,1627,1456,0,0,0,0,0,0,0,0,0.278,3.859,9.285,0.062,0.094,-0.030,1.137,-5.428,12.409,6.237,-1.761,-1.288,angry
3.67,3040,3145,3754,3502,2275,0,1535,1088,0,0,0,3,0,0,0,0,0.182,3.723,9.373,0.050,0.156,-0.024,0.589,-6.184,13.546,6.307,-2.203,-1.394,angry
3.68,3175,3182,3798,3583,2480,0,1492,836,0,0,0,0,0,0,0,0,0.072,3.864,9.515,0.132,0.216,-0.005,1.520,-7.666,16.680,6.133,-2.646,-1.622,angry
3.69,3328,3280,3853,3685,2625,0,1263,410,0,0,0,0,0,0,0,0,0.019,3.740,9.412,0.177,0.233,0.002,5.449,-16.451,19.613,5.871,-2.480,-2.450,angry
3.70,3447,3429,3899,3773,2559,0,890,0,0,0,0,0,0,0,0,0,-0.326,3.565,9.127,0.279,0.130,0.029,-0.170,-19.613,19.613,5.793,-2.612,-3.399,angry
3.71,3523,3494,3934,3821,2559,0,496,0,0,0,0,0,0,0,0,0,-0.146,3.699,9.692,0.313,0.135,0.044,0.881,-19.613,19.613,5.456,-1.844,-3.463,angry
3.72,3630,3540,3968,3877,2399,0,194,0,0,0,0,0,0,23,0,0,0.436,3.747,9.768,0.435,0.221,0.068,-2.181,-19.613,8.408,4.559,-1.079,-3.090,angry
3.73,3719,3630,3995,3898,2107,0,49,0,0,0,0,0,0,0,0,0,0.338,3.182,8.715,0.651,0.134,0.168,-7.233,-19.613,-2.545,3.278,-1.429,-2.455,angry
3.74,3822,3693,4015,3935,1831,0,0,0,0,0,0,0,47,0,0,0,-0.364,0.972,9.594,0.986,0.145,0.406,-7.853,-19.613,-7.238,1.570,-2.270,-2.590,angry
3.75,3903,3726,4035,3956,1436,0,0,0,0,0,0,26,0,0,0,0,-0.034,3.148,8.983,1.044,0.040,0.467,-8.758,-19.613,-11.856,-0.454,-2.262,-2.281,angry
3.76,3999,3696,4053,3981,971,0,0,0,0,0,12,0,0,0,0,0,0.642,2.203,9.524,1.577,-0.034,0.745,5.375,-19.613,-12.467,-3.862,0.892,-1.552,angry
3.77,4029,3487,4063,3981,588,0,0,0,0,0,0,0,0,0,237,1604,0.742,1.810,9.534,2.191,-0.098,0.852,8.753,13.218,19.613,-1.536,4.488,1.297,angry
3.78,4059,3346,4053,3979,496,0,0,0,0,0,0,0,0,0,141,3191,1.542,1.946,9.278,3.215,0.244,1.098,-19.613,9.258,7.664,-7.880,-3.139,-0.954,angry
3.79,4069,3151,4018,3903,568,0,0,0,0,0,0,0,0,0,671,3683,3.194,3.546,11.052,4.077,1.118,1.172,-8.215,-9.742,9.881,-6.861,-0.159,2.443,angry
3.80,4080,2931,3958,3825,2,0,0,0,0,0,28,0,0,0,1683,3912,1.604,5.136,5.456,5.042,1.535,1.041,3.996,-19.613,19.613,-5.379,-1.362,1.851,angry
3.81,4017,2640,3817,3554,0,0,0,0,0,0,0,0,149,25,2623,4006,-0.364,7.556,3.816,6.700,1.726,0.701,-6.000,-19.613,19.613,-1.742,3.064,0.555,angry
3.82,3374,944,2960,2611,0,0,0,0,5,725,263,0,639,37,3033,4071,-6.531,-0.903,19.613,8.731,-3.234,-2.660,-2.775,-5.930,19.613,-0.363,2.063,0.533,angry
3.83,1408,0,188,111,0,0,0,0,0,1299,0,0,1249,0,3175,4087,1.087,17.937,19.613,8.731,-2.021,-4.701,4.578,-3.175,8.820,0.091,1.408,0.444,angry
3.84,0,0,0,0,0,0,0,0,3,1565,1701,197,1821,2,3336,4095,6.555,8.248,19.613,7.542,-0.496,-4.761,1.156,-7.094,13.398,-0.185,0.558,0.324,angry
3.85,0,0,0,0,0,0,0,0,1,1767,1561,715,2193,1,3476,4095,1.022,19.613,19.613,1.583,0.463,-3.655,1.259,-2.555,10.183,0.036,0.374,0.178,angry
3.86,0,0,0,0,0,0,0,0,3,1965,1545,1237,2360,1,3577,4095,6.081,-1.585,19.613,0.149,-1.470,-2.365,0.237,-3.179,8.404,0.136,0.219,0.283,angry
3.87,0,0,0,0,0,0,0,0,2,2067,2147,1709,2483,1,3627,4095,13.645,1.918,13.585,-1.306,-0.953,-1.924,1.369,-2.993,9.852,-0.039,0.167,0.192,angry
3.88,0,0,0,0,0,0,0,0,3,2189,2398,2297,2647,2,3568,4043,7.257,-2.808,7.865,-2.123,-0.887,-1.113,0.431,-2.832,10.333,0.006,0.153,0.100,angry
3.89,0,0,0,0,0,0,0,0,2,2173,2531,2479,2698,3,3557,3987,5.313,-3.148,7.154,-2.438,-1.403,-0.551,0.860,-2.610,9.819,-0.060,0.159,0.088,angry
3.90,0,0,0,0,0,0,0,0,5,2231,2597,2614,2712,53,3417,3902,5.035,-2.442,7.405,-2.599,-1.816,-0.071,0.931,-2.727,9.907,-0.051,0.165,0.091,angry
3.91,0,0,0,0,0,0,0,0,43,2383,2710,2867,2651,16,2931,3549,4.614,0.005,9.878,-3.383,-1.823,0.779,0.816,-2.495,9.677,-0.082,0.148,0.074,angry
3.92,0,0,0,0,0,0,0,0,126,2318,2771,2999,2588,31,2585,3211,2.725,0.680,10.125,-4.091,-1.578,1.199,0.625,-2.693,9.835,-0.104,0.128,0.073,angry
3.93,0,0,0,0,0,0,0,0,155,2351,2817,3059,2585,35,2299,2837,-1.295,1.638,10.051,-4.797,-1.673,1.436,0.704,-2.660,9.725,-0.106,0.104,0.058,angry
3.94,0,0,0,0,0,0,0,0,574,2407,2897,3247,2588,51,2027,2362,-3.512,3.077,10.233,-5.327,-1.907,1.226,0.706,-2.686,9.744,-0.119,0.102,0.038,angry
3.95,0,0,0,0,0,0,0,0,995,2411,2971,3443,2611,51,1759,1625,-4.197,4.226,11.382,-5.286,-2.278,0.872,0.766,-2.679,9.685,-0.107,0.077,0.027,angry
3.96,0,0,0,0,0,0,0,0,1178,2403,3063,3501,2661,47,1597,1229,-2.464,7.494,15.155,-5.383,-2.653,0.707,0.488,-2.775,9.752,-0.013,0.055,0.046,angry
3.97,0,0,0,0,0,0,0,0,1651,2428,3124,3719,2697,49,1463,635,-1.628,9.809,19.594,-5.498,-2.926,0.928,0.637,-2.622,10.010,-0.142,0.030,0.035,angry
3.98,0,0,0,0,0,0,0,0,2054,2476,3163,3797,2750,10,1014,13,3.297,18.950,19.613,-5.284,-2.835,1.398,0.800,-3.189,9.562,-0.065,-0.018,0.070,angry
3.99,0,0,0,0,0,0,0,0,2135,2504,3206,3875,2717,5,531,4,-2.641,19.613,17.518,-4.446,-2.425,2.445,0.685,-2.631,9.579,-0.102,0.018,0.058,angry
4.00,0,0,0,0,0,0,0,0,2362,2661,3227,3893,2629,3,413,0,0.974,19.613,10.537,-4.286,-1.347,2.472,0.790,-2.835,9.929,-0.215,-0.003,0.026,angry
4.01,0,0,0,0,0,0,0,0,2567,2669,3258,3967,2457,0,25,0,-1.714,19.613,-2.282,-3.910,-0.010,2.988,0.625,-2.978,9.967,-0.339,0.027,-0.030,angry
4.02,0,0,0,0,0,0,0,0,2635,2808,3268,4046,2039,0,3,0,-13.340,19.613,-15.531,-2.628,0.636,2.551,0.283,-2.296,9.610,-0.704,0.113,-0.212,angry
4.03,0,0,0,0,0,0,0,0,2799,2864,3309,4088,1507,0,1,0,-18.742,19.613,-19.613,0.199,-0.763,2.823,0.718,-2.974,9.409,-0.604,0.056,-0.208,angry
4.04,0,0,0,0,0,0,0,688,2973,2968,3324,4095,905,0,7,0,-9.445,19.613,-19.613,3.886,0.005,2.875,0.390,-2.844,9.380,-0.681,0.046,-0.303,angry
4.05,0,0,0,0,0,0,509,2610,3145,3016,3329,4095,550,0,95,0,-2.844,-14.475,-0.982,3.215,4.750,-0.269,0.539,-2.286,9.498,-0.904,-0.017,-0.365,angry
4.06,0,0,0,0,0,0,1105,3725,3351,3037,3345,3892,587,2,27,0,-19.613,9.481,7.132,6.726,-0.923,-0.120,1.506,-2.308,10.108,-1.977,-0.796,-0.516,angry
4.07,109,0,0,0,174,0,2659,3920,3349,2507,3411,3755,331,4,0,0,4.669,15.165,19.613,4.168,0.019,-0.961,1.089,-2.844,9.230,-5.347,0.430,-1.171,angry
4.08,1690,729,0,0,1087,0,3181,3887,3059,1627,3467,3741,290,0,0,0,9.783,-1.872,2.284,0.297,3.407,-1.108,0.249,-4.422,7.987,-8.731,1.249,-0.062,angry
4.09,1989,2002,2367,1098,2047,0,3349,3863,1287,0,2162,2012,0,0,0,0,1.092,8.025,12.048,0.119,0.863,-0.270,7.293,-8.454,19.613,-8.731,-2.484,4.731,angry
4.10,2183,2371,3014,2517,2476,0,3435,3883,59,0,23,0,0,0,0,0,-0.091,4.391,10.285,0.032,0.373,-0.072,4.029,-13.542,19.613,-8.731,0.388,4.839,angry
4.11,2403,2597,3277,2933,2766,0,3504,3866,0,0,110,0,0,0,0,0,0.606,4.135,9.388,0.007,0.156,-0.014,17.459,-4.518,17.243,-3.469,1.950,5.830,angry
4.12,2587,2839,3456,3121,2949,0,3519,3827,0,0,0,0,0,0,0,0,0.017,3.584,9.242,-0.007,0.113,-0.001,13.352,2.102,19.613,0.534,-1.212,1.719,angry
4.13,2663,2992,3554,3230,3080,0,3443,3703,0,0,0,0,1,0,0,0,0.316,3.546,9.380,0.042,0.073,0.022,9.799,3.895,7.520,2.702,0.920,0.613,angry
4.14,2699,3086,3615,3277,3067,0,3344,3570,0,0,0,0,0,0,0,0,0.546,3.814,9.440,0.073,0.060,0.006,6.864,3.033,7.365,2.966,0.324,-0.060,angry
4.15,2751,3185,3643,3297,3040,0,3184,3408,0,0,0,0,0,0,0,0,0.721,3.821,9.294,0.060,0.080,-0.027,5.502,1.846,7.697,3.327,-0.427,-0.528,angry
4.16,2773,3246,3670,3333,2954,0,2993,3217,16,0,0,0,0,0,0,0,0.615,3.938,9.273,0.071,0.069,-0.037,5.095,0.364,8.471,3.721,-1.089,-0.903,angry
4.17,2832,3323,3696,3358,2673,0,2549,2746,0,0,0,0,0,0,0,0,0.359,3.869,9.325,0.092,0.045,-0.036,4.717,-1.032,9.268,4.268,-1.446,-1.240,angry
4.18,2857,3373,3728,3393,2379,0,2160,1587,0,0,0,70,0,0,0,0,0.151,3.615,9.239,0.109,0.037,-0.043,3.306,-2.998,8.961,5.253,-1.329,-1.634,angry
4.19,2882,3408,3760,3433,2352,0,1889,1035,0,0,0,0,3,0,0,0,0.409,3.845,9.153,0.102,0.037,-0.043,0.350,-5.080,11.267,5.949,-1.669,-1.521,angry
4.20,2942,3463,3793,3483,2462,0,1775,885,0,0,0,0,0,0,0,0,0.421,3.903,9.172,0.079,0.062,-0.046,0.151,-5.203,10.908,5.989,-2.084,-1.439,angry
4.21,3039,3485,3824,3536,2607,0,1766,864,4,0,0,0,0,0,0,0,0.182,3.651,9.203,-0.003,0.126,-0.005,0.141,-7.075,14.660,5.875,-2.554,-1.232,angry
4.22,3165,3517,3854,3622,2766,0,1722,851,0,0,0,0,0,0,0,0,0.177,4.001,9.304,0.022,0.156,0.006,1.568,-10.458,19.613,5.814,-3.175,-1.419,angry
4.23,3289,3568,3894,3699,2896,0,1673,304,0,0,0,60,0,0,0,36,0.268,3.764,9.280,0.082,0.182,0.020,3.598,-16.374,19.613,5.719,-3.276,-1.798,angry
4.24,3410,3641,3952,3770,2917,0,1379,0,0,0,0,0,0,0,0,0,0.077,3.876,9.261,0.189,0.260,0.047,-0.354,-19.613,19.613,4.589,-3.159,-2.469,angry
4.25,3486,3728,3968,3817,2833,0,1043,0,0,0,0,0,0,0,3,0,0.002,3.687,10.005,0.256,0.304,0.048,-4.417,-19.613,12.232,3.736,-2.871,-2.310,angry
4.26,3632,3827,4011,3875,2453,0,330,0,0,0,0,0,0,0,0,0,0.235,3.771,9.950,0.474,0.296,0.065,-10.034,-19.613,-8.303,1.345,-2.849,-2.273,angry
4.27,3729,3886,4031,3907,2160,0,21,0,0,0,0,7,0,0,5,0,-0.369,2.373,9.555,0.781,0.228,0.251,-14.456,-19.613,-10.834,-0.067,-1.749,-1.605,angry
4.28,3876,3943,4063,3946,1535,0,0,0,0,0,0,0,0,0,0,0,-0.453,3.033,8.523,1.062,0.111,0.446,-11.222,-19.613,-17.684,-4.640,-0.715,-2.285,angry
4.29,3959,3900,4078,3952,934,0,0,0,0,0,0,0,0,0,435,1249,-0.019,1.870,8.100,1.847,-0.194,0.715,1.185,19.613,19.613,-2.069,5.202,0.252,angry
4.30,3989,3714,4080,3931,891,0,0,0,0,0,0,0,0,0,249,2992,2.030,1.858,9.596,2.701,0.007,0.875,-19.613,11.250,-0.778,-6.779,-1.092,-0.891,angry
4.31,4014,3340,4032,3835,422,0,0,0,0,0,0,0,0,0,1277,3775,2.933,3.484,11.212,4.357,0.626,0.928,0.453,-19.613,19.613,-4.116,-0.017,2.208,angry
4.32,3898,2946,3872,3566,0,0,0,0,31,0,0,0,0,0,2517,3983,3.450,9.122,8.191,5.973,0.809,0.767,-10.455,-12.673,19.613,-1.233,6.474,2.393,angry
4.33,2947,1883,3088,2446,0,0,0,0,0,409,0,0,199,0,2851,4069,-0.220,3.596,19.613,8.731,-2.873,-1.142,-1.106,-3.852,16.764,-0.098,1.694,0.299,angry
4.34,624,15,443,320,0,0,0,0,1,1273,1389,715,559,1,3117,4095,-2.595,15.131,19.613,8.731,-2.346,-3.502,1.377,-3.112,9.711,-0.131,0.614,0.268,angry
4.35,0,0,0,0,0,0,0,0,2,1375,1494,1577,911,1,3221,4095,15.617,6.467,19.613,3.695,-0.497,-4.299,0.800,-3.127,10.386,0.043,0.470,0.162,angry
4.36,0,0,0,0,0,0,0,0,0,1633,2106,1885,1391,2,3341,4095,1.204,10.719,19.613,0.205,0.353,-2.525,0.711,-2.251,9.622,-0.017,0.216,0.128,angry
4.37,0,0,0,0,0,0,0,0,0,1845,2218,2229,1973,0,3512,4095,6.663,-2.502,19.613,-0.719,-0.848,-1.768,1.214,-2.988,10.183,-0.012,0.142,0.101,angry
4.38,0,0,0,0,0,0,0,0,2,1957,2710,2687,2345,2,3547,4095,6.007,-4.477,10.882,-2.275,-0.219,-1.652,0.723,-2.516,10.161,-0.010,0.091,0.051,angry
4.39,0,0,0,0,0,0,0,0,79,2123,2817,2877,2541,1,3499,4020,5.844,-1.197,8.768,-2.937,-0.711,-0.966,0.910,-2.540,9.929,-0.009,0.106,0.055,angry
4.40,0,0,0,0,0,0,0,0,0,2120,2838,2983,2645,4,3411,3951,6.402,0.012,7.942,-3.717,-0.854,-0.132,1.061,-2.538,9.867,-0.029,0.117,0.076,angry
4.41,0,0,0,0,0,0,0,0,2,2199,2848,3048,2631,3,3316,3859,5.552,0.790,7.896,-4.239,-0.820,0.309,0.943,-2.696,9.629,-0.049,0.116,0.095,angry
4.42,0,0,0,0,0,0,0,0,1,2258,2876,3113,2596,2,3119,3701,3.876,1.719,7.970,-4.681,-0.876,0.685,0.771,-2.643,9.843,-0.057,0.141,0.092,angry
4.43,0,0,0,0,0,0,0,0,16,2348,2884,3198,2507,5,2779,3485,2.856,2.356,7.223,-4.988,-0.923,0.881,0.771,-2.626,9.811,-0.056,0.120,0.078,angry
4.44,0,0,0,0,0,0,0,0,0,2386,2897,3263,2420,13,2473,3167,1.039,2.849,7.690,-5.106,-1.131,0.930,0.778,-2.555,9.912,-0.042,0.095,0.082,angry
4.45,0,0,0,0,0,0,0,0,87,2439,2920,3351,2311,23,2333,2777,0.354,4.393,9.333,-5.223,-1.519,0.938,0.948,-2.787,9.912,-0.064,0.085,0.074,angry
4.46,0,0,0,0,0,0,0,0,135,2451,2925,3400,2257,29,2197,2655,0.084,5.497,10.867,-5.365,-1.876,0.958,0.687,-2.648,9.560,-0.038,0.067,0.061,angry
4.47,0,0,0,0,0,0,0,0,409,2556,2945,3421,2387,16,1824,2487,0.194,7.554,12.919,-5.549,-2.149,0.974,0.673,-2.502,9.981,-0.090,0.031,0.037,angry
4.48,0,0,0,0,0,0,0,0,741,2670,3012,3543,2475,50,1791,2135,0.663,8.377,15.550,-5.262,-2.376,1.170,0.666,-2.725,9.919,-0.068,0.005,0.046,angry
4.49,0,0,0,0,0,0,0,0,1005,2675,3099,3616,2552,46,1907,1904,5.231,16.187,19.613,-4.683,-2.543,1.624,0.488,-2.514,10.106,-0.082,-0.007,0.046,angry
4.50,0,0,0,0,0,0,0,0,1276,2766,3132,3743,2707,47,1567,1301,0.539,19.613,17.071,-3.812,-2.074,2.968,0.929,-2.598,9.455,-0.080,-0.051,0.052,angry
4.51,0,0,0,0,0,0,0,0,1927,2847,3209,3885,2807,41,1311,211,1.551,19.613,10.343,-3.537,-0.835,2.829,0.697,-2.988,9.589,-0.112,0.016,0.060,angry
4.52,0,0,0,0,0,0,0,0,2009,2872,3206,3949,2713,59,925,69,-10.479,19.613,-7.324,-2.875,-0.037,2.857,1.109,-2.684,9.479,-0.120,0.016,0.076,angry
4.53,0,0,0,0,0,0,0,0,2487,2959,3265,4062,2185,0,2,0,-14.981,19.613,-19.613,0.758,-0.635,2.001,0.409,-2.121,9.692,-0.495,0.119,-0.080,angry
4.54,0,0,0,0,0,0,0,1041,2637,2996,3293,4095,1531,0,43,0,-4.003,19.613,-19.613,3.511,0.249,1.958,0.431,-2.981,9.898,-1.007,0.203,-0.345,angry
4.55,0,0,0,0,0,0,880,3427,2927,3087,3181,4095,541,0,9,0,-19.613,-18.414,19.613,5.630,1.848,-0.930,1.887,-2.325,9.589,-1.062,0.061,-0.433,angry
4.56,3,0,0,0,0,0,1574,3711,3103,3031,3327,4060,283,0,0,0,-2.787,19.379,6.021,4.873,0.973,-1.846,2.990,-1.020,10.087,-1.684,-0.609,-0.466,angry
4.57,1386,530,0,0,645,0,2699,3727,3157,2295,3350,3887,121,0,0,0,-19.613,15.567,19.613,0.415,2.000,-0.060,3.881,-4.939,9.261,-4.503,0.154,-0.583,angry
4.58,1920,1922,2415,1685,1232,0,2909,3675,2099,539,3150,3546,29,0,0,37,1.985,-0.611,3.062,0.542,0.851,-0.231,-0.970,-0.115,19.132,-8.731,0.699,1.047,angry
4.59,2253,2400,3134,2770,2033,0,3175,3750,1419,0,2259,2601,0,0,0,0,-0.251,3.936,9.957,0.055,0.138,-0.071,3.285,-4.336,19.613,-8.731,-0.978,3.264,angry
4.60,2516,2624,3280,2999,2554,0,3351,3805,45,0,0,292,0,0,0,0,0.340,3.582,8.923,0.028,0.128,-0.052,-0.218,-8.600,19.613,-8.731,-0.699,4.593,angry
4.61,2704,2827,3415,3157,2789,0,3433,3823,0,0,0,0,0,0,0,0,0.725,4.144,9.448,0.085,-0.030,-0.007,-1.666,-19.613,19.613,0.081,1.545,4.624,angry
4.62,2832,2992,3527,3265,3027,0,3469,3774,0,0,0,0,0,0,0,0,0.285,3.546,9.062,0.032,0.034,0.010,8.657,2.392,19.613,-0.095,-2.690,3.154,angry
4.63,2865,3085,3569,3321,3071,0,3444,3723,0,0,0,0,98,0,0,0,0.283,3.759,9.258,0.031,0.040,0.009,15.452,-1.516,8.985,1.345,-0.678,2.579,angry
4.64,2928,3216,3639,3360,3160,0,3344,3581,0,0,0,0,0,0,0,0,0.584,4.025,9.610,0.052,0.022,-0.006,8.871,1.997,5.373,2.473,0.420,0.704,angry
4.65,2949,3294,3653,3378,3121,0,3195,3479,0,0,0,0,0,0,0,0,0.639,3.783,9.208,0.064,0.028,-0.027,6.766,2.002,4.496,2.736,-0.027,-0.164,angry
4.66,2951,3340,3696,3401,3038,0,3061,3369,35,0,0,0,0,0,0,0,0.572,3.883,9.220,0.054,0.056,-0.038,5.564,1.762,4.326,2.764,-0.691,-0.881,angry
4.67,2973,3391,3699,3423,2953,0,2737,3139,0,0,0,0,0,0,0,0,0.196,3.905,9.184,0.081,0.043,-0.026,3.627,0.369,6.467,3.169,-1.308,-1.765,angry
4.68,2991,3411,3714,3433,2806,0,2541,2960,0,0,0,0,0,0,0,0,0.316,3.816,9.227,0.063,0.033,-0.032,2.658,-0.721,7.781,3.513,-1.242,-1.961,angry
4.69,3023,3458,3734,3456,2597,0,2196,2432,0,0,0,0,0,0,0,0,0.342,3.783,9.294,0.092,0.029,-0.047,1.539,-2.265,10.139,3.987,-1.217,-2.010,angry
4.70,3045,3488,3804,3478,2658,0,2037,1629,0,0,0,0,0,0,0,0,0.309,3.852,9.218,0.069,0.048,-0.049,-0.409,-5.071,12.878,5.129,-1.575,-1.867,angry
4.71,3115,3510,3792,3527,2674,0,1938,1365,0,16,0,0,0,0,0,0,0.328,3.800,9.222,0.075,0.060,-0.052,-1.741,-6.551,11.868,5.488,-1.758,-1.444,angry
4.72,3191,3543,3812,3569,2800,0,1905,1239,13,0,0,0,0,0,0,0,0.366,3.998,9.287,0.045,0.082,-0.036,-2.667,-7.762,13.410,5.508,-1.982,-1.132,angry
4.73,3280,3536,3838,3633,2928,0,1885,1113,0,0,0,0,0,0,0,0,0.271,3.970,9.232,0.031,0.122,0.001,-2.564,-10.166,17.669,5.495,-2.449,-0.737,angry
4.74,3385,3600,3874,3693,2965,0,1805,718,0,0,0,0,0,0,0,22,0.268,3.833,9.359,0.079,0.157,0.016,-1.413,-19.613,18.895,5.472,-2.751,-1.435,angry
4.75,3472,3651,3917,3763,2949,0,1635,0,0,0,0,0,0,0,0,0,0.326,4.161,9.565,0.122,0.209,0.045,-5.964,-19.613,14.121,4.816,-2.021,-1.145,angry
4.76,3570,3701,3887,3760,2893,0,1174,0,0,0,0,0,0,0,0,53,0.503,3.891,9.625,0.213,0.245,0.066,-10.664,-19.613,4.480,3.896,-2.057,-0.501,angry
4.77,3661,3783,3981,3859,2455,0,185,0,0,0,0,0,0,0,0,0,0.309,3.565,9.474,0.545,0.306,0.138,-10.939,-19.613,-9.304,0.325,-1.574,0.054,angry
4.78,3735,3824,3996,3887,2214,0,0,0,72,0,0,0,0,0,0,0,0.311,4.132,9.364,0.621,0.304,0.098,-7.889,-19.613,-9.246,-1.297,-0.594,0.123,angry
4.79,3794,3846,4006,3913,1749,0,0,0,0,0,0,0,0,0,0,0,0.139,4.142,9.105,1.036,0.311,0.370,11.423,-19.613,-13.096,-2.249,3.123,-0.680,angry
4.80,3855,3842,4023,3918,1387,0,0,0,0,0,0,0,0,0,270,1885,-0.055,3.555,9.989,1.200,0.275,0.427,-8.444,19.048,19.613,-1.120,4.761,0.725,angry
4.81,3920,3574,4019,3835,875,0,0,0,0,0,0,0,0,0,461,3691,1.776,3.110,9.210,2.196,0.086,0.760,-16.355,-3.163,0.977,-5.508,-0.582,1.297,angry
4.82,3933,3329,3984,3841,539,0,0,0,0,0,0,0,0,92,1452,3892,0.919,2.231,9.388,3.228,0.212,0.826,19.613,-11.025,19.613,-2.842,-1.677,1.885,angry
4.83,3857,2993,3827,3600,173,0,0,0,0,549,2,0,0,0,2360,4003,-1.324,2.116,9.208,5.023,0.097,-0.148,-13.791,-16.372,19.613,-1.266,1.164,-0.840,angry
4.84,3291,2121,2988,2432,0,0,0,0,1,1549,1471,811,83,1,2607,4049,-3.639,4.247,19.613,7.550,-2.975,-1.172,5.363,-3.400,10.202,-0.411,1.001,0.282,angry
4.85,1245,299,464,140,0,0,0,0,1,2023,2615,2445,438,2,2969,4057,1.348,15.677,19.613,8.731,-1.980,-3.227,0.972,-3.450,9.582,-0.123,0.406,-0.015,angry
4.86,0,0,0,0,0,0,0,0,0,2089,2812,2683,596,1,3027,4073,19.613,3.395,15.890,2.055,2.868,-2.956,0.170,-2.480,9.979,-0.050,0.257,0.009,angry
4.87,0,0,0,0,0,0,0,0,1,2235,2807,2905,893,2,3151,4087,6.713,5.830,19.613,0.451,2.744,-0.379,0.622,-2.940,9.816,-0.013,0.140,-0.014,angry
4.88,0,0,0,0,0,0,0,0,1,2328,2858,3062,1261,3,3288,4066,7.769,0.871,13.410,-0.054,2.042,0.389,0.563,-2.351,9.586,-0.045,0.062,-0.019,angry
4.89,0,0,0,0,0,0,0,0,0,2431,2853,3198,1800,1,3373,4045,7.187,-1.578,11.310,-1.071,2.147,0.848,0.903,-2.725,9.778,-0.031,0.048,0.004,angry
4.90,0,0,0,0,0,0,0,0,1,2615,2899,3339,2125,0,3347,3975,5.806,-1.645,7.386,-1.488,2.257,1.218,1.099,-2.610,9.682,-0.042,0.059,0.014,angry
4.91,0,0,0,0,0,0,0,0,5,2735,2945,3401,2351,1,3372,3929,3.797,-2.485,6.577,-1.953,2.180,1.473,0.879,-2.682,10.065,-0.027,0.129,0.023,angry
4.92,0,0,0,0,0,0,0,0,0,2827,3002,3502,2491,3,3356,3851,2.976,-1.793,5.830,-2.405,1.979,1.662,0.716,-2.792,9.668,-0.015,0.073,0.039,angry
4.93,0,0,0,0,0,0,0,0,1,2885,3009,3535,2525,1,3349,3743,3.005,-1.808,4.585,-2.830,1.939,1.745,0.871,-2.602,9.768,-0.054,0.135,0.026,angry
4.94,0,0,0,0,0,0,0,0,31,2921,3053,3593,2532,51,3114,3549,2.938,-0.869,4.647,-3.175,2.002,1.749,0.903,-2.808,9.586,-0.071,0.102,0.029,angry
4.95,0,0,0,0,0,0,0,0,85,2988,3078,3641,2451,77,2989,3320,2.914,0.718,5.533,-3.505,1.936,1.731,0.792,-2.679,9.773,-0.079,0.106,0.009,angry
4.96,0,0,0,0,0,0,0,0,174,3013,3099,3704,2515,45,2780,3048,3.582,2.413,6.414,-3.870,1.732,1.746,0.879,-2.818,9.821,-0.078,0.090,0.005,angry
4.97,0,0,0,0,0,0,0,0,233,3021,3130,3730,2539,0,2453,2776,4.800,3.627,6.323,-4.273,1.700,1.866,0.972,-3.005,9.694,-0.063,0.070,0.021,angry
4.98,0,0,0,0,0,0,0,0,239,3096,3145,3763,2556,122,2260,2329,4.932,3.735,5.399,-4.467,1.750,2.021,0.974,-2.935,9.740,-0.043,0.087,0.036,angry
4.99,0,0,0,0,0,0,0,0,466,3155,3150,3768,2535,47,1911,1581,3.943,3.491,5.011,-4.210,1.385,2.287,0.848,-2.655,9.713,-0.068,0.074,0.062,angry
5.00,0,0,0,0,0,0,0,0,628,3189,3130,3813,2343,51,1749,1284,4.305,6.701,10.123,-4.011,0.457,2.527,0.943,-2.729,9.929,-0.093,0.044,0.048,angry
5.01,0,0,0,0,0,0,0,0,751,3165,3160,3799,1927,51,1035,920,17.439,12.811,9.560,-3.931,0.193,3.938,0.764,-2.849,10.106,-0.064,0.040,0.056,angry
5.02,0,0,0,0,0,0,0,0,910,3303,3165,3822,1915,47,665,519,19.613,19.613,3.766,-3.060,3.109,7.479,0.821,-2.820,9.606,-0.060,0.042,0.062,angry
5.03,0,0,0,0,0,0,0,0,1167,3156,3101,3817,1949,47,616,379,19.613,19.613,-0.821,-1.928,3.967,8.731,0.713,-2.842,9.759,-0.101,0.012,0.061,angry
5.04,0,0,0,0,109,0,0,0,1635,3199,3186,3829,2030,8,435,21,19.613,19.613,-12.577,0.302,4.998,8.731,0.795,-3.170,9.498,0.023,-0.024,0.109,angry
5.05,0,0,0,0,73,0,0,0,1876,3286,3176,3753,2282,3,489,0,6.428,19.613,-14.265,2.506,5.061,8.731,0.694,-3.098,9.778,0.085,-0.015,0.124,angry
5.06,0,0,0,0,0,0,0,0,1662,3307,3142,3771,2397,20,715,75,0.771,19.613,-5.868,3.059,4.010,8.731,0.345,-3.026,9.917,0.141,-0.017,0.158,angry
5.07,208,667,1570,252,657,0,0,0,1882,3290,3158,3705,2315,47,1108,333,-19.613,-19.613,19.613,-4.896,8.147,4.664,-0.302,-2.871,10.070,0.330,-0.046,0.287,angry
5.08,845,2070,2369,337,1086,0,0,0,1739,3207,3099,3513,2288,47,1753,1099,14.138,18.423,1.973,-2.226,-0.020,-0.949,-1.865,-1.750,10.017,0.549,-0.229,0.652,angry
5.09,1123,2507,2868,894,1903,0,1584,448,855,2833,3181,2971,1885,45,2213,2917,4.065,1.808,7.412,0.633,-0.195,-0.807,-9.141,-0.948,11.703,0.222,-0.797,2.345,angry
5.10,1701,2659,3174,2254,2287,0,2672,2960,269,2283,2904,2589,775,63,2013,3415,-0.891,3.431,8.253,0.121,0.133,-0.491,-12.998,-4.827,9.495,0.404,-1.555,5.764,angry
5.11,2011,2440,3130,2559,2483,0,2957,3410,153,1451,2574,2253,135,27,894,3429,-0.599,4.317,8.550,0.059,-0.231,-0.197,-5.555,-7.824,10.546,0.403,-1.974,6.983,angry
5.12,2119,2540,3069,2479,2702,0,3233,3619,0,0,2065,1019,0,0,0,3001,0.309,2.995,8.322,-0.050,-0.296,-0.048,-3.033,-11.377,9.874,0.764,-2.197,8.027,angry
5.13,1950,2586,3023,2103,2857,0,3375,3694,0,0,0,0,0,0,0,1445,1.255,3.515,9.706,-0.136,-0.131,-0.025,0.584,-11.454,8.344,1.379,-1.940,8.666,angry
5.14,1823,2682,3001,1840,2999,0,3443,3750,0,0,0,0,0,53,0,851,1.674,3.855,9.325,-0.025,-0.037,-0.017,-1.120,-12.591,11.973,1.649,-1.948,8.731,angry
5.15,1809,2703,2998,1840,3025,0,3441,3788,0,0,0,0,0,0,0,192,0.879,2.167,9.143,0.105,0.069,0.011,6.673,-12.275,8.025,2.291,-1.571,8.158,angry
5.16,1889,2689,3014,1936,3064,0,3425,3801,0,0,0,0,0,0,0,187,0.431,3.529,9.397,0.072,0.077,-0.040,-0.867,-9.708,7.889,0.689,-1.430,6.350,angry
5.17,1916,2652,3007,1918,3041,0,3408,3822,0,0,0,0,0,0,0,30,0.335,3.510,9.088,0.039,0.059,-0.013,-0.869,-8.662,8.090,0.532,-1.494,5.901,angry
5.18,1876,2640,3031,1915,3024,0,3386,3817,0,0,0,0,0,0,0,0,0.448,3.469,9.301,0.057,0.043,-0.014,-3.950,-6.177,6.955,0.009,-0.846,5.489,angry
5.19,1888,2672,3104,2129,3008,0,3402,3813,0,1,0,0,0,0,0,69,0.457,3.421,9.306,0.127,0.037,-0.028,-0.563,-5.061,8.566,-0.226,-0.551,4.874,angry
5.20,1968,2703,3184,2391,3009,0,3382,3808,0,0,0,0,0,0,0,0,0.426,3.718,9.347,0.134,0.054,-0.028,0.091,-4.197,8.770,-0.195,-0.396,4.413,angry
5.21,2003,2734,3245,2559,3051,0,3387,3796,0,0,0,0,0,0,0,0,0.373,3.560,9.366,0.078,0.035,-0.006,0.579,-3.165,8.454,-0.093,-0.354,3.621,angry
5.22,1983,2767,3290,2659,3114,0,3408,3790,0,0,0,0,0,0,0,0,0.297,3.469,9.292,0.070,0.047,-0.002,0.187,-2.911,8.815,0.125,-0.280,3.199,angry
5.23,2007,2766,3301,2740,3152,6,3418,3771,0,0,0,0,0,0,0,0,0.455,3.512,9.352,0.097,0.056,-0.016,0.041,-3.043,8.918,0.306,-0.268,3.113,angry
5.24,2103,2786,3339,2810,3175,26,3423,3750,0,16,0,0,0,0,0,0,0.354,3.505,9.294,0.109,0.066,-0.020,-0.350,-2.942,8.174,0.429,-0.252,3.137,angry
5.25,2212,2838,3412,2946,3200,135,3418,3706,0,0,0,0,0,0,0,0,0.321,3.591,9.431,0.116,0.081,-0.022,-0.917,-3.146,7.757,0.457,-0.308,3.283,angry
5.26,2355,2896,3501,3071,3225,101,3386,3600,0,0,0,0,0,0,0,0,0.204,3.496,9.325,0.152,0.090,-0.021,1.113,-4.568,8.416,0.663,-0.464,3.561,angry
5.27,2490,2943,3559,3174,3210,0,3312,3236,0,0,0,0,0,0,0,0,0.189,3.493,9.323,0.182,0.098,0.000,1.860,-5.028,5.655,0.539,-0.397,3.409,angry
5.28,2559,2997,3601,3259,3239,0,3216,2966,0,0,0,0,0,0,0,0,0.134,3.591,9.316,0.192,0.121,0.022,2.574,-5.341,4.961,0.293,-0.462,3.301,angry
5.29,2693,3058,3645,3330,3250,0,3064,2779,0,29,0,0,0,0,0,0,0.105,3.419,9.318,0.228,0.161,0.060,3.637,-5.665,4.954,-0.001,-0.555,3.096,angry
5.30,2914,3088,3718,3473,3298,0,2786,2041,0,0,0,0,0,0,23,0,0.002,3.625,9.503,0.243,0.286,0.215,5.418,-5.653,4.319,-0.313,-0.699,2.695,angry
5.31,3047,3051,3762,3578,3154,0,2191,688,0,0,0,0,0,0,0,246,-0.187,3.646,9.488,0.268,0.470,0.585,19.613,17.942,-9.807,-3.873,-2.839,-0.081,angry
5.32,3158,3117,3796,3651,2332,0,721,0,0,0,0,0,0,0,396,2877,-0.120,2.583,9.828,0.530,0.642,0.946,2.033,19.613,3.500,-1.399,-0.098,0.722,angry
5.33,3312,3171,3794,3600,1911,0,176,0,0,0,0,0,0,0,542,2931,0.539,2.052,8.428,1.018,0.620,0.987,-12.349,6.812,9.720,-0.342,0.399,0.651,angry
5.34,3468,3099,3756,3600,849,0,0,0,0,0,432,2095,0,0,893,3125,2.181,3.536,10.525,1.876,0.803,1.042,-2.105,-4.846,9.708,-0.311,-0.261,0.085,angry
5.35,3549,2789,3670,3579,350,0,0,0,0,19,1916,2688,141,0,1753,3379,3.117,3.989,10.977,3.039,1.179,0.993,0.515,-2.957,9.962,0.177,0.225,0.074,angry
5.36,3578,1317,3275,3409,0,0,0,0,40,139,2285,2841,373,6,2367,3527,6.637,7.163,13.582,2.647,3.287,-0.073,0.180,-2.526,8.959,0.058,0.018,0.088,angry
5.37,3254,0,1280,2416,0,0,0,0,211,959,2618,3035,571,1141,2885,3731,3.347,1.714,13.566,3.620,5.059,-2.862,0.711,-2.770,9.620,0.021,-0.011,0.048,angry
5.38,275,0,0,0,0,0,0,0,211,1403,2858,3161,1163,1289,3081,3688,15.359,18.019,17.291,0.831,5.605,-4.696,0.594,-2.976,9.756,0.022,0.039,0.037,angry
5.39,0,0,0,0,0,0,0,0,268,1561,2938,3237,1639,1241,3167,3725,19.613,14.521,13.554,-0.278,4.704,3.534,0.632,-2.816,9.752,0.034,0.058,0.019,angry
5.40,0,0,0,0,0,0,0,0,360,1929,3002,3347,2060,315,3252,3701,10.865,7.989,8.030,-0.348,4.938,4.925,0.536,-2.851,9.716,0.025,0.005,0.022,angry
5.41,0,0,0,0,0,0,0,0,312,2116,2735,3409,2281,46,3209,3544,1.018,2.737,7.269,-0.525,3.391,4.798,0.673,-2.708,9.756,0.034,0.007,0.018,angry
5.42,0,0,0,0,0,0,0,0,243,2200,2894,3516,2333,45,3115,3387,-0.414,0.022,7.994,-0.374,2.129,4.195,0.654,-2.720,9.744,0.017,-0.002,0.015,angry
5.43,0,0,0,0,0,0,0,0,237,2220,3048,3443,2363,45,2971,3325,0.010,0.187,11.258,-0.910,0.860,2.979,0.570,-2.691,9.780,0.007,-0.019,0.011,angry
5.44,0,0,0,0,0,0,0,0,234,2301,2894,3435,2311,45,2731,3215,2.471,0.057,9.996,-1.893,0.220,2.210,0.560,-2.689,9.797,-0.010,-0.022,0.025,angry
5.45,0,0,0,0,0,0,0,0,295,2427,3063,3451,2359,53,2696,3020,3.673,0.905,8.734,-2.704,0.174,1.813,0.572,-2.772,9.668,-0.013,-0.016,0.026,angry
5.46,0,0,0,0,0,0,0,0,253,2468,3068,3467,2366,45,2648,2915,4.283,2.655,8.145,-3.412,0.192,1.512,0.666,-2.713,9.675,-0.001,-0.001,0.040,angry
5.47,0,0,0,0,0,0,0,0,371,2495,3104,3501,2415,105,2644,2769,6.512,4.705,8.076,-3.732,-0.172,1.613,0.651,-2.878,9.737,0.030,0.022,0.082,angry
5.48,0,0,0,0,0,0,0,0,569,2671,3109,3543,2519,0,2642,2611,8.085,6.864,8.686,-3.916,-0.365,2.167,0.639,-2.636,9.725,0.059,-0.002,0.103,angry
5.49,0,0,0,0,0,0,0,0,747,2716,3140,3555,2597,51,2599,2526,7.966,7.599,8.715,-3.924,-0.547,2.602,0.697,-2.667,9.694,0.056,-0.010,0.099,angry
5.50,0,0,0,0,0,0,0,0,786,2789,3104,3561,2764,48,2631,2403,7.800,8.696,9.299,-3.564,-1.031,3.347,0.697,-2.662,9.570,0.071,-0.023,0.106,angry
5.51,0,0,0,0,0,0,0,0,1015,2971,3168,3643,2847,51,2859,2035,7.178,12.127,12.938,-2.818,-1.555,3.948,0.632,-2.440,9.608,0.007,-0.051,0.095,angry
5.52,0,0,0,0,0,0,0,0,1339,3052,3201,3709,2836,47,2719,931,8.277,19.613,12.632,-2.750,-1.246,4.508,0.778,-2.835,9.845,-0.065,-0.075,0.110,angry
5.53,0,0,0,0,0,0,0,0,1483,3117,3242,3783,2732,51,2638,325,-2.279,19.613,-0.237,-1.127,-0.443,4.432,0.816,-2.763,9.893,-0.093,-0.100,0.125,angry
5.54,0,0,0,0,0,0,0,0,2001,3237,3293,3829,2536,31,2323,139,-14.047,19.613,11.298,-1.243,-1.355,2.956,0.393,-2.550,9.989,-0.118,-0.145,0.126,angry
5.55,295,0,0,0,0,0,0,0,2404,3352,3293,3928,2431,3,549,0,-11.926,19.613,-16.489,-0.107,-1.146,1.049,0.484,-0.263,9.653,-0.728,-0.106,-0.165,angry
5.56,0,0,0,0,0,0,0,1152,2548,3418,3309,3948,2154,2,462,0,-3.117,19.613,-9.843,2.306,1.742,0.952,1.432,-3.091,9.136,-0.862,-0.004,-0.191,angry
5.57,0,0,0,0,0,0,1326,3597,2798,3529,3334,3861,1316,5,521,19,-19.613,-1.650,19.613,2.866,3.428,-0.936,0.632,-2.540,9.905,-1.011,-0.120,-0.081,angry
5.58,511,0,0,0,486,0,2356,3824,2939,3471,3304,3507,1447,0,536,0,19.613,19.613,19.613,2.764,3.210,-2.637,-0.615,0.491,10.242,-2.838,-0.454,-0.193,angry
5.59,1712,422,496,176,706,0,2634,3771,2939,3243,3370,3197,1427,2,265,0,-12.792,1.154,10.544,1.211,0.799,-0.462,0.864,-0.663,12.792,-4.791,-0.144,0.250,angry
5.60,2070,1441,2539,2393,1418,0,2895,3751,1979,1677,2894,1828,1050,0,0,0,-4.264,2.916,10.439,0.101,0.356,-0.062,-2.837,6.103,17.894,-8.731,-3.151,0.800,angry
5.61,2288,1867,2976,2851,2057,149,3155,3825,971,0,0,0,0,0,0,0,-0.127,3.915,9.850,0.004,0.270,-0.099,2.892,-13.230,19.613,-8.731,-3.699,2.755,angry
5.62,2599,2123,3216,3066,2431,1045,3281,3849,438,0,0,17,0,0,0,0,0.453,3.666,9.225,0.062,0.081,0.000,-1.800,-13.554,19.613,-8.731,-3.902,2.111,angry
5.63,2749,2288,3326,3200,2600,1279,3302,3826,0,0,0,0,0,0,0,0,0.201,3.955,9.316,0.021,0.086,-0.004,2.775,-19.613,19.613,-2.378,-1.167,5.075,angry
5.64,2835,2416,3452,3305,2686,144,3264,3769,0,0,0,0,0,0,0,0,0.194,3.709,9.357,0.022,0.081,-0.013,10.841,0.378,14.545,2.650,-0.746,3.662,angry
5.65,2885,2559,3517,3351,2753,0,3133,3689,0,0,0,0,0,0,0,0,0.424,3.792,9.436,0.030,0.074,-0.021,9.773,4.073,12.486,3.331,-0.144,3.045,angry
5.66,2917,2649,3543,3365,2703,0,3035,3638,0,0,0,0,0,0,0,0,0.464,3.752,9.316,0.027,0.075,-0.019,8.375,2.191,10.144,3.729,0.190,2.074,angry
5.67,2940,2723,3551,3385,2619,0,2932,3577,0,0,0,0,0,0,0,0,0.261,3.706,9.321,0.029,0.071,-0.011,7.286,2.344,8.835,4.236,-0.187,1.204,angry
5.68,2958,2738,3568,3390,2505,0,2825,3520,0,0,0,0,0,0,0,0,-0.026,3.692,9.139,0.042,0.052,-0.011,6.706,1.772,7.549,4.372,-0.611,0.395,angry
5.69,2967,2779,3529,3393,2413,0,2722,3442,0,0,0,0,0,0,0,0,-0.010,3.692,9.421,0.013,0.055,-0.016,5.981,0.644,7.738,4.631,-0.891,-0.342,angry
5.70,2976,2800,3583,3396,2301,0,2524,3335,0,8,0,0,0,0,0,0,0.151,3.687,9.345,0.029,0.050,-0.025,3.220,-2.186,9.749,5.253,-1.178,-1.398,angry
5.71,2995,2806,3603,3395,2162,0,2297,3207,0,0,0,39,0,0,0,0,0.124,3.642,9.210,0.029,0.050,-0.035,0.326,-4.070,11.468,5.823,-1.028,-1.628,angry
5.72,3029,2801,3623,3415,2319,0,2176,3091,0,0,0,6,0,0,0,0,0.079,3.668,9.177,0.023,0.060,-0.035,-1.089,-4.937,12.689,5.930,-1.360,-1.541,angry
5.73,3050,2800,3659,3447,2470,0,2263,3007,20,0,0,0,0,0,0,0,0.117,3.658,9.285,0.028,0.058,-0.054,-0.441,-6.725,15.117,6.021,-2.020,-1.353,angry
5.74,2971,2889,3711,3509,2747,0,2320,2932,0,0,0,0,0,0,0,0,0.158,3.517,9.278,0.058,0.080,-0.051,4.482,-11.301,19.613,5.675,-2.092,-1.876,angry
5.75,3055,2976,3769,3568,2893,0,2267,2501,0,0,0,0,0,0,0,0,0.019,3.596,9.536,0.076,0.114,-0.054,4.135,-18.624,19.613,5.663,-1.873,-2.592,angry
5.76,3205,3071,3822,3666,3066,0,2128,2032,0,0,0,0,0,0,0,0,0.132,3.687,9.038,0.089,0.282,-0.055,1.020,-19.613,14.715,4.752,-0.566,-3.111,angry
5.77,3344,3237,3885,3753,3036,0,1611,903,0,0,0,0,0,0,0,11,0.417,3.417,9.584,0.293,0.253,-0.010,-6.122,-19.613,-5.681,2.410,-0.468,-2.193,angry
5.78,3485,3428,3942,3841,2631,0,619,0,0,0,0,0,19,0,0,0,0.412,2.583,9.409,0.559,0.169,0.130,-7.843,-19.613,-12.661,-2.155,-1.213,-2.366,angry
5.79,3686,3553,3998,3913,1874,0,0,0,0,0,0,0,0,0,0,0,-0.218,3.759,9.898,1.238,0.166,0.471,-6.076,-19.613,-11.756,-3.581,0.264,-1.852,angry
5.80,3792,3541,4019,3935,1263,0,0,0,0,0,0,0,0,0,0,1206,1.422,4.233,10.001,1.681,0.041,0.716,4.846,4.235,7.494,-2.409,2.781,0.545,angry
5.81,3885,3365,4023,3958,941,0,0,0,0,0,0,0,0,0,165,3083,0.943,4.183,10.288,2.060,-0.134,0.938,-19.613,9.263,19.613,-5.036,0.577,1.180,angry
5.82,3982,2919,4011,3939,647,0,0,0,0,0,0,0,0,0,1208,3811,0.876,2.495,8.770,3.573,0.430,1.033,1.087,-19.613,11.334,-5.273,-1.672,1.781,angry
5.83,3984,2443,3845,3710,0,0,0,0,0,0,0,0,37,0,2261,3913,3.464,5.911,10.951,5.379,0.932,-0.096,3.256,-19.613,19.613,-0.482,4.878,0.650,angry
5.84,3760,1182,3143,2906,0,0,0,0,0,1385,0,0,355,0,2719,4007,-1.403,1.738,19.613,8.579,0.019,-1.466,1.420,-9.273,15.886,-0.203,1.182,0.296,angry
5.85,2213,0,802,825,0,0,0,0,0,1848,1530,63,685,0,3023,4067,-3.144,3.874,19.613,8.731,-1.820,-4.615,0.496,-2.600,10.563,0.003,0.523,0.197,angry
5.86,0,0,0,0,0,0,0,0,1,2025,1996,287,1085,53,3191,4085,8.047,4.592,19.613,5.270,0.279,-4.367,2.155,-2.713,9.579,0.076,0.300,0.074,angry
5.87,0,0,0,0,0,0,0,0,9,2185,2024,581,1495,5,3348,4095,2.552,17.241,19.613,1.410,0.492,-2.750,2.155,-2.713,9.538,0.027,0.143,0.098,angry
5.88,0,0,0,0,0,0,0,0,11,2237,2265,841,1813,2,3429,4095,8.344,-3.697,19.613,0.521,-0.011,-1.699,1.310,-2.624,9.538,0.027,0.143,0.098,angry
5.89,0,0,0,0,0,0,0,0,1,2311,2454,1093,2079,3,3484,4095,10.822,-0.043,13.214,-1.049,0.420,-1.298,0.871,-2.691,9.807,0.056,0.111,0.037,angry
5.90,0,0,0,0,0,0,0,0,1,2351,2480,1406,2185,1,3532,4061,6.333,-3.603,10.195,-1.509,0.443,-0.937,0.871,-2.691,9.807,0.056,0.111,0.037,angry
5.91,0,0,0,0,0,0,0,0,1,2315,2531,1594,2319,2,3539,4095,4.915,-2.775,8.286,-1.897,-0.158,-0.503,0.821,-2.394,9.859,0.043,0.072,-0.004,angry
5.92,0,0,0,0,0,0,0,0,26,2345,2590,1655,2424,2,3547,4041,4.338,-2.571,7.508,-2.150,-0.739,-0.176,0.958,-2.636,9.749,0.049,0.029,0.009,angry
5.93,0,0,0,0,0,0,0,0,1,2267,2615,1681,2428,3,3512,4056,4.714,-1.645,7.628,-2.478,-1.149,0.225,1.209,-2.468,9.335,0.017,0.060,0.057,angry
5.94,0,0,0,0,0,0,0,0,0,2295,2671,1733,2373,1,3375,4015,4.695,-0.433,8.492,-2.953,-1.239,0.631,1.161,-2.574,9.716,-0.040,0.100,0.056,angry
5.95,0,0,0,0,0,0,0,0,47,2309,2664,1785,2390,0,3299,3951,3.723,0.493,8.557,-3.479,-1.207,0.981,1.003,-2.574,9.716,-0.040,0.100,0.056,angry
5.96,0,0,0,0,0,0,0,0,0,2339,2679,1959,2329,0,3320,3867,2.368,1.659,8.918,-3.974,-1.178,1.215,0.883,-2.619,9.847,-0.012,0.097,0.039,angry
5.97,0,0,0,0,0,0,0,0,0,2389,2689,2120,2339,4,3247,3692,0.752,2.552,8.997,-4.420,-1.240,1.292,0.874,-2.653,9.790,-0.006,0.082,0.052,angry
5.98,0,0,0,0,0,0,0,0,1,2402,2725,2279,2367,3,3145,3468,-0.448,3.024,8.780,-4.749,-1.369,1.228,0.900,-2.574,9.912,-0.006,0.082,0.052,angry
5.99,0,0,0,0,0,0,0,0,0,2399,2815,2365,2425,5,2959,3382,-1.307,3.967,9.270,-4.938,-1.552,1.090,0.917,-2.535,9.634,-0.037,0.085,0.071,angry
6.00,0,0,0,0,0,0,0,0,2,2457,2869,2413,2507,2,2777,3364,-1.714,4.733,9.790,-5.051,-1.798,0.923,0.939,-2.555,9.608,-0.038,0.087,0.106,angry
6.01,0,0,0,0,0,0,0,0,0,2467,2812,2487,2585,1,2781,3373,-1.793,5.818,10.592,-5.067,-2.092,0.770,0.883,-2.569,9.704,-0.051,0.095,0.107,angry
6.02,0,0,0,0,0,0,0,0,55,2471,2822,2543,2663,0,2679,3333,-1.238,6.948,11.940,-5.054,-2.395,0.678,0.883,-2.569,9.704,-0.051,0.095,0.107,angry
6.03,0,0,0,0,0,0,0,0,25,2581,3048,2765,2903,9,2743,3283,0.175,8.375,15.974,-4.821,-2.798,0.720,0.764,-2.509,9.697,-0.061,0.104,0.148,angry
6.04,0,0,0,0,0,0,0,0,0,2549,2838,2921,3044,10,2840,3227,2.169,12.567,19.613,-4.683,-3.001,0.879,0.725,-2.514,9.613,-0.060,0.136,0.120,angry
6.05,0,0,0,0,0,0,0,0,103,2744,3053,3194,3320,39,2887,3155,3.709,19.613,13.338,-4.493,-1.945,1.841,0.740,-2.689,9.634,-0.055,0.071,0.106,angry
6.06,0,0,0,0,0,0,0,0,203,2693,3112,3323,3434,41,2921,3048,-6.249,19.613,12.404,-2.794,-1.770,2.386,0.927,-2.916,9.862,0.004,0.062,0.131,angry
6.07,0,0,0,0,0,0,0,0,733,2879,3155,3555,3543,48,2845,2637,-9.263,19.613,0.551,-2.870,-0.884,2.645,1.116,-2.480,9.644,-0.039,-0.019,0.079,angry
6.08,0,0,0,0,0,0,0,0,1461,2937,3212,3735,3368,39,2431,243,-18.435,19.613,-19.613,-0.496,0.743,1.168,0.630,-2.468,9.596,-0.304,-0.087,0.042,angry
6.09,0,0,0,0,0,0,0,1776,1899,3113,3245,3817,3125,39,1565,153,9.826,11.930,-12.481,1.298,3.165,0.959,0.467,-3.060,9.754,-0.175,-0.033,0.111,angry
6.10,0,0,0,0,0,0,1035,3561,2551,3317,3467,3895,2057,16,183,52,-19.613,-6.515,10.032,6.205,-1.800,0.464,0.290,-3.615,9.148,-1.377,0.256,-0.381,angry
6.11,22,0,0,0,274,0,2001,3737,2915,3369,3327,3755,419,27,293,0,-2.128,19.613,19.613,4.641,-0.181,-1.532,3.007,-0.871,9.414,-2.090,-0.670,-0.325,angry
6.12,1457,462,0,0,773,0,2960,3781,2759,3140,3339,3736,501,3,301,0,8.789,-2.021,5.555,-0.031,3.118,-1.072,-4.638,2.569,14.997,-4.767,-0.595,-0.439,angry
6.13,1814,1398,1535,432,1423,0,3116,3801,1821,1581,2966,3224,595,0,0,29,-3.407,3.575,14.052,0.386,0.784,-0.332,1.923,0.960,12.134,-8.731,-0.288,0.411,angry
6.14,1974,1698,2526,2099,1938,0,3261,3856,941,0,0,751,0,0,0,0,-0.804,3.730,9.524,0.014,0.316,-0.139,2.859,-7.657,19.613,-8.731,-0.602,3.064,angry
6.15,2145,1862,2795,2537,2240,10,3387,3899,331,0,0,0,1,0,0,0,0.407,3.778,9.287,-0.022,0.213,-0.070,4.683,-1.973,19.613,-7.817,-0.265,3.513,angry
6.16,2256,2063,2989,2725,2457,492,3472,3919,0,0,0,0,0,0,0,0,0.340,3.622,9.292,0.011,0.108,-0.015,9.981,-6.601,19.613,-1.169,2.510,4.005,angry
6.17,2384,2176,3134,2837,2559,106,3467,3891,0,0,0,0,0,0,0,0,0.230,3.663,9.285,0.010,0.082,0.020,10.309,6.232,12.898,1.376,-0.801,1.757,angry
6.18,2437,2303,3237,2914,2674,0,3408,3809,0,0,0,0,0,0,0,0,0.725,3.687,9.373,0.075,0.041,0.014,7.803,5.914,10.851,2.649,0.335,1.704,angry
6.19,2477,2384,3273,2971,2693,0,3340,3746,0,17,0,0,0,0,0,0,0.735,3.733,9.390,0.063,0.088,-0.035,6.788,3.220,10.743,3.943,-0.032,0.664,angry
6.20,2511,2489,3338,3033,2597,0,3135,3623,0,6,0,0,0,0,0,0,0.359,3.766,9.428,0.038,0.116,-0.049,5.808,1.441,9.074,4.515,-0.621,0.156,angry
6.21,2532,2534,3414,3083,2526,0,3012,3538,0,0,0,0,0,0,0,115,-0.010,3.625,9.167,0.052,0.082,-0.034,5.006,0.038,8.875,4.876,-1.014,-0.296,angry
6.22,2595,2640,3458,3165,2544,0,2803,3367,0,0,0,0,0,0,0,0,0.127,3.668,9.380,0.071,0.070,-0.030,3.235,-2.643,9.699,5.677,-1.442,-1.017,angry
6.23,2637,2727,3537,3235,2544,0,2537,3195,0,0,0,0,0,0,0,0,0.350,3.802,9.309,0.084,0.058,-0.043,0.922,-4.839,11.890,6.162,-1.618,-1.216,angry
6.24,2746,2794,3606,3312,2559,0,2362,3007,0,0,0,0,30,0,0,0,0.290,3.764,9.297,0.064,0.104,-0.058,0.081,-6.136,14.116,6.318,-1.865,-1.193,angry
6.25,2859,2859,3679,3405,2624,0,2269,2819,0,0,0,0,0,0,0,0,0.165,3.694,9.215,0.058,0.126,-0.051,1.168,-8.969,18.184,6.474,-2.421,-1.167,angry
6.26,3022,3011,3757,3504,2745,0,2082,2267,0,0,0,0,0,0,0,0,0.206,3.733,9.357,0.067,0.156,-0.043,4.642,-11.693,19.613,6.276,-2.673,-1.540,angry
6.27,3200,3181,3819,3633,2875,0,1834,1325,0,0,0,0,0,0,0,0,0.036,3.543,9.024,0.168,0.242,-0.019,1.506,-19.613,19.613,5.354,-2.763,-3.688,angry
6.28,3359,3337,3894,3745,2928,0,1584,261,0,0,0,0,0,9,0,23,0.170,3.560,10.151,0.285,0.210,0.027,-0.170,-19.613,8.435,4.157,-0.751,-3.816,angry
6.29,3526,3488,3949,3839,2651,0,507,0,0,0,0,0,0,0,0,0,0.146,3.103,9.373,0.488,0.172,0.093,-13.697,-19.613,-10.616,1.843,-2.225,-1.804,angry
6.30,3712,3613,4007,3904,2114,0,31,0,0,0,0,46,0,0,0,0,0.194,3.898,9.146,0.771,0.156,0.247,-10.815,-19.613,-11.983,-0.207,-2.420,-0.981,angry
6.31,3871,3682,4041,3952,1365,0,0,0,25,0,0,0,0,0,0,0,0.843,3.491,9.306,1.323,0.027,0.581,7.398,-0.306,-3.402,-2.363,2.783,0.595,angry
6.32,3951,3615,4049,3962,1223,0,0,0,0,0,0,0,0,0,232,2171,1.487,1.305,9.682,1.913,-0.182,0.832,-9.440,19.613,19.613,-3.296,3.752,1.243,angry
6.33,4019,3197,4043,3939,703,0,0,0,0,0,0,0,0,0,238,3432,0.898,2.670,8.696,3.379,0.157,1.006,-16.154,5.021,-3.201,-6.910,-3.956,-0.803,angry
6.34,4020,2861,3957,3762,266,0,0,0,0,7,10,0,0,0,1915,3901,0.675,1.408,6.431,5.377,0.835,0.294,19.613,-12.356,19.613,-4.931,-2.127,1.975,angry
6.35,3852,2153,3617,3093,0,0,0,0,0,461,0,0,315,0,2699,4042,0.192,10.381,19.613,8.354,-0.164,-0.022,-1.793,-0.017,13.551,-0.173,3.330,1.000,angry
6.36,2256,176,2106,1726,0,0,0,0,0,1191,0,0,303,0,2851,4056,-1.446,16.664,19.613,8.731,-2.798,-4.201,0.534,-3.768,15.352,-0.260,0.523,0.220,angry
6.37,0,0,3,0,0,0,0,0,1,1839,1466,797,1315,2,3118,4043,0.536,17.267,19.613,8.731,-1.969,-4.172,1.815,-3.764,9.828,-0.067,0.397,0.248,angry
6.38,0,0,0,0,0,0,0,0,0,1993,1586,1413,1851,1,3188,4091,14.518,10.216,19.613,2.337,0.656,-4.543,1.089,-2.856,10.353,-0.038,0.392,0.199,angry
6.39,0,0,0,0,0,0,0,0,0,2207,2244,2351,2380,1,3471,4095,10.961,-2.911,19.613,-0.600,-0.586,-1.771,1.094,-2.691,9.850,-0.061,0.115,0.116,angry
6.40,0,0,0,0,0,0,0,0,1,2239,2551,2579,2583,3,3518,4091,6.651,-4.436,10.104,-2.114,0.025,-1.310,0.838,-2.866,10.388,-0.010,0.096,0.078,angry
6.41,0,0,0,0,0,0,0,0,26,2484,2771,2779,2787,8,3484,4021,5.578,-2.322,7.843,-2.603,-1.077,-0.464,1.113,-2.454,9.527,-0.014,0.069,0.049,angry
6.42,0,0,0,0,0,0,0,0,45,2549,2817,2911,2905,13,3333,3867,5.976,-0.740,7.451,-3.108,-1.415,0.350,1.171,-2.665,9.706,-0.029,0.107,0.056,angry
6.43,0,0,0,0,0,0,0,0,47,2597,2840,3017,2887,0,3175,3727,3.807,1.269,9.139,-3.933,-1.471,1.096,1.013,-2.653,9.459,-0.060,0.087,0.051,angry
6.44,0,0,0,0,0,0,0,0,57,2607,2856,3067,2831,19,2943,3497,2.203,2.033,8.756,-4.396,-1.534,1.367,0.807,-2.662,9.668,-0.034,0.071,0.055,angry
6.45,0,0,0,0,0,0,0,0,77,2591,2858,3147,2792,22,2645,3129,0.383,2.442,9.112,-4.733,-1.574,1.443,0.824,-2.612,9.756,-0.052,0.082,0.065,angry
6.46,0,0,0,0,0,0,0,0,103,2617,2874,3225,2814,0,2580,3027,-1.041,3.163,9.292,-4.947,-1.729,1.371,0.824,-2.612,9.756,-0.052,0.082,0.065,angry
6.47,0,0,0,0,0,0,0,0,199,2635,2930,3269,2772,39,2444,2793,-2.193,5.145,11.691,-5.148,-2.162,1.173,0.809,-2.847,9.615,-0.075,0.070,0.058,angry
6.48,0,0,0,0,0,0,0,0,466,2677,2961,3308,2868,50,2315,2623,-0.881,7.408,13.510,-5.257,-2.353,1.069,0.881,-2.816,9.747,-0.066,0.074,0.039,angry
6.49,0,0,0,0,0,0,0,0,439,2761,2994,3359,3099,51,2363,2516,0.194,9.177,17.449,-5.067,-2.486,1.296,0.970,-2.717,9.649,-0.069,0.095,0.049,angry
6.50,0,0,0,0,0,0,0,0,748,2793,3063,3492,3007,47,2351,2257,3.761,17.198,19.613,-4.810,-2.366,1.658,0.627,-2.732,9.756,0.020,0.050,0.056,angry
6.51,0,0,0,0,0,0,0,0,1293,2939,3135,3619,3089,51,2201,1775,-2.521,19.613,15.929,-3.950,-2.049,2.507,0.800,-2.741,9.651,-0.018,0.021,0.063,angry
6.52,0,0,0,0,0,0,0,0,1542,2858,3171,3763,3096,47,2165,1339,-2.514,19.613,9.091,-3.807,-0.632,2.522,0.795,-2.847,9.744,-0.072,-0.013,0.064,angry
6.53,0,0,0,0,0,0,0,0,1861,2868,3217,3845,3067,30,1735,91,-14.389,19.613,-12.620,-2.700,-0.035,2.222,1.046,-3.062,9.567,-0.138,-0.023,0.072,angry
6.54,0,0,0,0,0,0,0,0,2315,3062,3265,3964,2677,0,55,0,-14.990,19.613,-19.613,1.875,-0.028,1.122,0.850,-2.356,9.845,-0.310,0.017,-0.007,angry
6.55,0,0,0,0,0,0,593,2494,2577,3103,3293,4009,2149,1,51,0,-0.002,-2.619,14.435,2.559,5.502,-0.736,1.439,-2.710,10.036,-0.760,0.184,-0.326,angry
6.56,0,0,0,0,0,0,791,3568,2917,3261,3314,3999,651,6,75,0,-19.613,5.806,5.447,6.324,-0.697,-0.112,1.144,-1.041,10.034,-1.161,-0.050,-0.348,angry
6.57,0,0,0,0,157,0,2261,3819,3129,3031,3337,3775,303,0,4,0,5.703,17.789,19.613,3.434,0.810,-1.304,0.393,1.422,11.715,-3.115,-1.127,-0.670,angry
6.58,1578,407,0,0,690,0,2900,3818,3036,2633,3329,3786,265,0,0,0,4.408,2.909,12.833,0.470,2.407,-0.768,1.089,1.669,9.907,-8.369,0.832,0.256,angry
6.59,1968,1555,1894,1088,1317,0,3071,3806,1979,523,2715,3307,0,0,0,0,-4.599,2.840,13.424,0.605,0.503,-0.395,1.535,2.523,19.613,-8.731,1.372,1.051,angry
6.60,2166,2064,2737,2458,1950,0,3309,3856,983,0,0,1129,0,0,0,0,-0.433,3.836,9.352,0.059,0.281,-0.154,0.405,-1.001,15.273,-8.731,1.272,4.004,angry
6.61,2303,2260,3086,2841,2439,165,3405,3886,279,0,104,219,0,0,0,0,0.412,3.565,9.354,0.036,0.149,-0.041,1.307,-4.918,19.613,-8.731,1.037,4.165,angry
6.62,2528,2421,3250,3035,2707,886,3467,3888,0,0,0,0,0,0,0,0,0.455,3.749,9.414,0.054,0.078,-0.013,-3.017,-15.136,19.613,-0.750,2.443,3.972,angry
6.63,2640,2603,3367,3158,2829,458,3467,3853,0,0,0,0,0,0,0,0,0.175,3.677,9.306,0.050,0.066,0.007,14.892,2.248,12.790,1.657,-1.536,2.101,angry
6.64,2710,2726,3472,3237,2869,0,3379,3755,0,0,58,0,0,0,0,0,0.520,3.850,9.515,0.094,0.028,0.002,10.214,4.494,11.305,3.022,-0.436,1.578,angry
6.65,2783,2826,3537,3283,2843,0,3168,3607,0,0,0,0,0,0,0,0,0.541,3.857,9.268,0.045,0.089,-0.040,6.457,1.422,8.665,4.189,-0.565,-0.060,angry
6.66,2779,2887,3567,3314,2749,0,3034,3513,0,0,0,0,0,0,0,0,0.259,3.706,9.316,0.045,0.084,-0.047,4.161,-0.084,8.861,4.565,-1.277,-0.561,angry
6.67,2843,2935,3606,3354,2681,0,2799,3329,0,0,0,0,0,0,0,0,0.091,3.675,9.404,0.045,0.076,-0.023,2.203,-2.823,9.553,5.418,-2.251,-1.177,angry
6.68,2906,2992,3639,3387,2466,0,2391,3105,0,0,0,0,0,0,0,73,0.266,3.701,9.318,0.074,0.053,-0.034,1.908,-3.570,8.844,5.744,-1.999,-1.214,angry
6.69,2951,3039,3671,3425,2400,0,2098,2777,0,0,0,0,0,5,0,40,0.283,3.778,9.242,0.072,0.060,-0.038,-1.372,-4.994,11.691,5.977,-2.100,-0.942,angry
6.70,3005,3105,3709,3474,2494,0,1946,2333,0,0,0,0,0,0,0,0,0.158,3.821,9.127,0.055,0.074,-0.033,-1.257,-7.293,15.036,5.969,-3.296,-0.866,angry
6.71,3069,3088,3759,3530,2652,0,1920,1996,0,0,0,0,0,0,0,0,0.254,3.649,9.179,0.020,0.113,-0.033,0.261,-8.679,17.636,5.888,-3.439,-0.994,angry
6.72,3209,3152,3798,3613,2828,0,1936,1847,0,0,0,0,7,0,0,42,0.069,3.644,9.378,0.048,0.136,-0.007,3.680,-16.747,19.613,5.402,-3.272,-2.357,angry
6.73,3326,3262,3847,3696,2937,0,1850,1335,0,0,0,0,0,0,0,0,0.227,4.039,9.685,0.142,0.196,0.041,1.104,-19.613,17.734,4.567,-2.400,-3.681,angry
6.74,3472,3425,3905,3771,3035,0,1706,318,0,0,0,0,0,42,0,5,0.330,3.673,10.070,0.228,0.254,0.045,-2.164,-19.613,-3.311,3.018,-1.308,-2.843,angry
6.75,3605,3568,3962,3851,2684,0,736,0,28,0,0,0,0,0,0,0,0.225,2.940,9.297,0.487,0.219,0.106,-8.090,-19.613,-9.129,1.467,-2.201,-2.661,angry
6.76,3695,3664,3988,3892,2425,0,183,0,0,0,0,0,0,0,0,0,0.110,3.361,9.524,0.670,0.247,0.181,-7.453,-19.613,-11.983,-1.460,-1.611,-2.579,angry
6.77,3856,3750,4027,3934,1589,0,0,0,0,0,0,0,0,0,0,17,0.634,4.372,9.220,1.290,0.233,0.517,-0.304,-12.787,-3.692,-2.205,1.688,-0.895,angry
6.78,3929,3725,4042,3951,1219,0,0,0,0,0,0,0,0,0,0,17,0.579,2.682,8.703,1.605,0.074,0.655,-0.304,-12.787,-3.692,-2.205,1.688,-0.895,angry
6.79,3974,3534,4048,3956,1076,0,0,0,0,0,5,0,0,0,354,3563,1.288,2.128,9.550,2.387,-0.079,0.917,-19.613,7.192,3.625,-6.084,-1.963,0.134,angry
6.80,4027,3082,4019,3904,688,0,0,0,1,0,0,0,0,0,888,3837,0.196,3.299,9.840,3.993,0.541,0.875,10.142,-15.443,18.979,-3.683,-0.661,1.269,angry
6.81,3981,2766,3822,3619,0,0,0,0,0,0,0,0,0,0,2392,4043,4.202,8.023,11.949,6.133,0.997,0.320,-0.472,-19.613,19.613,-0.909,3.143,0.683,angry
6.82,3814,2336,3559,3006,0,0,0,0,0,0,0,0,52,0,2659,4077,-2.571,6.112,19.613,7.800,-0.693,0.075,1.776,-2.253,4.848,0.359,3.720,0.912,angry
6.83,2846,1136,2861,2479,0,0,0,0,0,365,0,0,279,0,2785,4070,-2.763,1.022,19.613,8.731,-2.733,-2.119,1.223,-5.574,14.152,-0.080,1.484,0.272,angry
6.84,656,0,215,47,0,0,0,0,1,1341,1558,413,597,2,3107,4095,-4.594,19.613,19.613,8.731,-2.390,-3.738,0.517,-3.141,10.080,-0.094,0.605,0.291,angry
6.85,0,0,0,0,0,0,0,0,9,1560,1069,837,1287,0,3269,4095,16.281,4.458,19.613,2.270,0.774,-4.509,1.034,-2.950,10.048,-0.117,0.181,0.181,angry
6.86,0,0,0,0,0,0,0,0,0,1811,1671,1437,1949,0,3413,4095,7.432,4.166,19.613,0.272,-0.575,-2.036,1.034,-2.950,10.048,-0.117,0.181,0.181,angry
6.87,0,0,0,0,0,0,0,0,1,1933,1742,1848,2251,0,3512,4095,9.629,0.330,13.161,-0.464,-0.050,-1.955,1.295,-2.777,9.538,0.006,0.109,0.100,angry
6.88,0,0,0,0,0,0,0,0,2,2085,1901,2095,2447,2,3571,4095,7.906,-1.307,10.676,-1.568,0.380,-1.729,0.883,-2.811,9.847,0.027,0.065,0.074,angry
6.89,0,0,0,0,0,0,0,0,1,2138,2305,2275,2605,75,3607,4095,6.100,-2.835,9.249,-1.943,0.201,-1.340,0.690,-2.811,9.847,0.027,0.065,0.074,angry
6.90,0,0,0,0,0,0,0,0,11,2280,2528,2525,2747,5,3623,4095,6.361,-1.264,8.727,-2.490,-0.467,-0.738,1.025,-2.643,9.943,0.035,0.096,0.045,angry
6.91,0,0,0,0,0,0,0,0,9,2317,2561,2603,2861,5,3589,4077,6.730,-1.537,7.020,-2.817,-0.890,-0.124,1.518,-2.512,9.723,-0.013,0.172,0.067,angry
6.92,0,0,0,0,0,0,0,0,3,2348,2352,2631,2928,5,3525,3997,6.821,-0.704,7.070,-3.254,-0.850,0.416,1.518,-2.576,9.972,-0.047,0.156,0.099,angry
6.93,0,0,0,0,0,0,0,0,3,2393,2613,2771,2957,0,3431,3881,5.298,0.680,8.210,-3.751,-0.731,0.851,1.159,-2.576,9.972,-0.047,0.156,0.099,angry
6.94,0,0,0,0,0,0,0,0,26,2477,2766,2860,2961,18,3294,3622,3.340,1.867,9.076,-4.228,-0.841,1.161,0.867,-2.662,9.771,-0.032,0.107,0.075,angry
6.95,0,0,0,0,0,0,0,0,123,2503,2776,2943,2935,23,3019,3289,1.846,2.713,8.988,-4.721,-1.044,1.319,0.939,-2.495,9.706,-0.060,0.087,0.086,angry
6.96,0,0,0,0,0,0,0,0,85,2531,2863,3055,2845,24,2667,3067,-0.005,3.642,8.765,-5.173,-1.263,1.186,0.891,-2.614,9.929,-0.082,0.096,0.088,angry
6.97,0,0,0,0,0,0,0,0,98,2611,2899,3173,2980,25,2536,2889,-1.089,5.145,10.068,-5.218,-1.756,0.890,1.001,-2.732,9.840,-0.092,0.096,0.086,angry
6.98,0,0,0,0,0,0,0,0,238,2671,2940,3255,3043,79,2487,2855,-0.079,7.432,12.622,-5.267,-2.266,0.771,0.848,-2.705,9.409,-0.078,0.086,0.053,angry
6.99,0,0,0,0,0,0,0,0,372,2747,2973,3407,3119,47,2473,2757,0.934,8.748,16.630,-4.989,-2.571,0.937,0.886,-2.971,9.543,-0.033,0.069,0.051,angry
7.00,0,0,0,0,0,0,0,0,669,2810,3050,3511,3221,50,2504,2679,4.942,17.605,19.613,-4.673,-2.966,1.335,1.346,-2.756,9.117,0.014,0.104,0.048,angry
7.01,0,0,0,0,0,0,0,0,888,2904,3068,3615,3254,51,2403,2479,-0.934,19.613,13.673,-3.656,-2.327,2.577,0.986,-2.404,9.816,-0.041,0.035,0.043,angry
7.02,0,0,0,0,0,0,0,0,1337,3001,3135,3731,3227,37,2229,1773,-2.054,19.613,10.999,-3.527,-1.282,2.595,0.838,-2.583,9.567,-0.111,-0.005,0.055,angry
7.03,0,0,0,0,0,0,0,0,1770,2997,3163,3866,2979,41,2091,212,-12.615,19.613,-12.016,-2.182,-0.263,2.307,0.852,-2.492,9.668,-0.146,-0.019,0.049,angry
7.04,0,0,0,0,0,0,0,0,2087,3093,3219,3925,2989,15,1512,45,-13.829,19.613,-19.613,1.460,-0.669,1.465,0.615,-2.990,9.706,-0.180,0.001,0.048,angry
7.05,0,0,0,0,0,0,401,2096,2523,3219,3265,3999,2403,0,39,0,-0.536,-2.399,9.210,2.766,5.213,0.033,0.740,-0.448,9.819,-0.628,0.071,-0.173,angry
7.06,0,0,0,0,0,0,896,3499,2885,3304,3304,3997,774,2,71,0,-19.613,-1.245,6.594,6.577,-1.243,0.497,0.852,-0.974,10.683,-1.004,0.066,-0.330,angry
7.07,37,0,0,0,0,0,1995,3724,2995,3035,3311,3871,384,0,0,0,4.779,17.114,17.549,3.742,0.406,-1.487,1.604,-0.065,8.614,-3.058,-1.238,-0.557,angry
7.08,1514,496,0,0,865,0,2883,3721,2911,2515,3319,3871,319,0,0,0,6.574,6.340,15.680,0.154,3.776,-0.984,-0.165,-2.751,8.523,-4.792,0.113,-0.173,angry
7.09,1853,1739,1780,377,1264,0,3039,3742,1839,787,2884,3406,1,0,0,0,0.249,5.631,12.852,0.534,0.977,-0.390,2.016,1.070,19.613,-8.731,0.316,1.187,angry
7.10,2064,2129,2806,2324,1984,0,3230,3819,995,0,0,1071,0,0,0,0,0.553,3.788,9.143,0.027,0.443,-0.170,-0.922,-5.986,19.613,-8.731,-1.094,4.105,angry
7.11,2284,2314,3157,2848,2275,272,3328,3870,313,0,0,235,0,0,28,0,0.067,3.656,9.371,0.053,0.192,-0.055,1.008,-10.635,19.613,-8.731,-0.909,4.126,angry
7.12,2517,2559,3335,3071,2650,1197,3399,3872,0,0,15,11,0,0,31,0,0.369,3.673,9.179,0.070,0.081,-0.022,3.474,-13.807,19.613,-0.307,1.110,4.590,angry
7.13,2675,2674,3440,3195,2830,944,3411,3829,0,0,0,0,0,0,0,0,0.362,3.610,9.287,0.051,0.076,0.003,11.681,3.294,10.336,1.840,-0.660,2.596,angry
7.14,2771,2851,3521,3271,2890,0,3345,3749,0,0,0,0,0,0,0,0,0.342,3.742,9.495,0.087,0.030,-0.005,8.516,5.523,9.112,2.761,-0.071,1.998,angry
7.15,2794,2918,3562,3310,2925,0,3264,3659,0,0,319,0,0,0,0,0,0.472,3.883,9.369,0.062,0.059,-0.033,7.863,2.897,9.127,3.163,-0.183,1.196,angry
7.16,2838,3009,3609,3340,2848,0,3067,3531,0,0,0,0,0,0,0,0,0.445,3.840,9.120,0.034,0.071,-0.033,6.237,0.769,7.307,4.123,-1.462,-0.342,angry
7.17,2897,3050,3621,3363,2756,0,2992,3462,0,0,0,0,0,0,0,99,0.259,3.730,9.196,0.037,0.068,-0.026,5.337,-0.409,7.693,4.418,-1.715,-0.936,angry
7.18,2933,3097,3649,3390,2681,0,2832,3354,0,0,0,0,0,0,0,0,0.136,3.828,9.414,0.046,0.053,-0.024,2.600,-3.445,10.197,5.291,-1.649,-1.552,angry
7.19,2946,3141,3667,3408,2625,0,2631,3233,0,72,0,0,0,0,0,0,0.330,3.759,9.282,0.059,0.045,-0.029,0.862,-4.003,10.513,5.665,-1.546,-1.526,angry
7.20,2967,3154,3680,3431,2587,0,2394,3169,0,0,0,20,0,0,43,5,0.184,3.725,9.187,0.030,0.058,-0.053,-1.458,-5.466,12.696,5.778,-2.116,-1.217,angry
7.21,2956,3155,3700,3457,2657,0,2379,3133,0,0,0,0,0,0,0,0,0.151,3.800,9.287,0.026,0.056,-0.045,-0.639,-6.958,16.305,5.594,-2.720,-1.204,angry
7.22,3026,3086,3714,3476,2731,0,2471,3154,0,0,46,0,0,0,0,0,0.285,3.721,9.330,0.023,0.072,-0.054,0.084,-9.191,19.613,5.378,-2.863,-1.298,angry
7.23,3091,3047,3746,3515,2825,0,2527,3143,0,0,0,0,0,0,0,0,0.318,3.797,9.287,0.027,0.101,-0.048,-2.399,-19.613,19.613,4.967,-2.714,-1.998,angry
7.24,3179,3146,3779,3579,2976,0,2496,3071,0,0,0,51,0,0,0,0,0.069,3.524,9.194,0.019,0.128,-0.007,-5.337,-19.613,9.651,3.890,-0.612,-1.341,angry
7.25,3303,3264,3827,3664,3023,0,2241,2608,0,2,0,9,0,0,0,0,0.376,3.431,9.337,0.108,0.149,0.019,-12.328,-19.613,0.848,2.998,-1.262,-1.005,angry
7.26,3462,3442,3889,3747,2865,0,1671,778,37,0,0,0,0,0,0,0,0.582,3.065,8.610,0.272,0.333,0.058,-12.754,-19.613,-10.743,-0.483,-0.988,-0.779,angry
7.27,3583,3569,3939,3829,2384,0,269,0,0,0,0,0,1,0,0,0,-0.263,3.378,9.615,0.611,0.262,0.160,2.251,-4.451,-0.266,-1.577,3.425,0.223,angry
7.28,3689,3641,3975,3875,1906,0,0,0,0,0,0,0,0,0,0,2341,0.553,2.150,10.197,1.054,0.289,0.398,-5.626,19.613,19.613,-2.393,2.773,0.362,angry
7.29,3798,3663,3993,3909,1230,0,0,0,0,0,0,0,0,0,0,3427,1.207,0.055,9.541,1.646,0.178,0.598,-17.662,6.012,0.881,-4.982,-2.099,-0.758,angry
7.30,3864,3583,4007,3921,908,0,0,0,7,0,0,0,0,0,42,3671,1.204,2.806,9.574,1.998,-0.112,0.826,-4.393,-1.856,2.801,-5.355,-0.221,1.525,angry
7.31,3941,3211,4014,3921,820,0,0,0,0,0,0,0,0,0,701,3813,-0.970,2.337,8.147,2.898,-0.007,0.832,4.269,-16.855,18.119,-4.196,-0.682,0.996,angry
7.32,3983,2861,3967,3767,104,0,0,0,0,0,0,0,0,0,1598,3885,1.460,1.413,10.156,4.268,0.107,-0.244,-11.693,-19.613,19.613,-0.111,6.379,3.301,angry
7.33,3878,2354,3520,3229,0,0,0,0,0,783,266,221,0,0,2455,3938,-0.215,2.523,12.938,6.734,0.086,-0.725,1.757,-3.728,13.072,-0.386,0.789,0.378,angry
7.34,2805,797,2366,1915,0,0,0,0,2,1416,688,1291,230,0,2608,3957,3.632,7.125,19.613,8.699,-3.008,-3.166,0.077,-3.189,11.413,-0.220,0.635,0.166,angry
7.35,1106,0,0,0,0,0,0,0,1,1949,2692,2667,583,1,3035,4005,2.490,19.609,19.613,8.285,-1.777,-4.081,-0.084,-2.859,10.171,-0.106,0.318,0.056,angry
7.36,0,0,0,0,0,0,0,0,7,2332,2833,2936,1553,3,3189,4041,10.175,16.242,19.613,0.743,1.707,-2.102,0.852,-2.890,9.732,-0.005,0.051,0.020,angry
7.37,0,0,0,0,0,0,0,0,6,2488,2833,3019,2067,0,3317,4053,11.001,-3.232,19.082,0.131,1.537,-0.404,0.725,-2.761,9.749,0.001,0.013,0.010,angry
7.38,0,0,0,0,0,0,0,0,2,2665,2858,3221,2447,3,3363,4028,10.448,2.033,9.493,-1.063,1.719,0.124,0.543,-2.641,9.718,-0.038,-0.053,0.035,angry
7.39,0,0,0,0,0,0,0,0,0,2724,3017,3273,2695,1,3449,3996,5.966,-1.867,8.116,-1.440,1.835,0.537,0.802,-2.729,9.902,-0.010,0.025,0.035,angry
7.40,0,0,0,0,0,0,0,0,6,2814,2902,3351,2837,1,3479,3956,4.666,-2.222,6.215,-1.832,1.463,0.940,1.137,-2.648,9.582,-0.008,0.007,0.058,angry
7.41,0,0,0,0,0,0,0,0,3,2907,2920,3373,2939,3,3419,3828,3.438,-3.014,4.853,-1.994,1.013,1.301,1.010,-2.761,9.929,0.024,0.062,0.040,angry
7.42,0,0,0,0,0,0,0,0,3,2941,3007,3451,2996,2,3357,3765,3.235,-1.911,6.009,-2.225,0.770,1.634,0.929,-2.751,9.649,-0.013,0.066,0.015,angry
7.43,0,0,0,0,0,0,0,0,59,2985,2986,3507,2989,18,3263,3637,2.808,0.000,7.587,-2.712,0.797,1.870,0.855,-2.830,9.658,-0.077,0.021,0.018,angry
7.44,0,0,0,0,0,0,0,0,104,3037,3030,3545,3027,27,3141,3463,1.705,1.863,7.772,-3.334,0.902,1.892,0.864,-2.782,9.826,-0.083,0.021,0.015,angry
7.45,0,0,0,0,0,0,0,0,172,3103,2991,3571,3067,41,3055,3294,1.077,2.368,7.372,-3.791,0.923,1.778,0.946,-2.818,9.814,-0.074,0.042,0.027,angry
7.46,0,0,0,0,0,0,0,0,232,3123,2884,3597,3117,104,2939,3113,1.101,3.316,7.266,-4.063,0.787,1.624,0.826,-2.885,9.749,-0.060,0.042,0.036,angry
7.47,0,0,0,0,0,0,0,0,443,3157,3053,3638,3181,51,2631,2680,2.998,6.275,8.957,-4.380,0.410,1.592,1.046,-2.811,9.637,-0.041,0.039,0.048,angry
7.48,0,0,0,0,0,0,0,0,532,3183,3027,3647,3219,50,2617,2527,5.473,8.382,8.823,-4.614,0.491,1.841,1.010,-2.849,9.704,-0.036,0.047,0.049,angry
7.49,0,0,0,0,0,0,0,0,675,3252,3078,3659,3239,55,2475,2343,7.846,8.825,7.460,-4.703,0.857,2.258,0.991,-2.871,9.682,-0.036,0.064,0.048,angry
7.50,0,0,0,0,0,0,0,0,675,3252,3078,3659,3239,55,2475,2343,9.668,8.988,6.122,-4.485,1.227,2.836,0.900,-2.880,9.725,-0.040,0.069,0.054,angry
7.51,0,0,0,0,0,0,0,0,869,3323,3084,3677,3261,59,2355,1995,14.013,11.461,5.720,-4.057,1.587,3.695,0.984,-2.840,9.780,-0.039,0.080,0.062,angry
7.52,0,0,0,0,0,0,0,0,1047,3343,3091,3642,3269,47,2223,1725,19.613,19.613,8.102,-3.548,2.637,6.633,0.850,-2.765,9.728,-0.072,0.071,0.060,angry
7.53,0,0,0,0,0,0,0,0,1401,3383,3132,3613,3235,47,2073,933,19.613,19.613,-2.667,-3.029,4.954,8.731,0.769,-2.919,9.792,-0.074,0.061,0.061,angry
7.54,0,0,0,0,0,0,0,0,1639,3448,3137,3579,3129,47,1881,574,5.648,19.613,-8.286,-0.641,4.397,8.731,0.804,-2.899,9.658,-0.026,0.056,0.078,angry
7.55,0,0,0,0,0,0,0,0,1625,3477,3188,3615,3158,47,2099,539,0.654,19.613,-2.737,1.044,3.845,8.731,0.764,-2.863,9.673,-0.030,0.066,0.081,angry
7.56,0,0,0,0,0,0,0,0,1815,3499,3132,3576,3117,48,2057,628,-9.838,18.050,-0.448,1.467,1.808,6.062,0.848,-3.158,9.586,-0.052,0.059,0.083,angry
7.57,176,101,53,0,240,0,0,0,1974,3573,3096,3560,2997,24,1945,1055,16.154,19.613,19.613,4.719,-4.322,2.193,0.843,-3.089,9.572,0.026,0.168,0.085,angry
7.58,1345,1766,2448,511,750,0,0,0,1947,3364,3078,3532,2897,46,1863,1343,12.778,5.535,8.921,-1.429,0.935,0.660,0.929,-3.086,9.864,0.046,0.193,0.078,angry
7.59,1796,2303,3086,1873,1360,0,555,0,2059,3048,3012,3409,2237,46,1271,1893,5.911,0.383,5.133,0.794,-0.098,-0.093,-0.101,-2.691,9.749,0.071,0.080,0.192,angry
7.60,2080,2636,3280,2559,2014,0,1930,1712,2139,2493,2961,3067,1007,24,635,2163,-0.773,2.150,9.412,0.020,0.090,-0.102,-5.540,-1.741,10.173,0.171,-0.516,1.820,angry
7.61,2284,2608,3312,2900,2119,0,2354,2785,1698,2185,2886,2972,603,41,264,2197,-0.271,3.658,9.172,0.018,0.150,-0.163,-9.962,-1.487,11.600,0.287,-1.034,3.677,angry
7.62,2475,2559,3289,2992,2350,121,2751,3225,471,511,1998,2457,0,0,0,1566,-0.340,3.326,8.624,-0.024,-0.007,-0.155,-9.352,-10.353,7.728,0.299,-2.237,8.052,angry
7.63,2525,2652,3338,2993,2693,32,3019,3456,18,0,23,1083,0,29,0,355,0.761,3.706,9.416,-0.023,-0.062,-0.131,6.144,-18.830,8.526,1.097,-2.380,8.731,angry
7.64,2553,2752,3371,2999,2931,0,3185,3569,0,5,0,489,0,0,0,142,1.068,3.701,9.304,-0.001,-0.041,-0.042,3.718,-18.854,5.844,1.057,-2.609,8.731,angry
7.65,2559,2807,3400,3017,3025,0,3246,3635,7,0,0,0,0,0,0,0,0.998,3.479,8.973,0.030,0.022,-0.008,7.475,-19.613,9.345,0.807,-1.745,8.731,angry
7.66,2627,2863,3437,3090,3013,0,3231,3663,0,0,0,0,0,0,0,0,0.670,3.440,8.801,0.063,0.102,-0.018,9.036,-15.890,3.773,0.633,-1.504,7.434,angry
7.67,2656,2839,3457,3155,3008,0,3162,3669,0,0,0,0,10,0,0,0,0.213,3.898,9.316,0.042,0.149,-0.007,7.357,-12.953,2.346,-0.168,-1.367,6.419,angry
7.68,2672,2774,3454,3210,2886,0,3033,3693,0,0,0,0,0,0,0,0,0.117,3.766,9.546,0.016,0.153,-0.014,5.432,-9.155,7.568,-0.973,-1.338,5.082,angry
7.69,2706,2703,3440,3242,2739,0,2944,3696,0,0,0,0,0,0,0,0,0.268,3.649,9.316,0.034,0.138,-0.007,2.430,-5.021,7.257,-1.321,-1.279,4.309,angry
7.70,2751,2559,3419,3266,2673,0,2861,3696,55,0,0,0,0,0,0,0,0.199,3.658,9.266,0.044,0.145,-0.029,1.037,-3.876,7.010,-1.493,-1.397,4.198,angry
7.71,2785,2427,3409,3303,2559,0,2820,3685,0,0,0,0,0,0,0,0,0.124,3.675,9.249,0.026,0.151,-0.036,1.549,-3.139,8.018,-1.549,-1.485,4.332,angry
7.72,2807,2352,3408,3343,2507,0,2800,3659,18,0,0,0,0,0,0,0,0.057,3.704,9.278,0.040,0.099,-0.013,2.389,-3.395,11.581,-0.977,-1.826,4.387,angry
7.73,2832,2336,3424,3367,2462,0,2815,3623,0,0,0,0,0,0,0,77,0.089,3.699,9.299,0.053,0.082,-0.002,4.197,-2.277,10.609,-0.428,-1.720,4.401,angry
7.74,2847,2309,3437,3394,2458,0,2780,3575,0,0,0,0,0,0,0,0,0.172,3.740,9.263,0.045,0.077,-0.005,4.405,-1.233,10.331,0.100,-1.376,4.346,angry
7.75,2866,2289,3436,3408,2473,0,2805,3499,10,0,0,0,0,0,0,0,0.017,3.694,9.275,0.036,0.080,-0.010,5.471,-1.415,9.625,0.665,-1.778,4.149,angry
7.76,2880,2255,3433,3433,2512,0,2831,3440,0,0,0,0,0,0,0,0,0.079,3.625,9.220,0.039,0.065,-0.008,5.502,-1.544,9.629,0.829,-1.860,3.979,angry
7.77,2889,2251,3434,3440,2541,0,2840,3433,0,0,0,0,0,9,0,0,0.019,3.687,9.309,0.031,0.052,-0.000,5.255,-1.535,10.017,1.015,-1.990,3.785,angry
7.78,2880,2189,3408,3441,2559,0,2847,3423,0,0,0,0,0,0,0,0,0.089,3.764,9.323,0.043,0.041,0.012,4.566,-1.334,8.775,1.196,-2.186,3.425,angry
7.79,2868,2159,3402,3440,2559,0,2869,3430,0,0,0,0,9,0,0,0,0.120,3.694,9.345,0.032,0.046,0.010,4.760,-1.142,7.977,1.108,-2.096,3.204,angry
7.80,2855,2074,3377,3435,2534,0,2881,3440,61,0,0,0,0,0,0,0,0.122,3.780,9.388,0.028,0.050,-0.001,4.827,-0.833,7.053,0.902,-1.910,2.940,angry
7.81,2819,1874,3329,3429,2416,0,2911,3494,0,0,0,0,0,0,0,0,0.227,3.716,9.354,0.021,0.071,-0.025,14.293,-1.671,10.063,2.983,-0.064,1.587,angry
7.82,2747,1476,3242,3389,2112,0,2878,3551,0,0,0,183,0,0,0,0,0.165,3.608,9.201,0.027,0.070,-0.013,2.490,9.167,10.642,1.273,-0.112,0.282,angry
7.83,2507,896,2998,3277,1535,0,2716,3546,0,0,0,567,0,0,971,2380,0.510,3.862,9.457,-0.008,0.098,0.025,0.668,-6.912,9.182,0.479,0.330,0.016,angry
7.84,2154,390,2587,3054,810,0,2330,3371,0,0,1691,1179,89,0,1625,3167,0.620,3.713,9.357,0.003,0.265,0.145,0.826,-2.282,10.285,0.054,0.022,0.049,angry
7.85,1715,0,1254,2590,202,0,1745,3056,0,0,2044,1429,183,0,1723,3257,1.618,5.215,10.743,-0.253,0.799,0.411,0.912,-2.670,9.919,-0.010,0.018,0.083,angry
7.86,1072,0,0,1734,0,0,432,2653,0,0,2282,1939,227,0,2227,3402,5.531,6.950,11.873,-0.533,2.290,0.874,0.409,-2.394,9.795,0.042,0.095,0.089,angry
7.87,320,0,0,438,0,0,0,208,13,60,2444,2355,420,507,2793,3601,7.616,8.145,11.384,-1.139,4.061,1.518,0.390,-2.693,9.610,0.072,0.121,0.103,angry
7.88,0,0,0,0,0,0,0,0,22,169,2641,2541,937,1180,3047,3710,12.562,5.267,10.738,-1.996,6.120,1.621,0.711,-2.466,9.766,0.056,0.071,0.120,angry
7.89,0,0,0,0,0,0,0,0,31,650,2695,2696,1429,1597,3251,3800,-3.194,5.622,16.563,-0.645,5.058,3.085,0.778,-2.641,9.811,0.084,0.041,0.098,angry
7.90,0,0,0,0,0,0,0,0,30,1349,2807,2916,2339,1759,3485,3875,12.981,7.664,7.824,0.187,2.700,5.286,0.730,-2.373,9.574,-0.023,0.009,0.042,angry
7.91,0,0,0,0,0,0,0,0,85,1654,2927,3041,2779,1487,3547,3823,2.753,7.094,12.409,0.284,2.459,5.410,0.761,-2.682,9.708,-0.060,0.012,0.029,angry
7.92,0,0,0,0,0,0,0,0,138,1915,2971,3109,2859,1135,3641,3625,2.255,3.510,11.281,0.511,1.467,4.649,0.426,-2.227,10.008,-0.102,-0.012,0.042,angry
7.93,0,0,0,0,0,0,0,0,203,2232,3007,3227,2986,41,3345,3463,1.750,0.757,11.566,0.263,0.810,3.697,0.589,-2.591,9.740,-0.116,-0.014,0.029,angry
7.94,0,0,0,0,0,0,0,0,287,2340,3068,3309,3047,0,2904,3253,2.753,-1.080,10.731,-0.272,0.444,2.844,0.666,-2.835,9.538,-0.073,-0.031,0.054,angry
7.95,0,0,0,0,0,0,0,0,357,2414,3089,3337,3017,56,2827,3063,4.922,-0.864,10.870,-0.945,0.144,2.434,0.512,-2.682,9.926,-0.076,-0.039,0.043,angry
7.96,0,0,0,0,0,0,0,0,521,2463,3107,3401,3033,20,2683,2629,6.450,-0.148,9.546,-1.546,-0.149,2.474,0.421,-2.595,9.790,-0.041,-0.077,0.055,angry
7.97,0,0,0,0,0,0,0,0,697,2515,3124,3443,3023,51,2507,2261,6.117,1.626,9.670,-1.864,-0.507,2.758,0.826,-2.780,9.404,0.012,-0.074,0.063,angry
7.98,0,0,0,0,0,0,0,0,1063,2587,3296,3531,2923,49,2488,1267,5.191,3.761,10.274,-2.175,-0.830,3.002,0.584,-2.708,9.728,-0.083,-0.048,0.041,angry
7.99,0,0,0,0,0,0,0,0,1351,2667,3155,3592,2920,22,2201,101,3.723,3.922,7.096,-2.107,-0.711,3.090,0.702,-2.753,9.682,-0.065,-0.075,0.060,angry
8.00,0,0,0,0,0,0,0,0,1483,2752,3163,3631,2693,27,2132,103,1.872,4.731,8.930,-1.372,-0.934,3.054,0.476,-2.859,9.780,-0.049,-0.066,0.073,angry
8.01,0,0,0,0,0,0,0,0,1753,2807,3199,3647,2633,2,2111,0,3.326,9.991,13.491,-1.134,-1.148,3.202,0.781,-2.770,9.692,-0.037,-0.043,0.071,angry
8.02,0,0,0,0,0,0,0,0,2059,2809,3214,3759,2572,0,1971,0,0.101,14.006,12.804,-1.297,-1.286,3.817,0.661,-2.909,9.799,-0.002,-0.098,0.103,angry
8.03,0,0,0,0,0,0,0,0,2053,2848,3255,3801,2440,2,1070,4,-6.172,19.613,12.644,-1.327,-0.841,3.946,0.697,-2.495,9.766,-0.083,-0.091,0.124,angry
8.04,0,0,0,0,0,0,0,0,2415,2939,3273,3903,2423,0,308,0,-13.783,19.613,8.102,-2.595,-0.066,3.064,0.613,-2.468,9.972,-0.473,-0.002,-0.070,angry
8.05,0,0,0,0,0,0,0,0,2487,2975,3293,3928,2155,3,469,0,-9.974,19.613,-13.197,-0.869,0.528,1.876,0.716,-2.459,9.550,-0.476,-0.055,-0.082,angry
8.06,0,0,0,0,0,0,0,1728,2805,3156,3309,3959,1619,3,345,0,-7.446,19.613,-8.875,1.743,1.115,1.553,0.675,-2.638,9.646,-0.525,-0.040,-0.067,angry
8.07,0,0,0,0,0,0,411,3461,3038,3251,3329,3923,1069,8,227,0,-19.613,-4.985,17.221,2.708,2.390,-0.978,0.742,-1.791,9.524,-0.979,-0.265,-0.144,angry
8.08,0,0,0,0,0,0,1525,3756,3093,3245,3334,3877,855,0,163,0,4.317,12.270,11.782,3.834,-0.518,-0.778,1.681,-1.372,9.096,-1.480,-0.570,-0.208,angry
8.09,795,0,0,0,668,0,2375,3778,3115,2862,3365,3736,1242,2,95,0,-3.869,-3.852,3.634,-0.751,0.857,0.208,3.014,-2.028,10.716,-3.965,0.026,-0.225,angry
8.10,1325,471,625,225,732,0,2707,3788,2735,1436,3229,3263,1193,0,0,0,5.227,3.462,7.757,0.892,0.073,-0.178,0.287,0.139,9.936,-7.762,-0.818,0.664,angry
8.11,1601,1040,2076,1633,1327,0,2993,3840,1710,488,2121,2036,638,0,0,0,0.280,4.614,9.862,0.068,0.161,-0.074,2.485,2.485,19.613,-8.312,-1.749,1.572,angry
8.12,1731,1441,2559,2266,1761,0,3183,3901,913,0,0,3,0,0,24,0,0.474,3.615,9.515,0.040,0.125,-0.063,0.922,-15.122,19.613,-8.731,-2.358,2.919,angry
8.13,1853,1663,2766,2554,2109,463,3312,3907,5,0,0,0,0,0,0,0,0.232,3.895,9.522,0.013,0.128,-0.041,8.167,-1.681,19.613,-5.643,-2.704,3.140,angry
8.14,1958,1885,2893,2685,2286,1063,3377,3947,0,57,0,0,0,0,0,38,0.254,3.953,9.771,0.015,0.088,-0.016,1.997,6.115,19.613,-0.549,0.105,4.383,angry
8.15,2031,2015,3027,2759,2462,1152,3415,3954,2,0,153,0,0,0,0,0,0.139,3.584,9.287,0.029,0.048,0.010,10.271,2.911,14.310,2.573,-0.048,2.516,angry
8.16,2063,2177,3120,2809,2515,595,3435,3931,0,0,0,0,0,0,0,0,0.261,3.627,9.402,0.030,0.060,-0.006,8.231,1.697,9.742,3.803,0.734,1.316,angry
8.17,2064,2250,3152,2833,2559,230,3413,3918,0,0,0,0,0,0,0,0,0.292,3.697,9.531,0.016,0.093,-0.021,7.633,0.692,8.976,4.268,0.313,0.670,angry
8.18,2047,2275,3184,2843,2594,0,3394,3908,0,0,176,0,0,0,0,0,0.196,3.587,9.352,0.026,0.091,-0.013,7.147,-0.694,8.502,4.565,-0.135,0.064,angry
8.19,2019,2318,3210,2848,2559,0,3331,3870,0,0,0,0,19,0,0,0,0.014,3.488,9.297,0.035,0.066,-0.003,7.046,-2.648,9.052,4.868,-0.532,-0.544,angry
8.20,1995,2368,3245,2822,2595,0,3273,3820,0,0,0,0,0,0,0,0,0.055,3.491,9.380,0.049,0.034,-0.004,5.420,-4.640,8.854,5.294,-0.755,-1.440,angry
8.21,1997,2414,3257,2800,2649,0,3189,3760,0,0,0,0,0,0,0,0,0.309,3.476,9.282,0.068,0.046,-0.024,2.310,-7.015,11.451,5.551,-0.988,-1.622,angry
8.22,2069,2486,3307,2859,2735,0,3123,3718,0,0,0,0,0,0,0,0,0.122,3.512,9.321,0.086,0.065,-0.049,1.128,-7.532,11.708,5.586,-1.282,-1.527,angry
8.23,2236,2503,3366,2950,2832,0,3070,3679,0,0,0,0,0,0,0,0,0.069,3.326,9.108,0.125,0.032,-0.044,0.709,-7.202,13.367,5.261,-1.801,-1.238,angry
8.24,2328,2542,3453,3053,2960,0,3020,3632,0,0,0,0,0,0,0,0,0.184,3.543,9.261,0.132,0.065,-0.064,5.827,-12.541,19.613,4.665,-2.077,-1.516,angry
8.25,2427,2675,3541,3152,3126,0,2939,3583,0,0,0,0,0,0,0,0,0.208,3.469,9.210,0.135,0.074,-0.058,3.960,-17.463,18.833,4.537,-1.617,-2.342,angry
8.26,2531,2864,3633,3279,3285,0,2891,3460,0,0,0,0,0,0,0,0,0.144,3.424,9.167,0.139,0.073,-0.036,-2.954,-19.613,12.368,3.907,-0.648,-2.493,angry
8.27,2774,3135,3743,3437,3425,0,2769,3152,0,0,0,0,0,0,0,0,0.069,3.745,9.677,0.184,0.100,-0.010,-9.103,-19.613,-3.172,2.213,-0.651,-1.735,angry
8.28,3022,3383,3835,3599,3504,0,2404,1438,0,0,0,0,12,0,0,0,0.227,4.499,8.868,0.144,0.144,0.040,-9.565,-19.613,-4.561,0.667,-0.477,-1.302,angry
8.29,3237,3571,3917,3721,3117,0,1282,0,28,0,0,0,0,0,0,0,-0.139,2.761,9.766,0.524,0.234,0.147,-5.746,-19.613,-10.271,-2.023,1.596,-0.616,angry
8.30,3491,3734,3989,3814,2263,0,304,0,0,0,0,0,106,0,0,2853,0.532,1.669,9.998,1.206,0.301,0.439,-5.631,7.554,19.613,-3.159,2.254,0.296,angry
8.31,3696,3791,4016,3846,1369,0,283,0,0,0,0,0,0,0,0,3448,1.693,1.118,9.598,2.038,-0.091,0.823,-17.509,1.769,12.024,-5.418,-2.580,-0.682,angry
8.32,3819,3631,3999,3701,710,0,320,0,0,0,0,0,0,0,1233,3743,0.608,1.437,10.429,3.714,-0.046,0.860,19.613,-11.550,19.613,-4.733,-0.846,1.617,angry
8.33,3760,2925,3887,3261,0,0,0,0,0,0,0,0,0,0,2153,3899,0.682,2.954,10.693,6.391,0.809,0.915,-0.378,-3.179,17.210,-0.081,1.154,0.525,angry
8.34,3582,2263,3581,2841,0,0,0,0,0,139,0,0,33,0,2415,3951,-0.369,1.712,19.613,7.500,0.082,0.493,1.958,-2.528,7.922,0.052,0.918,0.443,angry
8.35,2607,1431,2937,2156,0,0,0,0,0,139,0,0,33,0,2415,3951,-1.353,1.681,19.613,8.731,-2.644,-1.193,0.273,-2.744,10.903,0.126,0.446,0.141,angry
8.36,1157,0,190,0,0,0,0,0,0,647,0,283,337,0,2888,4041,-4.116,12.668,19.613,8.731,-1.741,-3.143,1.013,-2.816,10.274,-0.007,0.240,0.156,angry
8.37,0,0,0,0,0,0,0,0,0,1380,1837,733,533,3,3156,4095,11.782,2.289,19.613,3.514,0.016,-4.209,0.919,-2.670,10.599,-0.012,0.098,0.180,angry
8.38,0,0,0,0,0,0,0,0,0,1512,1988,1144,779,1,3253,4095,-0.230,6.543,19.613,0.271,0.080,-2.125,1.348,-2.612,9.637,-0.078,0.050,0.135,angry
8.39,0,0,0,0,0,0,0,0,0,1511,2111,1510,1083,2,3260,4095,6.153,-2.160,18.651,-0.778,-0.410,-1.802,1.106,-2.916,9.816,-0.032,0.024,0.092,angry
8.40,0,0,0,0,0,0,0,0,0,1721,2078,1701,1207,1,3319,4095,4.978,-3.354,10.048,-2.247,0.097,-1.815,1.018,-2.602,9.864,0.003,0.128,0.038,angry
8.41,0,0,0,0,0,0,0,0,17,1831,2367,1976,1353,10,3355,4075,5.938,-1.018,8.566,-2.687,-0.214,-1.391,1.061,-2.674,9.668,-0.022,0.132,0.043,angry
8.42,0,0,0,0,0,0,0,0,45,1849,2615,2099,1252,13,3309,4095,6.634,-0.165,7.932,-3.406,-0.576,-0.487,0.915,-2.761,9.821,-0.024,0.189,0.042,angry
