timestamp,L1,L2,L3,L4,L5,L6,L7,L8,R1,R2,R3,R4,R5,R6,R7,R8,acc_x_left,acc_y_left,acc_z_left,gyro_x_left,gyro_y_left,gyro_z_left,acc_x_right,acc_y_right,acc_z_right,gyro_x_right,gyro_y_right,gyro_z_right,mood
0,2683,2030,3390,2890,1337,0,2028,3259,1694,1447,2922,3063,1198,45,2549,3364,0.034,3.709,9.349,0.045,0.03,-0.01,0.407,-2.614,9.809,0.005,0.021,0.02,angry
0.01,2678,2014,3382,2839,1360,0,2032,3260,1711,1449,2915,3097,1142,48,2555,3369,0.005,3.699,9.29,0.043,0.026,-0.005,0.421,-2.653,9.785,0.005,0.022,0.017,angry
0.02,2673,2003,3381,2880,1379,0,2032,3271,1715,1444,2907,3100,1170,47,2551,3437,-0.014,3.663,9.361,0.044,0.025,-0.01,0.426,-2.638,9.764,0.007,0.015,0.022,angry
0.03,2679,1985,3376,2880,1370,0,2033,3275,1704,1451,2907,3101,1145,44,2583,3384,0,3.742,9.294,0.05,0.028,-0.005,0.457,-2.648,9.747,0.008,0.023,0.02,angry
0.04,2681,1969,3373,2881,1344,0,2032,3275,1683,1463,2910,3103,1257,51,2571,3375,0.019,3.697,9.306,0.049,0.03,-0.007,0.431,-2.602,9.761,0.011,0.025,0.019,angry
0.05,2679,1968,3369,2878,1361,0,2038,3280,1711,1461,2927,3063,1199,49,2568,3388,-0.014,3.654,9.297,0.05,0.025,-0.008,0.455,-2.622,9.742,0.012,0.022,0.019,angry
0.06,2686,1950,3363,2877,1371,0,2043,3280,1628,1467,2902,3109,1189,47,2551,3353,0.012,3.654,9.273,0.051,0.025,-0.01,0.407,-2.617,9.744,0.012,0.021,0.017,angry
0.07,2675,1956,3360,2869,1366,0,2047,3282,1577,1461,2925,3109,1175,47,2543,3391,0.014,3.694,9.313,0.047,0.029,-0.008,0.429,-2.622,9.768,0.01,0.023,0.018,angry
0.08,2681,1946,3350,2871,1376,0,2044,3287,1596,1455,2899,3104,1203,44,2551,3384,-0.045,3.694,9.268,0.044,0.026,-0.007,0.433,-2.643,9.718,0.011,0.021,0.017,angry
0.09,2680,1908,3329,2869,1357,0,2058,3300,1527,1427,2899,3096,1236,141,2524,3398,-0.005,3.634,9.316,0.044,0.025,-0.009,0.419,-2.622,9.708,0.013,0.022,0.022,angry
0.1,2658,1840,3312,2862,1370,0,2064,3312,1439,1397,2879,3060,1224,47,2495,3407,0.022,3.701,9.337,0.048,0.021,-0.003,0.417,-2.653,9.785,0.018,0.026,0.02,angry
0.11,2643,1744,3269,2832,1377,0,2067,3328,1361,1349,2889,3022,1227,50,2495,3409,-0.026,3.728,9.352,0.031,0.024,-0.004,0.453,-2.648,9.778,0.026,0.023,0.014,angry
0.12,2586,1523,3203,2788,1357,0,2042,3362,799,1239,2858,2933,1134,50,2344,3419,-0.041,3.74,9.335,0.024,0.026,-0.001,0.424,-2.696,9.754,0.044,0.024,0.022,angry
0.13,2486,1162,3109,2656,1307,0,2045,3399,483,895,2738,2751,919,48,2287,3436,0.041,3.721,9.258,0.002,0.033,0.005,0.362,-2.665,9.756,0.044,0.027,0.015,angry
0.14,2243,816,2951,2031,1285,0,2031,3440,399,703,2725,2631,855,53,2247,3454,-0.002,3.625,9.282,0.009,0.032,0.003,0.407,-2.622,9.716,0.055,0.029,0.018,angry
0.15,1693,474,2798,1746,1223,0,2014,3472,155,367,2549,2311,678,28,2295,3495,0.065,3.639,9.316,0.019,0.032,-0.006,0.417,-2.591,9.766,0.049,0.033,0.018,angry
0.16,1520,356,2640,1559,1078,0,1983,3488,137,265,2349,1700,481,26,2349,3528,-0.108,3.426,9.208,0.022,0.027,-0.026,0.409,-2.6,9.831,0.047,0.031,0.015,angry
0.17,1491,266,2448,1481,745,0,1955,3504,111,181,1991,1494,485,27,2385,3731,0.057,3.637,9.323,0.033,0.023,-0.008,0.484,-2.449,9.72,0.04,0.034,0.015,angry
0.18,1473,127,2261,1417,586,0,1921,3507,201,75,2121,1416,453,20,2403,3571,-0.017,3.591,9.318,0.036,0.035,-0.009,0.352,-2.512,9.764,0.019,0.024,0.016,angry
0.19,1424,219,2138,1325,323,0,1900,3506,239,81,2152,1427,357,26,2253,3628,0.01,3.651,9.27,0.039,0.037,-0.007,0.441,-2.567,9.768,0.012,0.029,0.01,angry
0.2,1436,182,1989,1260,234,0,1851,3505,139,107,2067,1479,389,21,2270,3612,-0.002,3.594,9.33,0.044,0.04,-0.004,0.359,-2.65,9.792,0.018,0.029,0.018,angry
0.21,1492,64,1825,1252,106,0,1753,3488,137,33,1794,1413,421,12,2381,3669,0.012,3.658,9.431,0.056,0.027,-0.003,0.388,-2.55,9.776,0.026,0.031,0.017,angry
0.22,1342,59,1678,1126,80,0,1493,3394,160,45,1755,1367,460,13,2567,3677,-0.007,3.45,9.285,0.098,-0.003,0.002,0.268,-2.516,9.809,0.056,0.029,0.022,angry
0.23,1424,71,1566,972,0,0,747,2994,210,22,1732,1317,567,0,2651,3705,0.06,3.402,9.361,0.157,-0.052,0.007,0.567,-2.555,9.725,0.074,0.035,0.015,angry
0.24,1517,128,1747,805,0,0,69,946,229,41,1694,1245,711,11,2855,3758,0.204,2.983,9.29,0.418,-0.173,0.076,0.347,-2.646,9.792,0.104,0.021,0.01,angry
0.25,1344,176,1925,511,0,0,0,0,171,17,1881,1131,779,0,3097,3851,-1.776,1.092,9.838,0.613,-0.594,-0.975,0.28,-2.373,9.768,0.117,0.019,0.014,angry
0.26,1363,39,1449,208,0,0,0,0,99,22,2044,1043,866,4,3242,3863,0.077,2.626,10.025,1.463,-0.661,-0.75,0.438,-2.49,9.843,0.12,0.017,0.028,angry
0.27,1321,0,176,0,0,0,0,0,0,10,2044,548,969,0,3381,3974,1.144,1.856,11.923,1.838,-0.919,-1.321,0.414,-2.401,9.704,0.1,-0.051,0.001,angry
0.28,852,0,0,0,0,0,0,0,69,8,1850,458,991,0,3464,3995,-0.888,1.81,12.847,1.866,-1.054,-1.6,0.117,-2.468,9.914,0.101,-0.077,-0.017,angry
0.29,112,0,0,0,0,0,0,0,0,16,1128,141,1012,0,3535,4009,-0.663,0.948,13.326,1.699,-1.257,-1.957,0.453,-2.411,9.907,0.102,-0.079,-0.017,angry
0.3,0,0,0,0,0,0,0,0,0,4,0,103,1035,0,3549,4021,0.783,0.421,12.234,1.31,-1.355,-2.019,0.474,-2.43,9.682,0.096,-0.08,-0.01,angry
0.31,0,0,0,0,0,0,0,0,0,5,0,40,1055,0,3573,4027,4.197,3.833,12.871,0.646,-1.16,-1.923,0.491,-2.286,9.725,0.082,-0.056,-0.004,angry
0.32,0,0,0,0,0,0,0,0,0,2,0,0,1031,0,3603,4046,5.449,1.755,14.631,-0.244,-0.474,-1.467,0.287,-2.507,9.888,0.078,-0.051,0.016,angry
0.33,0,0,0,0,0,0,0,0,0,0,0,0,1036,0,3599,4031,4.496,-0.5,10.922,-0.845,-0.072,-0.944,0.591,-2.308,9.886,0.06,-0.024,0.019,angry
0.34,0,0,0,0,0,0,0,0,0,0,0,0,973,0,3667,4038,2.55,-1.448,8.143,-0.957,-0.201,-0.427,0.663,-2.181,9.708,0.027,0.005,0.044,angry
0.35,0,0,0,0,0,0,0,0,0,3,0,0,935,0,3662,4041,1.506,-0.874,8.219,-0.957,-0.422,-0.075,0.637,-2.143,9.697,0,0.025,0.065,angry
0.36,0,0,0,0,0,0,0,0,0,7,0,0,975,0,3671,4042,1.104,0.036,8.973,-1.083,-0.423,0.117,0.582,-2.255,9.687,-0.024,0.055,0.069,angry
0.37,0,0,0,0,0,0,0,0,0,3,0,0,953,0,3669,4045,0.543,0.563,9.517,-1.241,-0.281,0.204,0.409,-2.272,9.867,-0.038,0.063,0.069,angry
0.38,0,0,0,0,0,0,0,0,0,11,0,0,972,6,3677,4044,-0.29,1.41,9.969,-1.412,-0.235,0.21,0.702,-2.298,9.766,-0.046,0.072,0.094,angry
0.39,0,0,0,0,0,0,0,0,0,21,0,10,1031,0,3567,4031,-0.713,2.454,10.613,-1.612,-0.27,0.137,0.505,-2.303,9.737,-0.062,0.086,0.095,angry
0.4,0,0,0,0,0,0,0,0,0,12,2,87,1111,0,3675,4037,-0.515,3.136,10.151,-1.835,-0.269,-0.005,0.512,-2.286,9.756,-0.066,0.106,0.104,angry
0.41,0,0,0,0,0,0,0,0,0,40,1300,295,1147,28,3672,4029,-0.091,3.965,9.134,-1.919,-0.324,-0.146,0.445,-2.404,9.845,-0.072,0.121,0.115,angry
0.42,0,0,0,0,0,0,0,0,1,89,2009,372,1255,3,3667,4024,1.468,5.344,8.195,-1.858,-0.426,-0.158,0.453,-2.433,9.886,-0.075,0.135,0.115,angry
0.43,0,0,0,0,0,0,0,0,17,91,1998,651,1253,1,3662,4015,3.285,7.46,6.823,-1.764,-0.352,0.043,0.328,-2.466,9.888,-0.079,0.139,0.105,angry
0.44,0,0,0,0,0,0,0,0,3,159,2218,826,1309,57,3644,4095,0.757,8.394,4.659,-1.54,-0.209,0.391,0.311,-2.526,9.802,-0.062,0.134,0.097,angry
0.45,0,0,0,0,0,0,0,0,2,199,2272,1336,1335,2,3636,3997,-2.284,9.926,4.096,-1.113,-0.266,0.489,0.309,-2.389,9.771,-0.072,0.128,0.086,angry
0.46,0,0,0,0,0,0,0,0,1,225,2321,1593,1314,2,3613,3987,-0.306,19.613,-7.365,-0.001,0.132,0.796,0.366,-2.514,9.795,-0.049,0.115,0.075,angry
0.47,0,0,0,0,0,0,0,1963,3,271,2382,1827,1386,3,3579,3959,-18.395,19.613,-3.965,1.355,0.443,-0.005,0.445,-2.342,9.735,-0.072,0.102,0.067,angry
0.48,0,0,0,0,0,0,847,3204,21,371,2556,2171,1407,5,3471,3894,-0.809,15.22,19.613,0.408,2.147,-1.604,0.445,-2.466,9.768,-0.095,0.095,0.055,angry
0.49,0,0,0,0,0,0,1347,3461,69,316,2608,2340,1421,19,3304,3847,2.835,-9.009,-6.273,1.066,0.969,-0.613,0.476,-2.471,9.79,-0.116,0.07,0.037,angry
0.5,0,0,0,0,69,0,1697,3517,210,263,2774,2566,973,1,2321,3555,5.653,0.594,14.054,0.575,0.579,-0.558,0.299,-2.497,9.977,-0.188,0.009,0.005,angry
0.51,657,23,752,67,737,0,2154,3610,775,269,2966,2812,639,46,1187,2301,0.129,4.566,9.759,0.339,0.141,-0.256,0.46,-1.99,10.106,-0.319,-0.092,-0.069,angry
0.52,1324,573,2361,1200,1091,0,2698,3730,1354,267,3007,2921,285,43,251,483,0.168,4.896,11.152,0.056,0.144,-0.086,1.152,-1.566,9.85,-0.779,-0.284,-0.241,angry
0.53,1664,970,2869,1986,1381,0,3029,3792,2211,78,2892,2898,0,0,1,311,0.235,3.699,9.464,0.093,0.09,-0.043,-0.12,-0.187,9.036,-2.662,-0.492,-1.042,angry
0.54,2015,1242,3139,2387,1722,0,3175,3824,2404,0,2684,2423,0,0,3,135,0.139,4.173,9.704,0.062,0.037,-0.007,3.012,-2.289,12.414,-3.599,1.047,-0.26,angry
0.55,2194,1585,3296,2559,2142,453,3271,3850,2157,0,0,1157,0,0,0,97,0.12,3.639,9.088,0.05,0.048,-0.006,2.09,0.527,15.569,-4.976,0.616,0.808,angry
0.56,2327,1712,3410,2704,2232,811,3329,3859,510,0,0,0,0,0,30,10,0.072,3.632,9.457,0.041,0.042,-0.009,6.852,-7.982,19.096,-5.581,2.823,2.405,angry
0.57,2415,1776,3457,2786,2386,924,3363,3865,0,0,0,0,0,0,0,0,0.017,3.625,9.448,0.044,0.058,-0.018,15.158,1.422,19.082,-1.541,3.543,2.509,angry
0.58,2492,1945,3495,2842,2471,784,3359,3853,0,0,0,0,0,0,0,0,0.014,3.618,9.529,0.039,0.06,-0.012,12.335,-1.31,16.393,-1.235,0.848,-0.348,angry
0.59,2512,2000,3515,2857,2467,405,3336,3824,0,0,0,0,0,0,0,0,0.022,3.534,9.522,0.047,0.03,-0.015,9.773,5.622,9.629,-0.017,0.47,-1.262,angry
0.6,2522,2069,3520,2862,2400,97,3273,3799,44,0,0,0,0,0,0,0,0.053,3.575,9.369,0.046,0.043,-0.018,4.997,5.308,10.001,0.939,-0.544,-1.574,angry
0.61,2478,2102,3515,2839,2282,0,3197,3761,0,0,0,56,0,0,0,0,-0.019,3.548,9.292,0.037,0.043,-0.009,4.221,4.587,9.694,1.447,-0.804,-1.573,angry
0.62,2445,2130,3504,2807,2187,0,3134,3733,0,13,0,0,0,0,0,0,-0.103,3.615,9.345,0.035,0.046,-0.018,1.638,2.708,10.956,2.486,-1.217,-1.403,angry
0.63,2423,2162,3494,2791,2129,0,3115,3715,0,0,0,0,0,0,0,0,-0.072,3.565,9.328,0.026,0.046,-0.019,0.716,0.256,11.241,3.274,-1.686,-1.191,angry
0.64,2436,2176,3509,2787,2229,0,3134,3718,0,0,0,0,0,0,0,0,-0.036,3.563,9.369,0.03,0.055,-0.019,0.302,-0.953,11.322,3.61,-1.678,-1.047,angry
0.65,2470,2126,3521,2819,2341,0,3155,3730,0,0,0,0,0,0,0,0,-0.048,3.539,9.34,0.022,0.068,-0.029,0.227,-2.801,11.772,3.956,-1.81,-0.743,angry
0.66,2506,1978,3549,2862,2451,0,3203,3680,0,0,0,0,0,0,0,0,-0.014,3.428,9.28,0.063,0.027,-0.022,4.111,-4.573,12.368,3.839,-2.015,-0.984,angry
0.67,2598,1942,3611,2925,2606,121,3236,3731,0,0,0,0,0,0,0,0,-0.017,3.51,9.445,0.072,0.045,-0.021,7.209,-6.665,13.032,3.561,-2.019,-1.54,angry
0.68,2685,3024,3693,3027,3674,389,385,3670,0,0,0,0,0,0,0,0,-0.012,3.828,9.388,0.046,0.096,-0.019,6.472,-19.221,16.75,3.125,-1.86,-3.389,angry
0.69,2783,2375,3782,3189,3013,755,3067,3525,0,0,10,0,0,0,0,0,-0.17,3.383,9.167,0.204,0.048,0.036,-0.989,-19.613,7.367,2.486,-0.378,-4.248,angry
0.7,2871,2671,3887,3366,3213,534,2709,3001,0,0,0,0,0,0,0,0,-0.122,3.232,9.131,0.268,0.051,0.008,-6.728,-19.613,1.228,1.736,0.311,-3.814,angry
0.71,3154,2991,3968,3567,3148,48,1771,19,0,0,0,0,0,0,0,0,-0.946,2.301,10.896,0.433,0.155,-0.027,-10.618,-19.613,-5.99,-1.46,0.648,-0.93,angry
0.72,3431,3189,4025,3642,2215,0,626,0,0,0,0,0,0,0,0,499,0.433,4.113,8.997,1.046,0.019,0.371,-3.773,-2.691,17.083,-1.063,4.328,1.508,angry
0.73,3574,3280,4045,3691,1413,0,734,0,45,44,125,43,35,57,365,1762,0.642,1.956,9.965,1.854,0.067,0.614,-9.857,4.305,19.613,-2.851,1.085,0.706,angry
0.74,3779,3226,4064,3737,748,0,796,0,0,0,0,0,2,0,569,2509,0.821,1.743,8.507,2.745,-0.228,0.927,-3.524,5.88,2.646,-4.054,-0.096,1.032,angry
0.75,3884,2532,4042,3640,415,0,783,0,0,0,0,0,0,0,1781,3423,0.527,5.693,9.328,3.953,0.662,0.594,-1.997,-19.613,18.826,-1.113,3.07,2.968,angry
0.76,3872,1815,3824,2895,0,0,0,0,27,0,104,2875,72,29,2813,0,5.827,8.198,13.329,5.79,1.292,0.204,2.471,-7.281,16.352,0.286,0.935,0.42,angry
0.77,3555,214,2669,1373,0,0,0,0,0,0,0,0,458,0,3080,3704,-11.131,6.977,19.613,8.731,-1.312,-1.856,1.676,-3.5,11.411,0.153,0.455,0.237,angry
0.78,1753,0,167,0,0,0,0,0,3,151,639,223,789,4,3421,3820,1.314,13.434,15.871,8.731,-1.743,-3.233,1.106,-2.868,10.013,0.016,0.237,0.143,angry
0.79,0,0,0,0,0,0,0,0,4,975,2367,572,1295,2,3478,3951,15.38,9.857,19.613,2.347,0.08,-4.114,1.044,-2.468,9.68,0.021,0.139,0.107,angry
0.8,0,0,0,0,0,0,0,0,3,1136,2577,888,1591,2,3672,3913,8.394,14.006,19.613,1.049,0.771,-1.471,0.941,-2.253,10.099,-0.022,0.068,0.075,angry
0.81,0,0,0,0,0,0,0,0,13,1303,2689,1097,1831,1,3741,3909,9.151,-5.155,18.601,-0.782,0.978,-1.296,0.587,-2.574,10.534,0.051,0.097,0.061,angry
0.82,0,0,0,0,0,0,0,0,1,1413,2792,1176,2072,5,3848,3893,5.267,-5.152,10.003,-1.568,0.46,-0.616,0.845,-2.231,9.898,0.006,0.107,0.058,angry
0.83,0,0,0,0,0,0,0,0,0,1449,2817,1338,2233,12,3801,3892,6.436,-2.373,8.456,-1.856,-0.204,-0.013,0.857,-2.243,9.936,-0.019,0.115,0.07,angry
0.84,0,0,0,0,0,0,0,0,1,1566,2853,1525,2444,47,3766,3829,6.941,-1.039,8.097,-2.561,-0.439,0.912,0.713,-2.449,9.917,-0.045,0.129,0.043,angry
0.85,0,0,0,0,0,0,0,0,2,1613,2899,1721,2379,3,3726,3749,5.509,0.199,8.475,-3.062,-0.365,1.378,0.472,-2.476,9.957,-0.003,0.09,0.04,angry
0.86,0,0,0,0,0,0,0,0,3,1645,2917,1801,2403,3,3678,3692,3.577,1.844,9.51,-3.58,-0.398,1.694,0.285,-1.597,9.955,-0.02,0.084,0.027,angry
0.87,0,0,0,0,0,0,0,0,1,1613,2930,1845,2461,3,3643,3567,1.707,2.933,9.495,-4.124,-0.501,1.831,0.723,-2.164,9.795,-0.068,0.081,0.068,angry
0.88,0,0,0,0,0,0,0,0,1,1575,2940,1944,2520,2,3609,3409,0.06,3.215,8.636,-4.568,-0.564,1.756,0.704,-2.38,9.802,-0.075,0.078,0.071,angry
0.89,0,0,0,0,0,0,0,0,1,1555,2973,1935,2555,3,3391,3134,-1.525,3.491,8.018,-4.849,-0.656,1.489,0.63,-2.392,9.799,-0.092,0.073,0.094,angry
0.9,0,0,0,0,0,0,0,0,1,1617,2986,2042,2739,25,3206,2892,-3.369,4.053,8.72,-4.929,-0.969,1.128,0.62,-2.356,9.881,-0.095,0.08,0.108,angry
0.91,0,0,0,0,0,0,0,0,3,1693,3007,2319,2666,2,3195,2887,-4.243,4.638,9.665,-4.943,-1.454,0.702,0.649,-2.339,9.704,-0.111,0.092,0.122,angry
0.92,0,0,0,0,0,0,0,0,13,1727,3043,2361,2776,5,3193,2777,-3.764,5.516,10.819,-4.948,-1.846,0.287,0.735,-2.435,9.685,-0.097,0.092,0.115,angry
0.93,0,0,0,0,0,0,0,0,103,2017,3094,2666,2990,27,3196,2629,-2.437,6.84,13.752,-4.907,-2.336,-0.086,0.606,-2.504,9.802,-0.114,0.087,0.085,angry
0.94,0,0,0,0,0,0,0,0,198,2119,3099,2783,3077,59,3199,2556,1.705,12.167,18.534,-4.764,-2.653,0.026,0.448,-2.909,9.764,-0.014,0.054,0.071,angry
0.95,0,0,0,0,0,0,0,0,759,2343,3165,3037,3351,56,3183,2403,1.425,19.613,14.739,-4.644,-1.485,1.21,0.565,-2.849,10.06,-0.039,0.02,0.088,angry
0.96,0,0,0,0,0,0,0,0,1545,2505,3181,3289,3495,47,3029,1691,-7.92,19.613,9.17,-3.876,-0.634,1.419,0.642,-2.385,9.833,-0.089,-0.047,0.079,angry
0.97,0,0,0,0,0,0,0,0,1927,2589,3201,3485,3547,50,2919,1275,-4.587,19.613,-12.653,-2.401,0.017,1.339,0.625,-2.32,9.756,-0.119,-0.055,0.073,angry
0.98,0,0,0,0,0,0,0,684,2547,2807,3217,3687,3469,21,2055,363,-7.542,19.613,-16.762,0.937,1.5,0.118,0.651,-2.437,9.62,-0.275,0.029,0.036,angry
0.99,0,0,0,0,0,0,560,3273,3097,2937,3252,3815,2617,38,265,153,-6.682,-7.925,-6.141,5.306,3.122,-0.941,-0.464,-0.213,10.281,-1.273,0.228,-0.371,angry
1,0,0,0,0,0,0,1499,3742,3311,3020,3255,3820,1836,46,186,120,-11.198,4.154,10.58,3.995,0.002,-0.696,1.951,-2.413,9.778,-1.017,0.197,-0.353,angry
1.01,54,0,0,0,743,0,2398,3710,3547,2975,3322,3751,149,23,51,68,2.21,4.168,1.958,-0.373,-0.371,0.239,4.154,2.085,8.124,-2.654,-1.419,-0.302,angry
1.02,1120,752,2373,465,1006,0,2740,3670,3123,1810,3388,3660,29,6,12,70,4.752,6.979,11.341,0.842,0.12,-0.333,1.836,-4.386,9.459,-7.498,-0.148,0.3,angry
1.03,1630,1655,3148,1807,1744,0,3101,3746,2597,263,3411,2825,41,11,11,11,1.049,5.195,10.139,0.236,0.219,-0.167,6.596,-5.945,19.613,-8.731,-0.069,1.245,angry
1.04,2032,1977,3438,2505,2320,27,3289,3815,501,0,0,41,0,0,0,0,0.192,3.543,9.292,0.086,0.131,-0.051,4.906,-3.51,19.613,-8.731,-0.403,4.421,angry
1.05,2401,2151,3633,2761,2559,555,3357,3789,0,0,0,0,0,0,0,0,0.321,4.005,9.459,0.057,0.111,-0.015,14.164,0.163,19.613,-4.038,0.848,4.666,angry
1.06,2643,2413,3725,3005,2871,503,3321,3699,0,0,0,73,0,0,0,41,0.029,3.745,9.653,0.102,0.039,0.009,3.824,-9.742,19.613,-0.796,1.139,3.222,angry
1.07,2762,2637,2755,3156,3506,144,123,3503,0,1,0,0,0,0,0,0,0.378,3.759,9.141,0.135,0.014,-0.002,12.222,4.034,12.368,1.778,0.793,1.516,angry
1.08,2853,2726,3843,3262,2960,0,2823,3195,0,0,0,0,0,0,0,0,0.362,3.728,9.433,0.08,0.108,-0.017,7.482,4.381,10.772,3.112,-0.236,0.339,angry
1.09,2899,2795,3864,3312,2871,0,2559,2930,0,0,0,0,0,0,0,0,0.381,3.773,9.658,0.123,0.083,0.001,6.931,3.723,9.017,3.607,-0.832,-0.205,angry
1.1,2954,2864,3886,3347,2754,0,2194,2547,0,0,0,0,0,0,0,0,0.081,3.721,9.359,0.126,0.114,-0.004,5.938,2.286,8.203,3.953,-1.112,-0.662,angry
1.11,2982,2918,3895,3376,2601,0,1774,1990,0,0,0,0,0,0,0,0,-0.038,3.603,9.345,0.141,0.132,-0.011,4.549,0.512,9.043,4.371,-1.333,-1.028,angry
1.12,3009,2957,3918,3419,2137,0,1200,771,0,0,0,0,0,0,0,0,0.06,3.68,9.21,0.152,0.122,-0.014,3.608,-0.905,9.67,4.835,-1.455,-1.3,angry
1.13,3024,2981,3937,3430,1984,0,866,128,0,0,0,0,0,0,0,0,-0.026,3.855,9.297,0.145,0.121,-0.016,2.27,-2.409,10.858,5.216,-1.534,-1.456,angry
1.14,3039,2980,3949,3467,1815,0,669,0,0,0,0,0,0,0,0,0,0.05,3.689,9.234,0.173,0.101,0.001,0.517,-4.269,12.469,5.712,-1.832,-1.588,angry
1.15,3071,2992,3957,3493,1827,0,528,0,0,0,0,1,0,0,0,0,-0.019,3.677,9.117,0.222,0.112,0.004,-0.067,-5.114,13.566,5.833,-1.981,-1.575,angry
1.16,3100,3019,3978,3533,1974,0,653,0,0,0,0,0,0,0,0,0,-0.026,3.809,9.337,0.201,0.161,-0.009,-0.237,-6.177,14.997,5.896,-2.106,-1.52,angry
1.17,3137,3022,3996,3573,1930,0,439,0,0,0,0,0,0,0,0,0,-0.175,3.654,9.167,0.221,0.149,-0.021,0.362,-6.859,17.178,5.824,-2.3,-1.518,angry
1.18,3210,3010,4017,3629,1984,0,469,0,0,0,0,0,0,0,0,0,0.012,3.531,8.914,0.246,0.124,-0.016,2.167,-9.419,19.613,5.623,-2.478,-1.699,angry
1.19,3286,3069,4032,3674,2176,0,511,0,0,0,0,0,11,0,0,0,0.022,3.498,8.48,0.344,0.025,0.017,2.533,-14.736,19.613,5.394,-2.648,-2.21,angry
1.2,3372,3100,4049,3713,2141,0,645,0,0,18,107,17,0,7,0,0,-0.055,3.632,8.724,0.316,0.01,0.02,0.804,-19.613,19.613,5.33,-2.664,-2.768,angry
1.21,3532,3224,4080,3782,1822,0,619,0,0,0,0,0,0,0,0,0,-0.443,2.942,9.175,0.403,0.082,0.149,-4.116,-19.613,6.675,4.301,-0.116,-2.738,angry
1.22,3651,3271,4095,3822,1569,0,607,0,0,0,0,0,0,0,0,0,0.405,3.491,9.22,0.612,0.117,0.22,-8.15,-19.613,-5.734,3.201,0.548,-1.592,angry
1.23,3759,3385,4095,3849,1376,0,749,0,0,0,0,0,0,0,0,0,-0.098,3.28,9.29,0.871,0.048,0.343,-12.084,-19.613,-7.357,0.763,-1.122,-0.925,angry
1.24,3891,3886,3895,3885,0,0,0,0,0,0,0,0,0,3,0,0,0.168,3.596,9.177,1.317,-0.068,0.568,-5.203,-19.613,-11.684,-1.556,-1.487,-1.449,angry
1.25,3940,3850,4095,3888,0,0,0,0,0,0,0,0,0,0,0,0,0.333,2.629,9.151,1.768,0.053,0.734,-4.494,-19.613,-12.854,-3.269,0.647,-1.596,angry
1.26,3987,3177,4095,3884,534,0,695,0,0,0,0,0,0,0,9,607,1.654,2.784,9.799,2.51,-0.003,0.889,-4.501,5.284,-6.112,-3.348,1.434,0.154,angry
1.27,4016,2941,4095,3849,320,0,598,0,0,0,0,0,0,0,139,2185,1.329,2.825,10.645,3.56,0.428,1.131,-10.235,6.632,19.613,-4.516,1.924,2.275,angry
1.28,4035,2643,4055,3703,0,0,0,0,0,0,0,0,0,0,1704,3671,1.477,4.922,3.203,5.392,1.808,1.115,0.165,-12.38,10.063,-4.282,0.041,1.498,angry
1.29,3982,2265,3928,2999,0,0,0,0,13,3,69,5,5,7,2680,3775,0.287,9.328,3.414,7.203,1.947,0.49,-8.607,-19.613,19.613,-0.653,5.058,1.923,angry
1.3,3370,281,2657,1403,0,0,0,0,0,3811,97,0,173,25,23,3859,-3.802,4.841,19.613,8.731,-3.054,-4.325,1.377,-11.013,14.897,0.408,1.212,0.46,angry
1.31,1168,0,28,0,0,0,0,0,0,669,153,27,923,0,3463,3887,2.911,16.032,19.613,8.731,-1.289,-4.517,1.863,-3.443,11.061,0.007,0.5,0.194,angry
1.32,0,0,0,0,0,0,0,0,2,1163,2454,427,1689,4,3579,4023,15.768,8.562,19.613,4.539,0.511,-5.599,0.972,-3.517,10.81,-0.066,0.373,0.185,angry
1.33,0,0,0,0,0,0,0,0,0,1301,2587,1159,2323,3,3693,3919,5.128,15.759,19.613,1.519,0.596,-2.729,1.128,-2.507,9.749,-0.001,0.259,0.133,angry
1.34,0,0,0,0,0,0,0,0,4,1468,2797,1671,2709,3,3764,3903,13.891,0.816,19.613,-0.411,0.358,-1.773,1.219,-2.722,10.096,-0.051,0.144,0.117,angry
1.35,0,0,0,0,0,0,0,0,2,1818,2945,2235,3067,3,3851,3837,6.594,-4.14,10.805,-1.568,0.895,-1.082,0.642,-2.449,10.017,-0.051,0.113,0.094,angry
1.36,0,0,0,0,0,0,0,0,2,1995,3017,2431,3309,1,3785,3603,5.262,-3.505,7.367,-1.867,-0.694,-0.313,0.893,-2.48,9.862,-0.098,0.059,0.077,angry
1.37,0,0,0,0,0,0,0,0,22,2153,3107,2599,3291,8,3677,3289,6.158,-2.2,7.539,-2.182,-0.97,0.081,0.876,-2.579,9.661,-0.096,0.078,0.058,angry
1.38,0,0,0,0,0,0,0,0,28,2143,3048,2729,3409,33,3511,2920,5.739,-1.07,8.016,-2.658,-0.938,0.464,0.826,-2.557,9.74,-0.091,0.075,0.048,angry
1.39,0,0,0,0,0,0,0,0,63,2155,3058,2822,3432,20,3166,2695,3.826,0.733,8.78,-3.642,-0.946,1.03,0.709,-2.433,9.852,-0.103,0.064,0.048,angry
1.4,0,0,0,0,0,0,0,0,72,2254,3068,2797,3685,0,3087,2395,2.356,1.343,8.332,-4.179,-1.028,1.24,0.673,-2.456,9.828,-0.131,0.072,0.062,angry
1.41,0,0,0,0,0,0,0,0,53,2267,3086,2847,3455,17,2987,2149,1.123,1.381,7.403,-4.535,-1.044,1.304,0.663,-2.507,9.792,-0.133,0.076,0.065,angry
1.42,0,0,0,0,0,0,0,0,105,2321,3089,2871,3461,27,2887,1927,-0.395,1.992,7.575,-4.755,-1.313,1.294,0.67,-2.535,9.692,-0.164,0.06,0.045,angry
1.43,0,0,0,0,0,0,0,0,377,2468,3094,2899,3463,46,2579,1288,-1.851,3.639,9.893,-4.878,-1.93,1.216,0.788,-2.761,9.555,-0.159,0.061,0.02,angry
1.44,0,0,0,0,0,0,0,0,841,2631,3104,3051,3483,67,2285,829,-2.586,5.914,12.491,-5.251,-2.164,0.975,0.718,-2.768,9.78,-0.141,0.072,0.034,angry
1.45,0,0,0,0,0,0,0,0,1070,2639,3165,3145,3483,46,1996,574,-2.751,8.492,15.993,-5.476,-2.644,0.775,0.634,-2.717,9.728,-0.131,0.046,0.042,angry
1.46,0,0,0,0,0,0,0,0,1609,2744,3140,3299,3449,39,1892,157,1.583,13.51,19.613,-5.35,-3.131,1.018,0.706,-2.643,9.603,-0.007,-0.004,0.097,angry
1.47,0,0,0,0,0,0,0,0,2011,2729,3176,3547,3129,24,1206,85,-0.505,19.613,19.613,-5.535,-2.264,2.564,0.682,-2.816,9.606,-0.064,-0.041,0.103,angry
1.48,0,0,0,0,0,0,0,0,2265,2869,3181,3721,3064,27,365,64,-8.325,19.613,8.253,-4.381,-0.944,2.851,0.515,-2.595,9.876,-0.152,-0.043,0.101,angry
1.49,0,0,0,0,0,0,0,0,2655,2827,3201,3769,2715,9,251,17,-8.085,19.613,-9.919,-2.002,0.898,3.248,1.032,-2.94,9.476,-0.431,0.119,-0.071,angry
1.5,0,0,0,0,225,0,0,260,2967,2981,3242,3882,1597,16,116,10,-19.613,19.613,-19.613,0.986,0.287,1.723,0.512,-2.626,9.72,-0.593,0.018,-0.205,angry
1.51,0,0,0,0,0,0,0,3429,3127,3015,3263,3894,997,17,73,12,-16.333,-3.347,5.229,5.845,2.786,-2.239,0.728,-1.853,9.759,-0.858,-0.016,-0.285,angry
1.52,0,0,0,0,0,0,1535,3886,3421,2985,3311,3799,212,21,31,30,0.192,12.644,11.37,4.212,0.006,-1.009,2.243,-1.657,10.252,-2.036,-0.938,-0.505,angry
1.53,0,0,0,0,557,0,2638,3911,3183,1926,3391,3692,43,21,18,20,-19.613,19.613,19.613,3.286,2.884,-2.27,1.585,-1.401,9.629,-5.88,0.006,-0.81,angry
1.54,1302,468,47,0,1138,0,3018,3835,2652,743,3539,3503,39,9,9,11,-1.441,9.558,19.206,0.788,0.787,-0.573,2.282,-7.673,7.724,-8.731,0.801,0.892,angry
1.55,1700,1669,2762,1006,2119,0,3307,3888,973,0,1832,654,0,0,0,0,0.33,2.854,9.965,-0.074,0.347,-0.073,4.209,-11.432,19.613,-8.731,-1.5,5.045,angry
1.56,1856,2151,3278,2150,2642,0,3440,3893,0,0,0,0,0,0,0,0,0.28,3.385,9.776,0.171,0.129,-0.005,12.871,-8.006,19.613,-5.913,0.044,4.534,angry
1.57,2384,2517,3491,2527,3861,111,99,3856,0,0,0,0,0,16,0,0,0.575,4.053,9.625,0.058,0.102,0.01,-2.081,-19.613,19.613,-1.184,1.083,4.459,angry
1.58,2317,2544,3625,2756,3110,127,3504,3792,0,0,0,0,0,11,0,0,0.007,3.654,9.845,0.036,0.067,0.008,16.407,1.144,11.696,1.58,0.842,2.549,angry
1.59,2397,2878,3088,2875,3622,0,0,3623,0,0,0,0,0,0,0,0,0.273,3.402,9.325,0.122,0.027,0.006,9.943,3.931,8.301,2.318,0.276,0.506,angry
1.6,2640,2924,3747,2923,3498,0,0,3497,0,55,0,0,0,117,0,0,0.579,3.819,9.725,0.073,0.107,-0.022,8.88,3.697,7.97,2.665,-0.606,-0.452,angry
1.61,2471,2835,3769,2974,3208,0,3093,3343,0,0,0,0,0,0,0,5,0.359,3.666,9.335,0.082,0.108,-0.023,7.863,2.272,7.647,3.063,-1.111,-1.236,angry
1.62,2492,2899,3783,2995,3162,0,2907,3138,0,0,0,0,0,0,0,8,0.283,3.587,9.316,0.099,0.089,-0.022,5.772,1.276,8.531,3.499,-1.195,-1.723,angry
1.63,2510,2955,3806,3034,3099,0,2677,2865,0,0,0,0,0,0,0,0,0.101,3.615,9.436,0.116,0.092,-0.033,3.63,-0.251,9.957,4.055,-1.266,-1.948,angry
1.64,2544,3009,3827,3088,2912,0,2173,2113,0,0,0,0,0,0,2,0,0.053,3.603,9.309,0.137,0.1,-0.043,2.093,-1.539,10.515,4.618,-1.304,-2.034,angry
1.65,2537,3035,3853,3130,2658,0,1643,891,0,13,0,0,0,0,0,0,0.141,3.555,9.172,0.149,0.107,-0.043,-0.304,-2.758,10.204,5.274,-1.527,-1.892,angry
1.66,2607,3088,3887,3184,2640,0,1482,78,0,0,0,0,0,0,0,0,-0.038,3.527,9.062,0.167,0.127,0.002,-1.29,-4.355,12.713,5.424,-2.006,-1.656,angry
1.67,2778,3133,3917,3264,2714,0,1357,0,0,0,0,0,0,0,0,0,0.002,4.164,9.562,0.16,0.2,0.02,-1.188,-5.756,15.548,5.636,-2.109,-1.529,angry
1.68,2864,3123,3952,3329,2778,0,1261,0,0,0,0,0,0,0,0,0,0.002,3.725,9.117,0.157,0.208,-0.004,-1.006,-6.706,18.282,5.889,-2.127,-1.436,angry
1.69,2938,3184,3953,3398,2859,0,1200,0,0,0,153,0,0,0,0,0,-0.172,3.577,9.428,0.193,0.179,-0.008,-0.378,-7.997,19.613,5.933,-2.201,-1.388,angry
1.7,3152,3281,3995,3529,2903,0,1083,0,0,39,0,0,0,0,0,0,-0.057,3.819,8.923,0.25,0.115,0.001,0.17,-19.156,19.613,5.786,-2.059,-1.632,angry
1.71,3359,3405,4039,3642,2801,0,704,0,0,0,5,0,0,0,0,0,-0.079,3.625,9.151,0.349,0.085,0.063,-2.102,-19.613,12.953,4.665,-0.783,-1.72,angry
1.72,3481,3495,4046,3687,2538,0,578,0,0,0,5,0,0,0,40,0,0.263,3.826,9.685,0.442,0.064,0.117,-5.6,-19.613,0.848,3.506,-0.6,-1.698,angry
1.73,3625,3600,4081,3734,2277,0,581,0,0,0,0,0,0,0,0,0,-0.151,3.153,10.005,0.79,0.203,0.278,-9.919,-19.613,-5.277,2.073,-0.982,-1.727,angry
1.74,3797,3792,3795,3789,0,0,0,0,0,0,0,0,0,0,0,0,0.048,4.185,9.761,1.1,0.089,0.434,-8.748,-19.613,-4.379,0.614,-0.784,-1.725,angry
1.75,3891,3809,4095,3814,0,0,0,0,0,29,0,0,0,0,0,0,0.204,3.553,9.187,1.409,0.006,0.563,-12.605,-19.613,-6.065,-1.872,-0.108,-1.651,angry
1.76,3939,3696,4095,3815,959,0,749,0,0,0,0,0,0,0,0,0,0.079,2.61,9.208,1.874,-0.234,0.707,-13.721,-19.613,-14.82,-3.218,0.751,-1.139,angry
1.77,4005,3328,4095,3715,560,0,660,0,0,0,0,0,0,0,43,2197,2.533,3.256,10.695,3.487,0.112,1.061,-15.323,4.654,15.802,-6.39,-1.488,0.433,angry
1.78,4005,2713,4050,3328,392,0,240,0,19,3612,0,0,26,7,6,3629,3.57,8.844,7.487,5.276,1.538,0.964,3.153,-14.176,19.613,-3.661,0.451,1.294,angry
1.79,3857,2021,3601,2384,0,0,0,0,3,3754,0,0,18,0,1803,3708,-2.344,-0.675,19.613,8.242,-1.466,-0.67,-7.046,-19.613,19.613,-2.793,3.789,2.163,angry
1.8,2460,54,835,0,0,0,0,0,20,3845,110,0,413,170,0,3839,-0.419,5.777,19.613,8.731,-2.727,-4.843,-0.91,-6.687,18.548,-0.102,1.494,0.467,angry
1.81,0,0,0,0,0,0,0,0,0,525,1591,47,1204,33,3503,3897,4.216,10.226,19.613,6.845,-0.75,-3.765,0.285,-2.179,10.288,-0.091,0.553,0.232,angry
1.82,0,0,0,0,0,0,0,0,11,937,2439,588,1785,12,3631,3955,0.043,19.613,19.613,1.408,0.497,-3.818,1.362,-3.115,10.546,-0.044,0.379,0.193,angry
1.83,0,0,0,0,0,0,0,0,0,1117,2408,1434,2388,10,3724,3931,13.209,1.12,19.613,0.16,0.08,-2.233,1.034,-2.689,10.226,-0.058,0.271,0.173,angry
1.84,0,0,0,0,0,0,0,0,1,1253,2802,1882,2717,2,3801,3864,8.842,-1.185,13.063,-1.695,1.215,-2,1.015,-2.495,9.993,-0.085,0.248,0.125,angry
1.85,0,0,0,0,0,0,0,0,2,1363,2886,2193,2877,2,3805,3917,6.175,-1.097,7.98,-2.01,0.741,-1.591,0.625,-2.471,10.015,-0.093,0.152,0.124,angry
1.86,0,0,0,0,0,0,0,0,5,1398,2894,2382,2997,3,3862,3803,5.969,-2.303,5.981,-2.196,0.209,-1.233,0.503,-2.6,9.914,-0.076,0.066,0.099,angry
1.87,0,0,0,0,0,0,0,0,2,1563,2971,2572,3089,5,3850,3816,7.163,-1.805,5.219,-2.32,-0.211,-0.721,0.778,-2.545,9.972,-0.051,0.092,0.063,angry
1.88,0,0,0,0,0,0,0,0,0,1694,2981,2701,3157,2,3862,3735,8.035,-0.498,6.206,-2.61,-0.232,-0.17,0.936,-2.421,9.84,-0.081,0.067,0.056,angry
1.89,0,0,0,0,0,0,0,0,29,1791,2991,2757,3241,5,3739,3601,7.336,0.603,7.69,-3.084,-0.278,0.395,0.927,-2.552,9.723,-0.092,0.087,0.056,angry
1.9,0,0,0,0,0,0,0,0,5,1847,3037,2875,3223,3,3643,3419,6,1.47,7.91,-3.68,-0.393,0.882,0.711,-2.31,9.878,-0.103,0.099,0.063,angry
1.91,0,0,0,0,0,0,0,0,28,1877,3040,2904,3257,29,3363,3197,4.154,1.743,6.895,-4.108,-0.603,1.209,0.699,-2.567,9.91,-0.068,0.095,0.058,angry
1.92,0,0,0,0,0,0,0,0,40,1917,3022,2966,3304,13,3149,2981,2.466,2.215,6.563,-4.367,-0.867,1.337,0.673,-2.543,9.634,-0.066,0.085,0.055,angry
1.93,0,0,0,0,0,0,0,0,63,1991,3053,2987,3271,21,3035,2680,1.049,3.179,7.666,-4.555,-1.258,1.366,0.646,-2.456,9.797,-0.065,0.078,0.055,angry
1.94,0,0,0,0,0,0,0,0,99,2028,3061,2965,3288,26,2925,2413,0.484,4.788,8.938,-4.772,-1.574,1.283,0.613,-2.689,9.661,-0.042,0.055,0.057,angry
1.95,0,0,0,0,0,0,0,0,89,2088,3063,3083,3271,23,2837,2039,-0.314,5.025,8.973,-4.956,-1.846,1.152,0.759,-2.672,9.586,-0.08,0.063,0.044,angry
1.96,0,0,0,0,0,0,0,0,99,2135,3078,3157,3272,25,2705,1766,-1.496,6.689,11.473,-4.999,-2.415,0.927,0.723,-2.516,9.73,-0.068,0.086,0.034,angry
1.97,0,0,0,0,0,0,0,0,413,2266,3084,3263,3356,51,2517,1357,-0.421,8.775,15.349,-5.085,-3.102,0.92,0.613,-2.428,9.728,-0.07,0.058,0.033,angry
1.98,0,0,0,0,0,0,0,0,629,2363,3091,3257,3365,44,2379,1183,4.58,15.78,19.613,-4.954,-3.326,1.359,0.421,-2.523,9.869,-0.106,0.063,0.026,angry
1.99,0,0,0,0,0,0,0,0,1005,2363,3094,3588,3475,49,2471,917,-0.893,19.613,15.728,-4.883,-2.346,3.131,0.931,-2.715,9.182,0.038,0.003,0.04,angry
2,0,0,0,0,0,0,0,0,1287,2472,3109,3643,3577,45,2597,553,-7.997,19.613,5.626,-3.43,-1.216,3.048,0.62,-2.677,9.785,-0.057,0.027,0.029,angry
2.01,0,0,0,0,0,0,0,0,1466,2538,3135,3720,3612,47,2399,362,-7.072,19.613,-5.449,-1.908,-0.172,2.859,0.496,-2.368,9.888,-0.07,0.075,0.018,angry
2.02,0,0,0,0,0,0,0,0,1869,2662,3212,3853,3391,35,1375,69,-12.558,19.613,-19.613,0.845,-1.58,2.413,0.223,-2.715,9.713,-0.188,0.072,-0.004,angry
2.03,0,0,0,0,0,0,658,2315,2390,2742,3247,3900,2653,54,181,71,-7.324,-4.98,4.618,2.783,5.731,0.194,0.139,-0.594,9.768,-1.029,0.179,-0.351,angry
2.04,0,0,0,0,99,0,1379,3642,2483,2761,3396,3939,1817,31,133,41,-19.613,0.273,7.312,6.395,-2.105,-0.505,1.923,-3.124,9.278,-0.885,0.223,-0.365,angry
2.05,0,0,0,0,588,0,2707,3772,2760,2386,3311,3955,221,45,0,50,-17.09,19.613,19.613,2.708,5.328,-5.877,5.296,-0.22,10.53,-2.691,-1.651,-0.73,angry
2.06,1383,816,0,0,905,0,3110,3815,2474,731,3406,3796,59,13,38,33,0.158,3.642,8.631,0.886,2.536,-2.421,2.318,0.814,7.64,-7.083,0.924,0.33,angry
2.07,1655,1879,2462,71,2146,0,3373,3902,2019,3,3355,3278,2,1,77,2,6.196,8.978,9.108,0.186,0.436,-0.39,-1.247,7.551,19.613,-8.731,0.586,1.746,angry
2.08,1824,2307,3165,1447,2719,0,3504,3931,525,0,0,331,0,0,0,62,-0.453,3.57,9.653,0.09,0.257,-0.223,-5.696,2.509,19.613,-8.731,0.151,4.717,angry
2.09,2030,2439,3410,2175,2993,0,3566,3914,0,0,0,0,0,0,0,0,1.178,4.092,9.364,0.146,0.084,-0.102,5.253,6.108,19.324,-2.18,1.915,4.877,angry
2.1,2160,2559,3508,2432,3107,0,3563,3889,0,0,0,0,0,0,0,47,0.864,4.24,9.438,0.102,0.149,-0.08,7.671,-4.029,19.613,-0.22,-0.346,1.848,angry
2.11,2448,2688,3604,2627,3258,0,3476,3781,0,0,0,0,0,0,0,13,0.338,3.728,9.237,0.091,0.128,-0.055,11.758,1.358,15.289,0.916,0.609,2.323,angry
2.12,2630,2805,3692,2814,3265,0,3261,3611,0,0,0,0,0,0,0,0,0.481,3.934,9.519,0.079,0.151,-0.051,12.548,3.28,6.67,2.396,0.352,0.084,angry
2.13,2726,2886,3727,2896,3200,0,3071,3499,0,0,0,0,0,0,0,0,0.294,3.704,9.105,0.112,0.116,-0.027,9.833,4.19,4.882,2.666,0.023,-0.952,angry
2.14,2790,2912,3750,2990,3100,0,2877,3321,0,0,0,0,0,7,0,0,0.261,3.773,9.366,0.083,0.139,-0.032,6.879,3.34,4.872,2.75,-0.497,-1.779,angry
2.15,2829,2940,3772,3069,3011,0,2627,3107,0,0,0,0,0,0,0,0,0.347,3.946,9.438,0.082,0.129,-0.023,4.958,2.71,5.971,2.92,-0.944,-2.31,angry
2.16,2912,3129,2915,3127,2891,0,0,2892,0,0,0,0,0,0,0,0,0.247,3.783,9.28,0.08,0.123,-0.012,3.575,1.322,7.719,3.397,-1.023,-2.565,angry
2.17,2987,3179,3808,3183,2687,0,0,2686,0,0,0,0,0,0,0,37,0.256,3.759,9.301,0.083,0.136,-0.012,1.889,0.204,8.358,3.925,-0.941,-2.658,angry
2.18,3059,3023,3827,3223,2531,0,1668,2429,0,0,0,0,0,0,0,0,0.17,3.74,9.225,0.093,0.149,-0.011,-0.479,-0.412,8.964,4.378,-0.883,-2.601,angry
2.19,3145,3043,3863,3284,2443,0,1488,1910,0,0,0,0,0,0,0,0,0.098,3.749,9.191,0.146,0.128,0.004,-4.477,-0.994,9.969,4.872,-1.091,-1.867,angry
2.2,3242,3335,3234,3330,1399,0,0,1392,0,0,0,0,0,0,0,0,0.122,3.728,9.249,0.139,0.131,0.013,-4.843,-1.918,11.305,5.07,-1.17,-1.229,angry
2.21,3280,3086,3891,3369,2254,0,1065,1003,0,0,0,0,0,0,0,0,0.093,3.582,9.172,0.161,0.145,0.01,-4.362,-3.033,13.743,5.235,-1.36,-0.639,angry
2.22,3381,3100,3922,3439,2320,0,848,0,0,0,0,0,0,0,0,51,0.081,3.754,9.225,0.17,0.152,-0.01,-1.76,-5.942,18.311,5.821,-1.78,0.058,angry
2.23,3423,3109,3940,3493,2333,0,698,0,0,0,0,0,0,0,0,0,0.024,3.745,9.213,0.184,0.162,0.006,0.579,-7.173,19.369,5.894,-1.902,0.152,angry
2.24,3490,3114,3964,3536,2339,0,646,0,0,0,23,5,0,0,3,0,-0.163,3.867,9.285,0.181,0.16,0.007,3.144,-11.277,19.613,5.753,-1.92,-0.072,angry
2.25,3565,3133,3991,3583,2396,0,691,0,0,0,0,0,0,0,0,0,0.101,3.996,9.27,0.211,0.13,0.006,4.717,-18.936,19.613,5.324,-1.898,-0.668,angry
2.26,3638,3181,4004,3646,2384,0,694,0,0,0,0,0,0,0,0,0,0.053,3.869,9.467,0.238,0.119,0.014,7.099,-19.613,18.785,4.716,-1.193,-1.17,angry
2.27,3709,3236,4031,3696,2311,0,619,0,0,0,0,0,0,0,0,7,0.132,3.318,8.796,0.351,0.062,0.057,6.007,-19.613,9.972,3.71,-0.5,-1.596,angry
2.28,3771,3332,4053,3746,2064,0,610,0,29,2,0,2,0,3,1,1,0.453,4.073,9.584,0.413,0.079,0.088,-0.445,-19.613,0.737,2.617,-0.526,-1.863,angry
2.29,3845,3414,4070,3789,1726,0,647,0,2,0,0,0,0,41,3,0,-0.156,3.788,9.455,0.705,0.144,0.24,-5.928,-19.613,-4.355,0.992,-1.378,-2.287,angry
2.3,3959,3520,4095,3856,1119,0,613,0,0,0,0,0,0,0,0,0,-0.117,3.484,8.756,0.906,0.077,0.37,-9.855,-19.613,-13.582,-3.537,-2.178,-2.241,angry
2.31,4027,3887,4035,3883,0,0,0,0,0,0,0,0,0,0,0,0,0.467,4.061,9.943,1.382,0.062,0.571,6.323,-19.613,-12.227,-3.889,0.008,-0.882,angry
2.32,4063,3888,4095,3888,0,0,0,0,0,0,0,0,0,0,159,354,1.092,2.84,10.882,2.093,0.009,0.749,3.311,7.7,19.613,-2.286,3.408,1.618,angry
2.33,4092,2978,4095,3874,199,0,0,0,0,0,0,0,0,0,143,1581,1.48,2.512,10.271,2.756,0.273,0.965,-9.622,5.547,12.917,-6.324,-1.642,-0.118,angry
2.34,4095,2622,4054,3778,0,0,16,0,52,0,0,0,0,0,1749,3099,1.621,5.423,8.464,4.107,1.133,0.728,4.329,-17.418,19.613,-3.761,-0.125,1.581,angry
2.35,4055,2117,3834,2890,0,0,0,0,0,0,120,0,327,0,2963,3631,1.961,7.35,7.69,7.14,1.757,0.278,3.565,-3.031,9.768,0.343,3.933,1.239,angry
2.36,3911,845,3209,2141,0,0,0,0,30,3691,0,0,109,18,51,3813,1.618,9.404,19.613,8.731,-0.694,-2.142,-3.007,-4.25,18.859,-0.214,2.472,0.758,angry
2.37,2384,0,64,0,0,0,0,0,0,947,0,0,837,0,3363,3711,-4.499,8.126,15.318,8.731,-2.25,-5.104,3.105,-4.808,11.416,0.28,1.367,0.347,angry
2.38,1191,0,0,0,0,0,0,0,1,1337,998,0,1455,0,3481,3810,-1.322,15.938,19.613,8.731,-1.867,-4.508,-3.417,0.062,13.204,-0.017,0.823,0.342,angry
2.39,0,0,0,0,0,0,0,0,2,1765,2398,264,2467,4,3723,3875,-4.978,17.715,19.613,1.338,-0.686,-4.224,0.888,-2.471,9.914,-0.014,0.327,0.223,angry
2.4,0,0,0,0,0,0,0,0,71,1945,2689,941,2759,0,3786,3903,8.942,1.039,19.613,-0.535,-0.689,-3.826,1.044,-2.655,9.96,-0.026,0.264,0.177,angry
2.41,0,0,0,0,0,0,0,0,1,1882,2835,1353,2887,3,3837,3887,10.305,3.51,12.452,-1.951,0.417,-3.404,1.075,-2.672,9.855,-0.036,0.195,0.14,angry
2.42,0,0,0,0,0,0,0,0,0,1925,2884,1681,2965,3,3865,3817,8.404,-0.165,7.171,-1.967,0.442,-2.613,0.764,-2.55,10.144,-0.019,0.228,0.091,angry
2.43,0,0,0,0,0,0,0,0,3,1977,2904,2013,3044,1,3871,3853,8.952,-1.607,5.555,-2.126,-0.134,-1.61,0.721,-2.583,9.907,-0.034,0.146,0.078,angry
2.44,0,0,0,0,0,0,0,0,0,2011,2930,2212,3095,9,3851,3815,9.651,-1.788,4.149,-2.074,-0.558,-0.475,0.785,-2.409,9.886,-0.042,0.136,0.06,angry
2.45,0,0,0,0,0,0,0,0,1,2031,2927,2301,3133,3,3809,3753,8.861,-1.271,5.203,-2.143,-0.698,0.609,0.927,-2.413,9.692,-0.053,0.13,0.046,angry
2.46,0,0,0,0,0,0,0,0,1,2029,2961,2343,3156,1,3739,3675,6.215,-0.357,7.317,-2.476,-0.831,1.446,0.85,-2.401,9.732,-0.051,0.13,0.043,angry
2.47,0,0,0,0,0,0,0,0,3,2087,2968,2446,3124,5,3674,3580,3.256,0.534,8.662,-2.992,-0.993,1.973,0.709,-2.488,9.823,-0.033,0.123,0.046,angry
2.48,0,0,0,0,0,0,0,0,7,2068,2971,2525,3113,37,3590,3484,0.632,1.633,9.273,-3.632,-1.026,2.071,0.654,-2.473,9.675,-0.022,0.116,0.058,angry
2.49,0,0,0,0,0,0,0,0,25,2083,2979,2591,3103,9,3485,3372,-2.193,2.291,9.658,-4.252,-1.105,1.869,0.646,-2.456,9.704,-0.029,0.108,0.064,angry
2.5,0,0,0,0,0,0,0,0,53,2109,2961,2597,3103,18,3353,3219,-3.666,2.658,9.177,-4.703,-1.323,1.492,0.687,-2.48,9.843,-0.044,0.11,0.068,angry
2.51,0,0,0,0,0,0,0,0,91,2123,3025,2647,3129,27,3031,2745,-3.831,3.098,7.681,-4.81,-1.968,0.942,0.63,-2.377,9.692,-0.083,0.114,0.08,angry
2.52,0,0,0,0,0,0,0,0,186,2093,3043,2705,3172,41,3035,2643,-3.22,4.623,10.422,-4.553,-2.561,0.735,0.575,-2.5,9.924,-0.086,0.1,0.082,angry
2.53,0,0,0,0,0,0,0,0,663,2143,3063,2765,3479,57,2967,2492,-3.967,5.787,13.597,-4.445,-3.039,0.602,0.455,-2.332,9.91,-0.1,0.093,0.055,angry
2.54,0,0,0,0,0,0,0,0,1359,2235,3109,3037,3384,52,2982,2341,-2.787,15.4,17.873,-3.796,-4.25,0.462,0.713,-2.701,9.515,0.009,0.058,0.066,angry
2.55,0,0,0,0,0,0,0,0,1597,2363,3081,3134,3479,36,2971,2217,-7.254,19.613,6.093,-2.6,-3.95,1.216,0.742,-2.837,9.515,0.005,0.006,0.054,angry
2.56,0,0,0,0,0,0,0,0,2183,2467,3135,3405,3477,44,2724,1994,-15.931,19.613,0.467,-1.567,-2.513,0.762,0.699,-2.622,9.862,-0.095,-0.036,0.052,angry
2.57,172,0,0,0,0,0,0,0,2611,2586,3137,3676,3190,47,1849,885,-12.596,19.613,-18.419,0.582,-1.549,0.206,0.694,-2.459,9.438,-0.274,-0.038,0.001,angry
2.58,0,0,0,0,0,0,575,976,2780,2639,3165,3720,2950,57,922,429,-11.777,19.613,-10.669,2.108,2.292,-0.727,0.888,-2.873,9.95,-0.291,0.017,0.027,angry
2.59,485,5,0,0,918,0,2543,3568,3089,2586,3206,3832,1129,36,58,247,-9.081,8.643,19.613,-2.625,1.407,0.008,2.301,-2.986,9.215,-1.308,0.07,-0.366,angry
2.6,1392,738,2737,1603,966,0,2637,3715,3311,2265,3204,3647,111,22,27,89,-3.749,2.387,5.885,0.81,0.144,0.149,3.314,-2.021,8.95,-2.684,-1.41,-0.406,angry
2.61,1773,1584,3301,2539,987,0,2591,3583,3156,1453,3258,3416,91,37,39,91,0.218,4.326,9.778,0.267,0.053,0.147,0.086,0.024,13.364,-5.132,-0.793,0.387,angry
2.62,2195,1945,3520,2853,1925,0,2924,3627,1973,19,2682,1045,17,17,18,21,-0.235,3.792,9.27,0.069,0.206,-0.002,5.993,-0.783,19.613,-8.731,0.398,1.797,angry
2.63,2402,2386,3689,3120,2338,756,3003,3574,0,0,12,0,0,0,0,0,0.378,3.721,9.476,0.072,0.11,-0.015,8.969,-7.542,19.613,-5.428,1.844,2.597,angry
2.64,2557,2559,3809,3255,2550,777,3019,3483,0,0,0,0,0,0,0,0,0.062,3.761,9.278,-0.011,0.114,0,3.677,8.246,19.613,-2.709,3.055,2.668,angry
2.65,2640,3363,2651,3351,3318,157,145,3314,0,0,0,0,0,0,0,3,0.041,3.543,9.428,0.022,0.054,0.003,6.546,7.448,14.815,-0.403,1.559,1.141,angry
2.66,2672,3415,2685,3410,3059,0,0,3059,0,0,0,0,3,0,0,0,0.129,3.601,9.512,0.043,0.06,-0.005,9.349,2.526,10.731,0.635,1.544,0.171,angry
2.67,2719,2944,3938,3457,2783,0,2677,2689,0,0,0,0,0,0,0,0,0.306,3.9,9.459,0.085,0.044,-0.007,8.787,2.528,9.313,1.307,1.607,-0.515,angry
2.68,2759,3008,3953,3481,2864,0,2511,1984,0,0,0,0,0,89,0,0,0.153,3.601,9.301,0.094,0.064,0.007,8.382,1.877,6.783,1.971,1.504,-1.334,angry
2.69,2783,3121,3980,3507,2880,0,2322,1409,0,0,0,0,0,0,0,1,0.153,3.689,9.263,0.126,0.063,0.026,7.688,1.252,5.243,2.398,1.483,-2.031,angry
2.7,2803,3178,3984,3527,2842,0,2071,438,0,0,0,0,0,0,0,0,0.074,3.766,9.292,0.155,0.051,0.056,6.795,0.093,5.133,2.741,1.453,-2.645,angry
2.71,2827,3250,4001,3537,2803,0,1769,0,0,0,0,0,0,0,0,0,0.177,3.797,9.306,0.152,0.043,0.06,6.433,-0.979,4.654,3.045,1.451,-3.158,angry
2.72,2832,3291,4003,3550,2779,0,1387,0,0,0,0,0,0,0,0,0,0.199,3.867,9.366,0.111,0.072,0.036,6.515,-1.846,3.922,3.225,1.458,-3.669,angry
2.73,2864,3333,4007,3562,2691,0,1133,0,0,0,0,0,0,0,0,0,0.237,3.95,9.4,0.126,0.071,0.01,6.689,-3.091,4.571,3.276,1.466,-4.206,angry
2.74,2898,3371,4016,3563,2531,0,829,0,0,0,0,0,0,0,0,0,0.158,3.833,9.335,0.108,0.063,-0.018,6.847,-4.52,5.643,3.41,1.628,-4.715,angry
2.75,2931,3423,4016,3563,2441,0,750,0,0,0,0,0,0,0,0,0,0.105,3.728,9.199,0.118,0.062,-0.035,6.292,-5.025,6.644,3.531,1.778,-5.196,angry
2.76,2944,3422,3984,3567,2255,0,634,0,0,0,0,0,41,0,0,0,0.105,3.565,9.141,0.152,0.039,-0.046,5.636,-5.681,6.457,3.525,1.843,-5.577,angry
2.77,2954,3445,4029,3564,2107,0,575,0,0,0,0,0,0,0,0,0,0.005,3.565,9.392,0.178,0.054,-0.058,4.846,-5.861,6.529,3.356,1.945,-5.737,angry
2.78,2946,3472,4027,3562,1858,0,479,0,0,0,0,0,0,0,0,0,0.283,3.304,9.397,0.237,0.039,-0.082,7.049,-6.67,7.281,3.178,2.296,-5.751,angry
2.79,2954,3517,4046,3527,1808,0,511,0,0,0,0,0,0,0,0,0,0.012,3.833,9.225,0.342,0.014,-0.041,12.431,-9.459,8.875,2.968,2.973,-6.138,angry
2.8,2983,3549,4045,3449,1861,0,543,0,0,0,0,0,0,0,0,0,0.127,3.807,9.352,0.402,0.005,-0.037,19.613,-15.007,8.14,2.752,4.186,-7.249,angry
2.81,3068,3580,4053,3363,1747,0,551,0,0,0,51,0,0,0,0,0,0.141,3.974,9.163,0.406,0.009,-0.049,19.613,-19.613,3.915,2.284,5.563,-8.731,angry
2.82,3157,3642,4048,3375,1614,0,535,0,0,0,0,0,0,0,0,0,-0.113,4.204,9.383,0.397,-0.031,-0.048,19.613,-19.613,-2.772,1.326,6.326,-8.731,angry
2.83,3307,3714,4066,3456,1662,0,628,0,0,0,0,171,0,0,4,0,0.086,4.147,8.849,0.295,-0.111,-0.104,19.613,7.333,-19.613,-8.731,5.783,-8.731,angry
2.84,3430,3740,4051,3481,1833,0,643,0,0,0,1876,1445,0,0,0,0,-0.95,3.661,9.452,0.072,-0.34,-0.585,10.13,-17.784,15.44,0.589,4.238,-8.731,angry
2.85,3378,3655,3991,3382,1987,0,683,0,73,175,3027,2464,267,0,221,4,-2.073,2.691,10.156,-0.369,-1.275,-2.163,-0.136,-14.973,8.454,3.214,1.345,-1.862,angry
2.86,3217,3472,3902,3235,2165,0,704,0,147,1963,2764,2229,2707,5,1647,75,-1.776,2.318,9.637,-0.431,-1.9,-4.275,-2.203,10.503,7.927,0.189,0,-0.317,angry
2.87,3119,3180,3817,3115,1931,0,586,0,197,1715,3050,2367,3228,3,3026,59,-0.201,4.475,8.353,0.112,-2.27,-5.687,2.514,-4.693,18.402,0.843,0.498,0.326,angry
2.88,2705,2618,3647,2613,1134,0,335,0,345,1512,3050,2675,3113,2004,3542,3005,3.455,6.51,8.751,0.424,-2.859,-6.585,0.539,-3.598,9.864,-0.107,0.284,0.021,angry
2.89,1717,1293,3197,1659,21,0,0,0,613,1495,3063,2775,3191,1408,3573,3198,1.168,7.487,8.102,0.419,-3.291,-7.739,0.215,-2.744,10.202,0.033,-0.074,0.118,angry
2.9,709,49,1744,252,0,0,0,0,637,3241,1604,2765,3193,3208,2765,3247,3.776,12.854,6.05,-0.163,-3.854,-8.44,1.319,-2.717,10.283,0.015,0.062,0.045,angry
2.91,0,0,0,0,0,0,0,0,213,1651,3012,2639,3171,371,3433,3356,6.139,12.366,6.491,0.224,-4.585,-7.095,0.972,-2.67,9.742,0.246,0.05,-0.028,angry
2.92,0,0,0,0,0,0,0,0,124,1269,2894,2251,3067,495,3471,3495,1.714,9.883,9.184,-0.21,-4.49,-4.836,0.488,-2.145,9.625,0.128,0.12,0.034,angry
2.93,0,0,0,0,0,0,0,0,86,1000,2853,2213,2953,151,3433,3571,-7.812,6.179,9.677,-0.713,-2.537,-4.485,0.529,-2.787,9.823,0.118,0.127,0.031,angry
2.94,0,0,0,0,0,0,0,0,3,688,2712,2059,2698,5,3333,3631,-10.412,4.925,7.42,-0.61,-2.017,-4.815,0.551,-2.406,9.783,0.076,0.111,0.039,angry
2.95,0,0,0,0,0,0,0,0,3,485,2592,1865,2553,4,3318,3660,-8.045,4.604,7.341,-0.427,-1.534,-5.001,0.589,-2.557,9.495,0.135,0.066,0,angry
2.96,0,0,0,0,0,0,0,0,4,377,2495,1831,2472,0,3355,3676,-5.911,4.535,7.544,-0.328,-1.237,-4.978,0.141,-2.507,9.883,0.103,0.066,-0.028,angry
2.97,0,0,0,0,0,0,0,0,3,456,2439,1673,2334,3,3295,3695,-3.883,4.106,7.034,-0.25,-1.109,-4.842,0.271,-2.727,9.826,0.155,0.035,-0.055,angry
2.98,0,0,0,0,0,0,0,0,5,391,2288,1351,2267,3,3341,3708,-2.373,3.833,6.754,-0.173,-1.007,-4.652,0.278,-2.507,9.905,0.148,0.01,-0.083,angry
2.99,0,0,0,0,0,0,0,0,3,536,2218,1289,2165,3,3379,3723,-1.068,3.539,7.125,-0.088,-0.881,-4.381,0.321,-2.241,9.886,0.148,0.016,-0.079,angry
3,0,0,0,0,0,0,0,0,2,478,2201,1230,2123,0,3401,3739,-0.587,3.912,8.844,-0.123,-0.773,-4.132,0.206,-2.016,9.943,0.099,0.03,-0.052,angry
3.01,0,0,0,0,0,0,0,0,0,475,2178,1112,2123,3,3421,3753,-0.421,4.125,9.538,-0.31,-0.611,-3.979,0.251,-2.195,9.859,0.057,0.047,-0.011,angry
3.02,0,0,0,0,0,0,0,0,43,472,2203,1211,2111,3,3430,3725,-0.917,4.092,9.151,-0.458,-0.497,-4.066,0.256,-2.162,9.855,0.06,0.034,0,angry
3.03,0,0,0,0,0,0,0,0,2,473,2195,1171,2037,2,3487,3785,-1.135,4.053,8.564,-0.522,-0.624,-4.324,0.263,-2.126,9.816,0.03,0.063,0.011,angry
3.04,0,0,0,0,0,0,0,0,0,422,2193,1445,1996,3,3475,3836,-0.141,4.264,8.035,-0.507,-0.842,-4.614,0.266,-2.136,9.929,-0.01,0.073,0.017,angry
3.05,0,0,0,0,0,0,0,0,0,522,2311,1611,1959,1,3493,3816,0.929,5.179,8.76,-0.55,-0.912,-4.898,0.136,-2.03,9.888,-0.034,0.071,0.025,angry
3.06,0,0,0,0,0,0,0,0,2,552,2265,1770,1904,5,3519,3851,2.224,5.353,8.43,-0.608,-1.052,-5.099,0.259,-2.167,9.819,-0.044,0.067,0.033,angry
3.07,0,0,0,0,0,0,0,0,3,585,2305,1977,1973,10,3531,3832,4.089,6.254,7.611,-0.559,-1.276,-5.076,0.22,-2.212,9.823,-0.047,0.07,0.039,angry
3.08,0,0,0,0,0,0,0,0,0,541,2400,2174,1939,3,3512,3829,6.215,6.596,6.572,-0.462,-1.345,-4.833,0.081,-2.224,9.943,-0.042,0.084,0.043,angry
3.09,0,0,0,0,0,0,0,0,3,547,2520,2283,1980,4,3512,3817,7.195,6.522,5.763,-0.301,-1.36,-4.378,0.242,-2.404,9.737,-0.05,0.069,0.027,angry
3.1,0,0,0,0,0,0,0,0,2,488,2651,2372,2036,3,3432,3785,7.633,6.084,5.404,-0.056,-1.473,-3.762,0.215,-2.267,9.725,-0.074,0.063,0.007,angry
3.11,0,0,0,0,0,0,0,0,2,529,2587,2443,2099,3,3429,3747,6.235,6.146,4.64,0.246,-1.512,-3.069,0.259,-2.349,9.991,-0.086,0.074,-0.019,angry
3.12,0,0,0,0,0,0,0,1150,3,613,2643,2613,2153,0,3399,3677,19.613,-3.522,-1.578,3.283,-4.238,0.248,0.417,-2.495,9.795,-0.102,0.092,-0.073,angry
3.13,66,0,0,0,9,0,1131,3030,3,629,2761,2773,2187,3,3145,3423,4.721,-6.495,19.613,-0.667,0.597,-0.035,0.441,-2.456,9.85,-0.172,0.124,-0.347,angry
3.14,330,0,0,0,688,0,2042,3410,1,604,2846,2853,1787,5,2679,3219,4.219,10.724,13.47,0.28,0.014,-0.356,0.357,-2.514,10.111,-0.338,0.176,-0.724,angry
3.15,566,415,484,0,913,0,2846,3613,59,61,2846,2767,439,1,1461,1176,-0.436,1.791,9.069,-0.122,0.042,-0.15,0.4,-1.092,10.125,-0.669,0.276,-1.522,angry
3.16,813,1053,1973,240,1701,248,3203,3770,99,0,2805,2751,0,0,0,88,0.256,3.077,9.239,0.065,0.071,-0.149,2.804,3.17,10.362,-2.637,0.008,-1.302,angry
3.17,1149,1285,2475,676,2081,625,3385,3875,107,0,2331,2621,18,0,0,115,0.201,2.847,9.256,0.209,0.09,-0.168,5.061,-0.699,12.163,-2.705,0.943,-1.492,angry
3.18,1410,1382,2821,1269,2320,565,3486,3937,0,26,0,1339,0,37,0,0,-0.038,3.45,9.445,0.18,0.14,-0.151,6.682,1.709,11.068,-2.335,5.413,-0.165,angry
3.19,1579,1666,3087,1616,2535,867,3525,3922,0,0,48,0,0,30,0,0,-0.091,3.479,9.483,0.12,0.106,-0.081,13.867,-4.154,19.613,-0.893,7.068,0.412,angry
3.2,2028,2000,3265,2000,3910,924,912,3911,0,0,0,0,0,0,8,0,0.163,3.531,9.515,0.122,0.06,-0.05,16.659,-10.906,15.433,-2.195,1.862,-3.868,angry
3.21,3383,2225,3381,2228,3856,680,679,3853,0,0,0,37,0,0,0,0,-0.101,3.426,8.507,0.191,-0.148,-0.012,12.39,-1.587,9.855,-1.47,2.508,-5.257,angry
3.22,3454,2414,3456,2416,3769,178,196,3769,0,0,0,3,0,0,0,0,0.225,3.486,9.304,0.15,0.012,-0.016,2.605,3.479,10.98,-0.776,0.51,-4.768,angry
3.23,2076,2512,3551,2503,3664,0,0,3664,0,0,0,0,0,0,0,0,0.091,3.577,9.388,0.161,0.046,-0.031,1.271,3.946,10.195,-0.314,0.295,-4.113,angry
3.24,2240,2559,3544,2588,3626,0,0,3631,0,0,0,0,0,0,0,0,0.134,3.709,9.366,0.164,0.049,-0.028,-0.493,4.717,9.752,0.152,-0.138,-3.456,angry
3.25,2197,2445,3577,2618,2934,0,2890,3523,22,0,0,0,0,0,0,0,0.134,3.5,9.187,0.174,0.061,-0.024,-0.476,4.693,10.168,0.716,-0.457,-2.839,angry
3.26,2294,2447,3636,2662,2928,0,2727,3347,0,0,0,0,116,0,0,0,-0.163,3.4,8.957,0.205,0,-0.016,0.156,3.462,10.412,2.031,-0.378,-1.707,angry
3.27,2377,2543,3678,2723,2933,0,2617,3133,0,0,0,0,0,0,0,0,0.014,3.646,9.098,0.14,0.066,-0.046,0.713,1.111,10.719,3.023,-0.542,-0.802,angry
3.28,2473,2511,3725,2814,2965,0,2544,2783,0,0,0,0,0,0,0,47,0.089,3.754,9.347,0.118,0.114,-0.048,1.891,0.038,9.828,3.382,-0.829,-0.54,angry
3.29,2559,2608,3773,3001,2995,0,2463,2313,0,0,0,0,0,0,0,0,0.045,3.663,9.414,0.118,0.116,-0.06,4.618,-1.367,8.985,3.565,-1.083,-0.462,angry
3.3,2737,2719,3830,3122,3014,0,2357,1793,0,0,0,0,0,0,0,0,0.06,3.821,9.392,0.117,0.1,-0.065,11.401,-4.992,10.669,3.274,-1.243,-1.784,angry
3.31,2838,2791,3888,3285,3045,0,2112,1040,0,0,0,0,0,0,0,9,0.06,3.924,9.414,0.124,0.115,-0.046,9.694,-7.551,9.768,2.724,-1.186,-3.216,angry
3.32,2999,2944,3952,3437,3015,0,1765,0,0,0,0,0,0,0,0,0,-0.23,3.543,9.665,0.256,-0.096,-0.025,0.175,-19.008,14.351,1.301,-1.783,-4.892,angry
3.33,3217,3575,3210,3582,0,0,0,0,0,0,0,3,0,13,0,0,-0.12,3.378,9.076,0.422,-0.067,0.023,-5.15,-19.613,16.721,1.919,-0.274,-4.77,angry
3.34,3328,3659,4020,3657,0,0,0,0,0,0,0,0,0,0,0,0,-0.132,3.206,8.894,0.558,-0.105,0.046,-13.041,-19.613,6.692,2.065,0.863,-3.629,angry
3.35,3456,3283,4043,3717,2135,0,886,0,0,0,0,0,10,0,0,0,0.024,3.646,9.155,0.661,-0.087,0.059,-18.189,-19.613,-3.692,1.726,0.872,-0.771,angry
3.36,3680,3355,4074,3793,1122,0,894,0,0,0,0,0,0,0,0,0,0.481,3.603,9.541,1.15,-0.054,0.319,-11.253,-19.613,-11.662,-0.648,0.03,1.487,angry
3.37,3875,3354,4091,3837,995,0,842,0,10,0,25,0,0,0,0,521,0.527,3.847,10.161,1.795,-0.09,0.654,6.8,-0.979,14.978,-2.053,3.287,1.262,angry
3.38,3950,2875,4089,3834,759,0,691,0,0,0,0,0,0,57,1311,3259,1.166,2.873,9.495,3.152,0.309,0.931,-11.746,4.729,7.654,-3.615,0.589,1.046,angry
3.39,3984,2492,4026,3673,198,0,0,0,0,0,0,0,0,0,1880,3513,-0.05,3.651,6.002,4.554,1.091,0.369,-10.403,-19.613,19.613,-5.063,3.023,2.972,angry
3.4,3927,1535,3681,2751,0,0,0,0,0,0,0,0,42,0,2715,3647,4.192,10.494,13.987,7.459,1.443,-0.459,1.994,-5.001,13.07,-0.054,0.168,0.146,angry
3.41,3209,58,1974,643,0,0,0,0,0,0,1748,421,683,0,3291,3788,-4.065,9.787,19.613,8.731,-2.071,-4.156,-0.014,-2.112,10.46,-0.074,0.232,0.182,angry
3.42,1262,0,0,0,0,0,0,0,1,44,2234,903,927,1,3439,3832,3.833,15.139,19.613,8.731,-1.906,-3.923,0.781,-2.705,9.991,0.064,0.155,0.112,angry
3.43,0,0,0,0,0,0,0,0,0,109,2505,1165,1463,2,3529,3879,14.198,8.677,19.613,3.779,-0.672,-4.978,0.795,-2.224,9.476,0.003,0.151,0.107,angry
3.44,0,0,0,0,0,0,0,0,1,635,2587,1461,1803,4,3644,3893,2.954,15.739,19.613,1.348,0.384,-2.435,0.792,-2.519,10.029,-0.044,0.11,0.107,angry
3.45,0,0,0,0,0,0,0,0,1,856,2684,1553,2101,0,3723,3917,12.203,1.47,19.613,-0.923,0.214,-1.733,0.599,-2.55,10.068,0.003,0.109,0.075,angry
3.46,0,0,0,0,0,0,0,0,2,909,2679,1659,2258,0,3767,3919,8.971,-0.807,9.488,-1.793,1.072,-1.133,0.453,-2.373,9.941,0.01,0.071,0.068,angry
3.47,0,0,0,0,0,0,0,0,2,1041,2741,1587,2393,3,3799,3923,4.554,-2.38,7.058,-1.643,0.384,-0.562,0.512,-2.284,10.575,0.002,0.105,0.038,angry
3.48,0,0,0,0,0,0,0,0,56,1141,2805,1655,2471,3,3807,3901,3.239,-3.091,6.73,-1.777,-0.704,-0.039,0.553,-2.397,9.965,0.015,0.098,0.026,angry
3.49,0,0,0,0,0,0,0,0,1,1188,2771,1641,2505,1,3797,3880,3.761,-2.519,6.742,-1.945,-1.221,0.376,0.587,-2.342,9.845,0.018,0.092,0.008,angry
3.5,0,0,0,0,0,0,0,0,0,1267,2812,1636,2519,3,3749,3849,3.146,-1.487,7.93,-2.332,-1.197,0.698,0.642,-2.365,9.938,0.014,0.105,0.022,angry
3.51,0,0,0,0,0,0,0,0,1,1270,2820,1543,2407,3,3703,3803,1.669,-1.171,8.978,-2.829,-1.051,0.933,0.591,-2.255,9.876,-0.008,0.09,0.007,angry
3.52,0,0,0,0,0,0,0,0,3,1187,2817,1543,2233,23,3659,3730,-0.412,0.007,10.151,-3.462,-1.088,1.073,0.445,-2.195,9.701,0.004,0.066,0.017,angry
3.53,0,0,0,0,0,0,0,0,39,1086,2812,1477,2217,4,3603,3731,-1.769,0.814,10.19,-4.002,-1.182,1.095,0.39,-2.162,9.797,-0.007,0.068,0.031,angry
3.54,0,0,0,0,0,0,0,0,2,1131,2840,1439,2172,47,3483,3627,-3.235,1.776,9.68,-4.801,-1.16,0.889,0.431,-2.102,9.807,-0.051,0.074,0.055,angry
3.55,0,0,0,0,0,0,0,0,5,1163,2840,1497,2191,4,3438,3544,-4.226,2.217,9.596,-4.957,-1.379,0.774,0.462,-2.27,9.622,-0.071,0.068,0.082,angry
3.56,0,0,0,0,0,0,0,0,37,1203,2904,1589,2360,1,3380,3497,-4.369,3.201,10.527,-5.039,-1.752,0.708,0.618,-2.375,9.704,-0.067,0.074,0.087,angry
3.57,0,0,0,0,0,0,0,0,2,1387,2925,2101,2683,2,3327,3221,-3.687,5.725,12.491,-5.237,-2.047,0.606,0.409,-2.516,9.859,-0.081,0.066,0.044,angry
3.58,0,0,0,0,0,0,0,0,5,1506,2961,2284,2924,0,3372,3048,-2.66,7.017,13.894,-5.365,-2.108,0.597,0.084,-1.439,9.893,-0.075,0.075,0.042,angry
3.59,0,0,0,0,0,0,0,0,27,1467,3017,2555,2982,0,3373,3022,-1.173,8.815,15.591,-5.368,-2.243,0.705,0.453,-2.435,9.862,-0.072,0.076,0.052,angry
3.6,0,0,0,0,0,0,0,0,59,1567,3058,2777,3143,17,3387,2955,1.635,18.359,18.852,-5.306,-2.403,1.463,0.014,-1.08,9.713,-0.076,0.067,0.045,angry
3.61,0,0,0,0,0,0,0,0,296,1771,3104,3079,3365,47,3320,2730,-1.733,19.613,10.18,-4.555,-1.42,2.408,0.627,-2.404,9.682,-0.088,0.008,0.032,angry
3.62,0,0,0,0,0,0,0,0,885,2006,3140,3333,3577,47,3208,2268,-8.145,19.613,0.596,-2.995,-0.215,2.278,0.541,-2.44,9.661,-0.103,-0.033,0.049,angry
3.63,0,0,0,0,0,0,0,0,1176,2073,3168,3475,3538,47,3051,1693,-6.388,19.613,-15.074,-0.517,0.443,2.387,0.565,-2.787,9.577,-0.14,-0.061,0.048,angry
3.64,0,0,0,0,0,0,0,1795,1919,2301,3178,3707,3480,51,1887,339,-9.85,19.613,-19.41,3.705,0.577,2.02,0.493,-2.428,9.833,-0.379,-0.023,-0.051,angry
3.65,0,0,0,0,0,0,1047,3626,2555,2456,3201,3847,2121,31,141,137,-19.613,-5.066,19.613,4.962,0.145,-1.173,0.249,-0.357,10.36,-1.539,0.167,-0.585,angry
3.66,0,0,0,0,0,0,1843,3805,2719,2474,3212,3871,1055,27,250,134,8.222,9.919,9.527,3.947,0.847,-1.484,3.323,-0.809,8.959,-1.551,-0.3,-0.537,angry
3.67,457,47,0,0,704,0,2641,3755,2938,1853,3247,3787,94,39,13,107,1.003,4.269,12.572,-0.779,1.649,-0.204,2.952,-1.283,11.246,-3.199,-1.986,-0.781,angry
3.68,1397,752,1350,139,1023,0,2878,3794,2509,267,3370,3484,0,0,0,3,0.613,10.02,13.417,0.513,-0.002,-0.046,2.444,-0.096,11.952,-6.914,1.14,0.284,angry
3.69,1686,1412,2662,1408,1654,0,3136,3857,2057,0,3212,2581,0,0,0,0,-0.326,4.808,9.546,-0.019,0.424,-0.131,5.459,2.428,19.613,-8.731,1.85,1.809,angry
3.7,1879,1713,3022,2069,2249,0,3309,3913,175,0,0,13,0,0,0,0,0.517,4.027,9.486,0.147,0.07,-0.026,1.824,-4.681,19.613,-8.731,1.657,4.248,angry
3.71,2058,1973,3248,2462,2509,432,3408,3917,0,0,0,0,0,0,0,0,0.39,3.572,9.345,0.078,0.061,-0.002,6.328,4.899,19.613,-2.16,3.203,4.785,angry
3.72,2231,2133,3403,2640,2667,448,3418,3874,0,0,0,0,0,39,0,0,0.024,3.558,9.318,0.074,0.098,-0.005,4.494,-5.801,19.613,-1.362,-0.33,1.778,angry
3.73,2326,2774,3504,2775,3806,267,249,3802,0,0,0,0,0,1,0,0,0.122,3.677,9.404,0.063,0.082,-0.001,10.862,3.869,12.821,1.183,-0.047,1.561,angry
3.74,2439,2411,3578,2869,2813,0,3255,3696,0,0,0,0,0,0,0,0,0.333,3.697,9.407,0.07,0.058,-0.006,8.703,3.723,7.863,2.318,-0.539,0.192,angry
3.75,2481,2501,3601,2897,2809,0,3163,3630,39,0,0,0,0,0,0,0,0.333,3.721,9.378,0.072,0.073,-0.02,7.484,3.127,6.9,2.608,-0.933,-0.452,angry
3.76,2544,2555,3641,2949,2760,0,2967,3509,0,0,17,0,0,0,0,0,0.201,3.666,9.311,0.072,0.091,-0.018,6.108,1.863,7.745,2.943,-1.315,-0.976,angry
3.77,2586,2608,3667,2992,2649,0,2743,3396,0,0,0,0,0,0,0,0,-0.089,3.649,9.282,0.096,0.088,-0.028,3.78,-1.089,9.95,4.025,-1.648,-1.616,angry
3.78,2608,2645,3696,3023,2625,0,2485,3266,0,0,0,0,0,21,0,0,0.093,3.67,9.27,0.082,0.08,-0.033,1.058,-2.825,11.052,4.86,-1.805,-1.758,angry
3.79,2631,2638,3725,3062,2667,0,2293,3087,0,0,0,0,0,0,0,0,0.034,3.658,9.261,0.079,0.084,-0.032,0.113,-3.85,12.388,5.138,-2.057,-1.736,angry
3.8,2659,2689,3781,3129,2640,0,2096,2887,0,0,30,0,0,18,0,0,-0.005,3.589,9.256,0.084,0.099,-0.031,-1.013,-5.65,13.812,5.367,-2.42,-1.708,angry
3.81,2698,3232,3807,3228,2675,0,0,2671,0,0,0,0,0,0,0,0,-0.017,3.9,9.345,0.077,0.143,-0.036,-0.333,-9.637,19.039,5.414,-2.683,-1.601,angry
3.82,2789,2649,3856,3320,2910,0,2025,2271,0,0,0,0,0,0,0,0,-0.323,3.309,8.969,0.152,0.104,-0.008,0.613,-13.922,19.613,5.64,-2.511,-1.838,angry
3.83,2928,3435,2930,3440,1723,0,0,1723,0,0,0,0,0,13,0,0,-0.237,3.29,8.679,0.128,0.137,0.004,-1.209,-19.613,18.761,5.406,-1.034,-2.553,angry
3.84,3094,2957,3973,3542,3167,0,1727,541,0,0,0,0,0,0,1,0,0.031,3.235,9.589,0.269,0.127,0.043,-9.622,-19.613,0.146,3.368,-0.209,-1.796,angry
3.85,3329,3173,4014,3655,2831,0,938,0,0,0,0,0,0,0,0,0,0.036,2.926,9.878,0.511,0.223,0.125,-12.704,-19.613,-3.706,2.152,-0.62,-0.796,angry
3.86,3451,3279,4048,3734,2481,0,647,0,0,0,0,0,0,0,0,0,-0.678,1.82,7.685,1.041,-0.275,0.346,-11.475,-19.613,-3.689,-0.066,-1.001,-0.839,angry
3.87,3726,3418,4083,3811,1276,0,656,0,0,0,0,0,0,0,0,0,1.111,4.049,8.698,1.425,-0.09,0.584,-13.731,-19.613,-14.487,-2.705,2.129,-0.43,angry
3.88,3888,3342,4095,3855,699,0,709,0,0,0,0,0,0,0,733,2449,1.841,2.061,10.848,2.395,0.111,0.972,-13.175,2.576,14.427,-6.052,-1.174,0.305,angry
3.89,3970,2686,4080,3796,122,0,495,0,0,0,0,0,0,0,1199,3287,-0.057,4.02,8.71,4.502,0.764,0.906,-0.728,-4.511,4.762,-5.433,0.384,1.492,angry
3.9,3952,2365,3931,3045,0,0,0,0,140,3743,40,0,0,231,0,3747,6.97,13.381,11.049,6.787,1.44,0.293,-2.82,-4.544,19.613,0.491,-0.224,-0.832,angry
3.91,3504,615,2960,1823,0,0,0,0,16,73,30,59,381,0,3175,3849,-5.636,13.24,19.613,8.731,-2.226,-2.053,-1.647,-4.64,13.137,-0.13,0.319,0.141,angry
3.92,1425,0,253,0,0,0,0,0,0,155,683,363,665,2,3359,3859,-1.494,19.613,18.234,8.731,-1.933,-4.034,1.867,-1.635,9.06,0.088,0.286,0.123,angry
3.93,0,0,0,0,0,0,0,0,1,752,2352,891,1298,2,3612,3951,17.617,11.016,19.613,2.031,1.061,-4.69,1.051,-2.148,9.792,0.076,0.152,0.06,angry
3.94,0,0,0,0,0,0,0,0,3,997,2423,1133,1609,5,3695,3973,12.237,10.709,19.613,0.035,0.398,-1.528,0.991,-2.38,9.67,0.001,0.082,0.09,angry
3.95,0,0,0,0,0,0,0,0,2,1163,2551,1501,1927,3,3637,3967,10.297,-1.93,13.446,-1.165,1.142,-1.373,0.797,-2.514,10.144,0.009,0.106,0.058,angry
3.96,0,0,0,0,0,0,0,0,0,1318,2664,1711,2260,2,3801,3938,4.298,-4.743,8.186,-1.704,0.525,-0.834,0.62,-2.377,9.898,0.019,0.047,0.024,angry
3.97,0,0,0,0,0,0,0,0,0,1350,2613,1785,2347,2,3803,3895,5.186,-2.399,7.987,-2.001,-0.481,-0.354,0.532,-2.248,9.864,0.035,0.083,0.019,angry
3.98,0,0,0,0,0,0,0,0,0,1399,2659,1839,2408,2,3757,3827,6.388,-1.939,7.386,-2.345,-0.853,0.095,0.778,-2.195,9.641,-0.006,0.096,0.03,angry
3.99,0,0,0,0,0,0,0,0,1,1432,2764,1850,2383,0,3705,3734,6.244,-1.075,6.898,-2.813,-0.771,0.53,0.785,-2.37,9.931,-0.033,0.108,0.041,angry
4,0,0,0,0,0,0,0,0,0,1433,2802,1915,2373,0,3637,3595,4.879,0.007,7.592,-3.292,-0.687,0.898,0.587,-2.176,9.9,-0.032,0.092,0.041,angry
4.01,0,0,0,0,0,0,0,0,25,1449,2766,2068,2367,4,3677,3427,3.287,1.252,8.119,-3.83,-0.806,1.126,0.438,-2.169,9.742,-0.051,0.086,0.059,angry
4.02,0,0,0,0,0,0,0,0,1,1489,2848,2139,2423,2,3487,3193,2.107,2.14,8.006,-4.377,-0.956,1.278,0.591,-2.116,9.799,-0.084,0.092,0.082,angry
4.03,0,0,0,0,0,0,0,0,0,1583,2902,2284,2523,2,3320,3065,0.967,1.954,6.673,-4.692,-1.135,1.288,0.512,-2.26,9.845,-0.117,0.103,0.093,angry
4.04,0,0,0,0,0,0,0,0,6,1564,2958,2488,2683,2,3114,3082,0.057,2.662,7.302,-4.765,-1.362,1.216,0.517,-2.433,9.804,-0.138,0.083,0.119,angry
4.05,0,0,0,0,0,0,0,0,19,1675,3002,2599,2777,6,3129,3007,-0.831,3.606,8.531,-4.782,-1.746,1.163,0.534,-2.61,9.96,-0.157,0.08,0.1,angry
4.06,0,0,0,0,0,0,0,0,26,1651,3045,2711,2891,7,3155,2974,-0.778,4.638,9.953,-4.826,-2.032,1.106,0.522,-2.476,9.998,-0.117,0.098,0.101,angry
4.07,0,0,0,0,0,0,0,0,37,1756,3053,2799,3018,9,3219,2955,-0.898,6.424,12.258,-4.948,-2.222,1.026,0.618,-2.48,9.867,-0.119,0.091,0.06,angry
4.08,0,0,0,0,0,0,0,0,82,1849,3063,2900,3128,19,3176,2873,0.943,9.323,16.431,-5.123,-2.677,1.132,0.536,-2.868,9.608,0.03,0.047,0.038,angry
4.09,0,0,0,0,0,0,0,0,153,1947,2858,2995,3231,39,3177,2873,4.513,13.06,19.613,-5.106,-2.726,1.507,0.555,-3.127,9.799,0.042,-0.01,-0.006,angry
4.1,0,0,0,0,0,0,0,0,669,2139,3091,3258,3411,60,3089,2464,1.528,19.613,17.53,-5.087,-1.645,2.922,0.579,-2.713,9.764,-0.039,-0.004,0.03,angry
4.11,0,0,0,0,0,0,0,0,1184,2159,3155,3493,3539,44,2931,1951,-5.59,19.613,9.419,-3.742,-0.755,3.021,0.728,-2.555,9.431,-0.057,-0.084,0.059,angry
4.12,0,0,0,0,0,0,0,0,1556,2282,3132,3592,3567,47,2781,1689,-6.172,19.613,-3.61,-3.25,0.242,2.526,0.522,-2.377,9.555,-0.197,-0.05,0.026,angry
4.13,0,0,0,0,0,0,0,0,1972,2387,3155,3758,3293,47,1835,586,-13.92,19.613,-17.837,0.454,0.482,0.859,0.934,-2.619,9.857,-0.266,-0.027,0.011,angry
4.14,0,0,0,0,0,0,365,2333,2489,2635,3186,3693,2535,46,377,247,1.434,19.613,-19.613,1.755,1.173,1.148,-0.316,0.443,10.197,-0.962,0.099,-0.316,angry
4.15,0,0,0,0,0,0,1315,3771,2658,2647,3199,3884,1634,24,93,112,-18.818,9.79,19.613,5.679,-0.633,-0.798,1.604,-3.177,9.026,-0.866,0.124,-0.287,angry
4.16,0,0,0,0,41,0,2369,3865,2926,2657,3388,3837,221,12,59,35,9.637,12.907,12.859,3.543,0.823,-1.09,3.965,-1.204,8.966,-2.121,-0.971,-0.432,angry
4.17,558,132,0,0,832,0,2951,3859,2467,1480,3332,3708,57,18,9,26,-8.784,-4.422,1.913,0.16,1.804,-0.711,-1.197,1.844,11.463,-6.067,-0.013,-0.064,angry
4.18,1261,1232,2192,192,1584,0,3157,3874,1812,747,3347,3032,125,39,0,0,-1.489,5.741,12.929,0.238,0.466,-0.205,1.006,-2.942,12.56,-8.731,-0.453,1.248,angry
4.19,1578,1762,2986,1518,2202,0,3354,3900,317,0,46,105,0,0,0,0,-0.481,3.28,9.787,0.139,0.232,-0.1,2.416,-8.064,19.613,-8.731,-0.829,2.929,angry
4.2,1751,2150,3328,2253,2640,400,3445,3893,0,0,0,0,0,0,0,0,0.093,3.821,9.445,0.159,0.005,0.019,9.917,-7.238,19.613,-6.551,2.003,3.462,angry
4.21,1964,2412,3499,2593,2944,710,3478,3856,0,0,0,0,0,0,0,0,0.172,3.754,9.519,0.074,0.086,-0.004,4.752,3.563,19.613,-0.977,3.748,4.244,angry
4.22,2141,2758,2129,2759,3760,466,439,3761,0,0,0,0,0,2,0,0,0.151,3.371,9.345,0.124,0.038,0,7.19,6.584,12.22,0.83,-0.691,1.992,angry
4.23,2309,2751,3706,2864,3170,98,3313,3579,0,77,0,1,0,0,0,0,0.407,3.658,9.517,0.126,0.079,-0.015,9.112,4.293,7.561,2.053,0.065,1.21,angry
4.24,2378,2800,3741,2915,3179,0,3185,3440,0,39,0,0,0,0,0,0,0.373,3.649,9.256,0.136,0.088,-0.011,8.586,2.061,9.246,2.659,0.043,0.555,angry
4.25,2474,2880,3774,2981,3149,0,3005,3246,0,0,0,0,0,0,0,0,0.256,3.673,9.436,0.151,0.101,-0.012,7.664,1.003,10.139,3.277,-0.279,-0.086,angry
4.26,2559,2974,3819,3071,3055,0,2551,2767,0,0,0,0,0,0,12,0,0.038,3.622,9.318,0.139,0.103,-0.024,7.027,-0.429,9.364,3.867,-0.677,-0.724,angry
4.27,2651,3041,3855,3149,2919,0,2091,1874,0,0,0,0,1,33,0,0,0.048,3.792,10.017,0.114,0.097,-0.023,5.691,-2.579,8.622,4.69,-0.986,-1.593,angry
4.28,2713,3088,3893,3203,2689,0,1643,1031,0,0,23,0,0,0,0,0,0.204,3.78,9.376,0.147,0.097,-0.018,3.591,-4.295,9.819,5.257,-1.158,-1.925,angry
4.29,2731,3164,3920,3266,2622,0,1377,125,0,0,0,0,0,0,0,13,0.031,3.73,9.096,0.156,0.101,-0.001,2.514,-5.167,10.434,5.365,-1.427,-1.941,angry
4.3,2795,3215,3952,3329,2718,0,1218,0,0,0,0,0,0,0,0,0,0.038,3.606,9.155,0.141,0.136,0.006,1.776,-7.36,13.573,5.457,-1.964,-1.756,angry
4.31,2823,3248,3959,3376,2763,0,1165,0,0,0,0,0,0,0,0,0,-0.031,3.766,9.395,0.134,0.141,0.002,1.918,-8.224,15.893,5.452,-2.183,-1.627,angry
4.32,2899,3278,3982,3417,2791,0,1182,0,0,0,0,0,0,27,0,0,0.16,3.948,9.596,0.148,0.142,-0.016,3.486,-10.594,18.16,5.413,-2.314,-1.556,angry
4.33,3041,3348,4011,3508,2821,0,1008,0,0,0,0,0,51,0,0,0,0.134,3.783,9.577,0.183,0.113,-0.019,5.574,-19.613,19.613,5.32,-2.269,-2.382,angry
4.34,3231,3451,4044,3583,2788,0,792,0,0,0,0,0,0,29,0,0,-0.299,3.342,8.835,0.248,0.055,0.019,3.06,-19.613,17.798,4.868,-1.747,-2.763,angry
4.35,3377,3517,4064,3646,2657,0,730,0,0,0,0,0,0,0,0,0,0.237,3.948,9.366,0.255,0.107,0.036,-2.993,-19.613,10.353,4.166,-1.306,-2.684,angry
4.36,3491,3583,4084,3681,2447,0,674,0,0,0,0,0,0,0,0,0,0.259,2.559,8.849,0.511,0.111,0.132,-8.423,-19.613,0.192,2.898,-1.638,-2.31,angry
4.37,3583,3658,4095,3710,2066,0,735,0,0,0,0,0,15,0,0,0,0.189,3.637,9,0.673,0.145,0.221,-10.405,-19.613,-2.677,1.614,-2.085,-1.518,angry
4.38,3751,3751,4095,3767,1315,0,782,0,0,0,0,0,0,0,0,0,0.601,3.689,9.203,1.127,-0.027,0.399,-4.149,-19.613,-10.621,-1.16,-1.031,-1.5,angry
4.39,3897,3776,4095,3767,680,0,784,0,0,0,0,0,0,0,0,31,1.049,2.753,9.634,1.815,-0.289,0.612,3.431,-8.655,17.279,-1.798,4.85,0.399,angry
4.4,3940,3723,4095,3755,857,0,700,0,0,0,0,5,0,0,63,1769,1.039,3.036,9.725,2.557,-0.395,0.833,-18.524,12.984,19.613,-4.646,1.476,0.594,angry
4.41,3969,3216,4085,3647,183,0,292,0,0,0,0,0,0,0,249,2727,2.885,3.16,10.214,4.789,0.824,0.81,-12.96,2.911,6.589,-6.002,-0.623,1.075,angry
4.42,3852,2416,3903,2492,0,0,0,0,0,0,0,0,11,0,2644,3752,0.237,9.234,17.329,7.208,-0.116,0.458,-10.539,-19.613,19.613,-1.283,4.944,2.049,angry
4.43,2853,1055,2649,221,0,0,0,0,0,63,0,0,530,0,3157,3915,-1.03,10.429,19.613,8.731,-2.855,-2.589,-0.666,-2.243,15.728,-0.055,1.2,0.345,angry
4.44,617,0,0,0,0,0,0,0,0,249,565,0,811,0,3469,3914,3.673,19.613,19.613,8.731,-2.563,-2.19,1.089,-3.318,10.64,-0.081,0.652,0.279,angry
4.45,0,0,0,0,0,0,0,0,5,869,2316,117,1375,1,3589,3979,9.701,0.069,19.613,3.437,-1.009,-4.56,0.421,-1.815,9.316,-0.098,0.471,0.234,angry
4.46,0,0,0,0,0,0,0,0,5,1117,2526,763,1976,8,3667,3980,0.675,12.074,19.613,1.182,0.191,-2.729,0.879,-2.883,10.104,0.025,0.348,0.132,angry
4.47,0,0,0,0,0,0,0,0,6,1223,2641,1245,2490,16,3785,3996,9.91,0.424,19.613,-0.662,0.236,-2.801,1.314,-2.325,10.233,-0.012,0.21,0.12,angry
4.48,0,0,0,0,0,0,0,0,3,1448,2869,1757,2899,3,3887,3976,6.752,-1.829,10.666,-2.015,0.778,-1.941,0.869,-2.471,10.197,-0.011,0.094,0.065,angry
4.49,0,0,0,0,0,0,0,0,2,1565,2920,2167,3067,1,3883,3861,6.062,-2.557,6.323,-2.776,0.334,-0.961,0.864,-2.258,9.804,0.019,0.052,0.021,angry
4.5,0,0,0,0,0,0,0,0,36,1663,2933,2232,3134,1,3835,3755,5.964,-2.136,4.875,-2.973,0.114,-0.393,1.056,-2.356,9.778,-0.021,0.054,0.03,angry
4.51,0,0,0,0,0,0,0,0,1,1722,2945,2375,3177,2,3751,3599,5.43,-0.745,5.816,-3.216,0.03,0.044,0.895,-2.404,9.531,-0.031,0.043,0.036,angry
4.52,0,0,0,0,0,0,0,0,1,1715,2973,2311,3192,2,3643,3450,5.071,0.869,7.247,-3.714,-0.003,0.361,0.73,-2.406,9.869,-0.039,0.053,0.047,angry
4.53,0,0,0,0,0,0,0,0,1,1801,2986,2415,3224,3,3414,3103,4.235,1.602,6.677,-4.17,-0.125,0.611,0.685,-2.411,9.804,-0.045,0.07,0.053,angry
4.54,0,0,0,0,0,0,0,0,0,1870,3009,2517,3242,2,3192,2953,3.615,2.224,6.354,-4.527,-0.278,0.796,0.611,-2.169,9.711,-0.05,0.088,0.066,angry
4.55,0,0,0,0,0,0,0,0,1,1939,3027,2588,3275,1,3163,2761,3.175,3.431,6.797,-4.76,-0.512,0.916,0.809,-2.028,9.929,-0.115,0.098,0.083,angry
4.56,0,0,0,0,0,0,0,0,0,2007,3048,2669,3309,1,3055,2577,2.854,4.264,7.106,-4.899,-0.815,1.051,0.852,-2.648,9.895,-0.081,0.073,0.098,angry
4.57,0,0,0,0,0,0,0,0,2,2152,3058,2834,3355,5,3020,2507,2.825,5.138,7.697,-5.002,-1.054,1.17,0.922,-2.713,9.613,-0.098,0.059,0.118,angry
4.58,0,0,0,0,0,0,0,0,29,2203,3081,2839,3404,4,3037,2392,2.248,5.818,8.162,-5.049,-1.22,1.226,0.769,-2.488,9.843,-0.132,0.076,0.113,angry
4.59,0,0,0,0,0,0,0,0,28,2239,3089,2984,3453,0,3037,2325,1.374,6.529,9.732,-5.024,-1.487,1.176,0.862,-2.631,9.622,-0.108,0.085,0.125,angry
4.6,0,0,0,0,0,0,0,0,108,2293,3089,3037,3515,40,3039,2295,1.068,7.695,12.158,-4.975,-1.914,1.11,0.656,-2.71,10.005,-0.096,0.061,0.098,angry
4.61,0,0,0,0,0,0,0,0,2,2403,3089,3101,3557,17,3001,2239,5.145,12.026,17.736,-4.983,-2.313,1.288,1.037,-2.782,9.311,-0.086,0.041,0.074,angry
4.62,0,0,0,0,0,0,0,0,651,2615,3104,3308,3623,48,2827,2065,7.733,19.613,14.846,-5.211,-1.657,2.317,0.974,-2.698,9.541,-0.121,0.04,0.054,angry
4.63,0,0,0,0,0,0,0,0,1063,2775,3109,3492,3663,51,2505,747,-3.694,19.613,2.966,-3.173,-1.668,3.041,0.831,-2.844,9.878,-0.178,-0.018,0.063,angry
4.64,0,0,0,0,0,0,0,0,1365,2831,3145,3611,3613,53,2131,393,-13.822,19.613,7.59,-1.499,-2.659,2.679,0.747,-2.516,9.625,-0.174,-0.007,0.042,angry
4.65,0,0,0,0,0,0,0,0,1803,2973,3165,3755,3257,44,935,213,-10.053,13.302,-9.1,0.401,-0.818,1.947,0.563,-2.267,9.589,-0.165,-0.045,0.074,angry
4.66,0,0,0,0,0,0,393,1183,2168,3087,3160,3803,2548,25,171,89,-8.806,19.613,-19.613,3.441,0.873,1.139,0.9,-3.79,8.964,-0.704,0.184,-0.186,angry
4.67,0,0,0,0,0,0,1523,3710,2358,3133,3109,3789,1899,15,264,29,-19.613,-2.547,19.613,4.474,2.307,-2.111,-0.024,-2.595,10.331,-0.647,0.162,-0.147,angry
4.68,0,0,0,0,390,0,2384,3840,2733,3179,3242,3506,357,10,61,0,19.613,10.391,15.871,3.422,0.351,-1.05,1.674,-0.376,10.113,-1.702,-0.289,-0.244,angry
4.69,1123,307,0,0,898,0,2849,3816,2464,2837,3319,3107,87,5,12,1,-11.349,-8.286,8.401,0.328,1.728,-0.681,2.246,-3.713,12.119,-5.64,-0.255,0.155,angry
4.7,1523,1477,2387,275,1595,0,3042,3814,1575,1827,3391,2265,171,4,5,3,-0.785,4.161,9.196,0.155,0.602,-0.306,6.421,-1.015,15.653,-8.675,-1.487,0.757,angry
4.71,1738,1859,3184,1837,2179,0,3233,3856,503,0,1548,47,0,0,0,0,0.211,3.694,9.567,0.071,0.282,-0.063,0.577,-3.297,19.613,-8.731,-3.041,2.403,angry
4.72,2085,2096,3402,2507,2651,345,3347,3860,28,0,0,0,0,0,0,0,0.4,3.778,9.21,0.079,0.11,-0.019,3.874,-12.016,19.613,-8.396,-2.36,3.228,angry
4.73,2245,2286,3504,2710,2898,592,3406,3843,0,0,0,0,0,0,0,1,0.156,3.821,9.471,0.06,0.087,-0.007,10.094,-3.737,19.613,-2.814,0.139,4.42,angry
4.74,2363,2843,3610,2851,3762,368,367,3760,0,0,0,0,0,0,0,0,0.117,3.256,9.146,0.104,0.06,0.007,7.544,8.578,19.613,1.197,-1.594,2.759,angry
4.75,2471,2908,3659,2919,3666,34,26,3659,0,0,0,0,0,3,0,0,0.484,3.694,9.495,0.131,0.058,-0.011,8.54,4.377,8.99,2.048,-0.76,2.597,angry
4.76,3696,2961,3696,2961,3582,0,0,3543,0,3,0,0,0,0,0,0,0.333,3.529,9.196,0.116,0.097,-0.012,8.552,5.32,9.922,2.391,-0.464,2.09,angry
4.77,2586,2717,3724,3037,3012,0,2966,3403,0,0,0,0,0,0,0,0,0.397,3.845,9.579,0.107,0.128,-0.019,9.586,2.547,10.111,3.01,-0.294,1.216,angry
4.78,2665,2802,3760,3104,2985,0,2754,3203,0,0,0,0,0,0,0,0,0.239,3.682,9.27,0.119,0.122,-0.022,8.492,2.368,9.697,3.678,-0.27,0.382,angry
4.79,2716,2843,3788,3142,2930,0,2526,2977,9,0,0,0,0,0,0,0,0.263,3.692,9.218,0.129,0.163,-0.021,7.044,0.91,8.973,4.201,-0.451,-0.356,angry
4.8,2736,2887,3812,3193,2842,0,2093,2618,22,43,0,0,0,0,0,0,0.041,3.737,9.122,0.136,0.143,-0.019,5.497,-0.273,8.964,4.69,-0.661,-0.946,angry
4.81,2765,2933,3840,3248,2654,0,1584,1811,0,0,0,0,4,0,43,0,0.096,3.721,9.333,0.151,0.119,-0.012,3.134,-2.5,9.603,5.395,-0.925,-1.653,angry
4.82,2814,2982,3872,3286,2488,0,1280,459,0,0,0,0,0,0,0,0,0.017,3.804,9.328,0.163,0.12,-0.008,1.755,-3.51,11.274,5.697,-0.941,-1.747,angry
4.83,2893,2995,3908,3360,2422,0,944,0,0,0,0,0,0,0,0,0,0.031,3.78,9.043,0.161,0.112,-0.015,-0.541,-5.684,13.317,6.015,-1.488,-1.671,angry
4.84,2931,3021,3920,3390,2430,0,794,0,0,0,0,0,3,0,0,0,-0.002,3.768,9.203,0.131,0.136,-0.018,-0.84,-6.73,14.459,6.11,-1.712,-1.48,angry
4.85,3024,3425,3024,3438,0,0,0,0,0,0,0,0,0,0,0,0,-0.069,3.584,8.878,0.15,0.099,-0.023,-0.113,-7.575,16.173,6.103,-1.898,-1.318,angry
4.86,3071,3018,3956,3481,2540,0,941,0,0,0,0,0,0,0,0,0,0.031,3.709,8.885,0.153,0.079,-0.023,1.932,-10.135,19.613,6.124,-1.947,-1.256,angry
4.87,3135,3063,3979,3515,2593,0,829,0,0,0,0,0,0,37,0,0,0.081,3.711,9.29,0.167,0.109,-0.019,3.29,-15.316,19.613,6.092,-2.018,-1.674,angry
4.88,3221,3120,4066,3573,2603,0,762,0,0,0,0,0,0,0,0,0,0.239,4.216,9.282,0.207,0.06,-0.004,2.361,-19.613,19.613,5.923,-1.885,-2.296,angry
4.89,3290,3632,3280,3634,0,0,0,0,0,0,0,0,0,0,0,0,0.266,3.965,9.409,0.181,0.092,-0.001,1.195,-19.613,17.925,5.383,-1.126,-2.562,angry
4.9,3376,3268,4047,3690,2481,0,658,0,0,0,0,0,121,0,0,0,0.074,3.433,9.385,0.281,0.029,0.057,-1.915,-19.613,7.468,4.275,-0.364,-2.329,angry
4.91,3468,3376,4067,3737,2349,0,618,0,0,0,0,0,0,0,0,0,0.352,3.673,9.385,0.45,0.026,0.109,-6.249,-19.613,-3.199,3.079,-0.206,-1.545,angry
4.92,3570,3442,4083,3782,1943,0,618,0,0,0,0,19,0,0,0,0,-0.29,1.738,9.469,0.77,0.063,0.262,-10.094,-19.613,-4.401,1.648,-1.302,-0.899,angry
4.93,3774,3536,4095,3834,1230,0,550,0,0,0,0,0,0,0,0,13,-0.007,3.567,8.748,1.106,-0.001,0.442,-4.925,-19.613,-11.013,-2.786,-0.285,-1.473,angry
4.94,3902,3433,4095,3856,752,0,462,0,0,40,0,0,25,0,0,0,1.563,2.789,9.653,1.78,-0.071,0.767,-4.774,-15.637,-9.831,-2.199,0.976,-0.515,angry
4.95,3983,2973,4095,3821,489,0,266,0,0,0,0,0,0,0,122,2367,0.886,1.03,9.084,3.379,0.055,1.033,-15.672,3.845,2.543,-7.322,-3.753,-0.559,angry
4.96,4001,2559,4055,3496,0,0,0,0,0,0,0,0,19,0,2301,3663,0.618,2.48,6.519,4.768,1.243,0.656,19.613,-19.613,19.613,-6.206,1.648,1.731,angry
4.97,3925,2337,3934,2886,0,0,0,0,25,3805,99,0,55,165,0,3803,2.121,9.56,9.847,6.69,1.082,-0.151,1.633,-19.613,19.613,-0.077,1.597,-0.586,angry
4.98,3146,703,2813,1418,0,0,0,0,0,53,0,0,547,0,3219,3880,0.438,1.144,19.613,8.731,-3.462,-3.404,1.721,-6.531,19.307,-0.561,2.374,0.871,angry
4.99,878,0,31,0,0,0,0,0,0,1292,1057,0,1384,1,3493,3980,4.305,19.613,19.613,8.731,-1.806,-4.298,0.95,-2.792,10.803,0.127,0.62,0.202,angry
5,0,0,0,0,0,0,0,0,0,1429,1978,75,1870,0,3608,3993,14.466,9.701,19.613,4.306,0.171,-4.731,1.353,-3.484,10.116,0.05,0.395,0.179,angry
5.01,0,0,0,0,0,0,0,0,0,1660,2249,146,2415,0,3701,4011,-3.153,14.432,19.613,1.328,-0.006,-2.593,1.286,-2.32,9.67,0.05,0.299,0.133,angry
5.02,0,0,0,0,0,0,0,0,2,1783,2592,428,2635,3,3760,4057,11.562,-0.316,19.613,-0.156,-0.174,-1.911,1.142,-2.67,10.266,-0.06,0.22,0.122,angry
5.03,0,0,0,0,0,0,0,0,0,1929,2805,1453,2933,0,3831,4023,6.088,-2.818,10.985,-1.716,0.752,-1.447,0.699,-2.444,10.01,-0.043,0.163,0.088,angry
5.04,0,0,0,0,0,0,0,0,3,1957,2833,1677,3005,2,3833,3979,3.974,-3.852,5.476,-2.069,-0.319,-0.821,0.737,-2.468,9.618,-0.029,0.133,0.075,angry
5.05,0,0,0,0,0,0,0,0,1,2041,2861,1805,3064,2,3774,3939,4.65,-2.931,4.855,-2.126,-0.847,-0.363,0.895,-2.488,9.807,-0.041,0.14,0.07,angry
5.06,0,0,0,0,0,0,0,0,3,2058,2886,2043,3091,2,3691,3875,4.879,-1.7,6.029,-2.407,-1.012,0.065,0.931,-2.54,9.814,-0.048,0.143,0.067,angry
5.07,0,0,0,0,0,0,0,0,11,2110,2915,2165,3055,0,3593,3869,4.386,-1.111,6.756,-2.864,-0.93,0.43,0.761,-2.428,9.752,-0.036,0.135,0.072,angry
5.08,0,0,0,0,0,0,0,0,9,2133,2925,2277,2987,4,3464,3717,2.744,-0.189,7.324,-3.316,-1.033,0.755,0.826,-2.617,9.708,-0.013,0.159,0.066,angry
5.09,0,0,0,0,0,0,0,0,7,2129,2935,2423,2953,3,3372,3613,1.379,0.424,8.021,-3.716,-1.254,0.991,0.661,-2.351,9.768,-0.034,0.124,0.055,angry
5.1,0,0,0,0,0,0,0,0,29,2122,2945,2543,2953,9,3197,3509,0.424,1.257,8.708,-4.098,-1.466,1.12,0.73,-2.626,9.685,-0.04,0.11,0.076,angry
5.11,0,0,0,0,0,0,0,0,22,2148,2976,2649,2967,9,3043,3400,-0.484,2.246,9.603,-4.446,-1.65,1.155,0.9,-2.811,9.634,-0.043,0.097,0.069,angry
5.12,0,0,0,0,0,0,0,0,60,2169,2976,2726,3043,18,2906,3290,-1.465,2.998,9.725,-4.723,-1.79,1.098,0.51,-2.169,9.838,-0.023,0.072,0.06,angry
5.13,0,0,0,0,0,0,0,0,57,2183,3017,2836,3189,21,3001,2985,-2.914,4.123,10.537,-4.861,-2.139,0.882,0.498,-2.126,10.065,-0.07,0.075,0.065,angry
5.14,0,0,0,0,0,0,0,0,319,2286,3068,2985,3343,47,3043,2685,-1.465,7.343,14.322,-4.772,-2.821,0.75,0.814,-2.638,9.524,-0.046,0.061,0.057,angry
5.15,0,0,0,0,0,0,0,0,541,2361,3058,3103,3391,50,2951,2524,6.464,14.511,19.613,-4.858,-3.114,1.483,0.275,-2.456,9.78,0.012,-0.011,0.035,angry
5.16,0,0,0,0,0,0,0,0,941,2427,3081,3301,3502,50,2877,2093,-0.204,19.613,17.011,-4.868,-2,3.554,0.68,-2.598,9.795,-0.102,0.03,0.029,angry
5.17,0,0,0,0,0,0,0,0,1207,2604,3099,3528,3591,51,2633,1276,-6.132,19.613,9.893,-3.8,-0.858,3.615,0.594,-2.636,9.776,-0.186,-0.019,0.009,angry
5.18,0,0,0,0,0,0,0,0,1451,2664,3055,3628,3605,49,2361,999,-3.474,19.613,-8.114,-3.06,1.499,3.159,0.587,-2.679,9.907,-0.179,-0.009,0.01,angry
5.19,0,0,0,0,0,0,0,0,1883,2766,3145,3784,3113,49,1259,365,-17.063,19.613,-19.613,1.099,-0.168,2.176,0.378,-2.715,9.89,-0.193,0.016,0.017,angry
5.2,0,0,0,0,0,0,805,3114,2349,2843,3171,3899,2278,30,150,117,-17.648,-19.613,-7.738,5.276,1.865,-0.395,-0.12,-1.621,10.288,-0.947,0.319,-0.326,angry
5.21,0,0,0,0,0,0,1905,3794,2555,2867,3176,3894,1520,11,61,91,-10.961,17.478,14.327,5.395,-1.071,-1.194,1.245,-2.399,9.194,-0.808,0.126,-0.34,angry
5.22,810,83,0,0,838,0,2793,3839,2729,2922,3214,3849,176,6,6,43,4.14,17.442,19.613,0.273,1.291,-0.376,3.867,-1.867,9.787,-2.126,-1.144,-0.463,angry
5.23,1345,1303,1449,0,1277,0,2948,3768,2415,1599,3304,3594,19,12,11,27,6.227,2.217,8.265,0.339,0.671,-0.277,2.99,-1.53,13.75,-5.313,0.363,-0.282,angry
5.24,1757,1921,2999,1375,2175,0,3056,3663,2063,342,3339,3334,0,0,0,0,0.694,5.193,9.886,0.211,0.133,-0.019,1.599,0.371,17.365,-7.588,0.432,0.799,angry
5.25,2128,2224,3328,2271,2667,0,3242,3706,685,0,1614,627,13,0,0,0,0.168,4.75,10.163,0.064,0.077,-0.034,-1.18,-12.198,19.613,-8.731,-0.238,3.076,angry
5.26,2387,2491,3436,2537,2898,0,3331,3682,0,0,0,0,0,0,0,0,0.747,3.529,9.534,0.095,0.122,-0.007,5.332,-2.049,19.613,-4.89,1.713,3.436,angry
5.27,2505,2644,3567,2709,3089,0,3363,3663,0,0,0,25,0,0,0,39,0.385,3.903,9.649,-0.004,0.137,-0.041,-0.776,-3.496,14.753,-2.199,1.804,4.293,angry
5.28,2607,2727,3663,2782,3248,0,3318,3568,0,0,0,0,19,0,0,0,0.364,3.938,9.653,0.08,0.074,-0.027,6.826,1.659,13.606,0.977,-0.557,3.182,angry
5.29,2699,2823,3726,2875,3245,0,3175,3419,0,41,0,0,0,0,0,0,0.323,3.728,9.369,0.061,0.101,-0.036,10.113,2.006,5.911,2.252,-0.397,1.816,angry
5.3,2752,2896,3773,2954,3197,0,2919,3125,0,0,0,0,0,0,0,0,0.208,3.666,9.361,0.08,0.08,-0.03,9.112,2.346,3.649,2.467,-0.468,0.906,angry
5.31,2791,2930,3791,2984,3133,0,2697,2843,0,0,0,0,9,0,0,0,0.199,3.654,9.359,0.087,0.069,-0.039,7.499,1.882,3.759,2.52,-0.755,0.113,angry
5.32,2780,2959,3803,2991,3089,0,2462,2531,0,39,0,0,0,0,0,11,0.239,3.673,9.309,0.091,0.075,-0.045,6.381,1.183,5.16,2.686,-1.229,-0.513,angry
5.33,2773,2986,3826,3012,2931,0,2005,2162,0,0,0,0,0,0,23,0,0.239,3.663,9.29,0.095,0.067,-0.045,4.894,-0.666,8.734,3.635,-1.617,-1.327,angry
5.34,2858,2988,3852,3042,2848,0,1731,1727,0,0,0,0,71,0,0,0,0.239,3.668,9.328,0.108,0.071,-0.044,0.838,-2.614,11.952,4.725,-1.965,-1.676,angry
5.35,2960,2969,3884,3085,2864,0,1584,1558,0,0,0,0,0,0,0,0,0.263,3.704,8.957,0.065,0.121,-0.024,-0.369,-2.82,10.647,4.993,-2.138,-1.639,angry
5.36,3107,3024,3915,3210,2983,0,1660,1512,0,0,0,0,0,0,0,0,0.213,3.63,9.275,0.133,0.17,-0.007,-2.897,-3.649,12.96,5.169,-2.155,-1.076,angry
5.37,3215,3042,3951,3344,3069,0,1616,959,0,0,0,0,0,0,0,0,0.304,3.56,9.416,0.167,0.198,-0.002,-4.808,-9.409,17.894,5.004,-2.71,-0.29,angry
5.38,3361,3133,3989,3451,2939,0,1392,0,9,0,20,0,0,0,0,0,0.168,3.697,9.407,0.215,0.201,0.001,-6.984,-13.139,17.377,4.282,-3.496,-0.199,angry
5.39,3495,3207,4014,3582,2831,0,1012,0,0,0,0,0,42,0,0,0,0.077,3.548,9.711,0.31,0.131,0.048,-15.103,-19.613,13.317,2.485,-5.028,0.991,angry
5.4,3652,3691,4043,3686,0,0,0,0,0,0,0,0,0,0,0,0,0.086,3.041,8.708,0.483,0.072,0.135,-6.759,-19.613,-4.98,0.676,-1.386,1.972,angry
5.41,3712,3664,4065,3713,0,0,477,0,0,0,0,0,0,0,0,0,0.184,3.543,9.17,0.586,0.079,0.192,-16.644,-19.613,-3.768,-0.114,0.354,2.367,angry
5.42,3782,3390,4049,3755,1440,0,464,0,0,0,0,0,0,0,123,0,0.606,4.446,9.316,1.008,0.063,0.444,-4.037,-19.613,-10.08,-0.766,3.086,1.774,angry
5.43,3872,3309,4080,3774,940,0,331,0,0,0,0,0,0,6,1355,767,1.08,3.488,9.718,1.769,0.003,0.763,8.356,1.595,18.189,-0.129,5.086,1.851,angry
5.44,3902,3008,4056,3712,655,0,175,0,0,0,2,0,38,0,2056,2645,2.203,1.365,11.358,2.668,0.03,0.889,-17.566,2.519,19.613,-0.216,2.724,0.149,angry
5.45,3904,2352,3962,3410,144,0,0,0,4,1333,1353,0,237,0,2861,3803,2.523,4.389,11.42,4.178,1.038,0.594,1.978,-9.457,13.709,-0.411,0.764,0.266,angry
5.46,3723,806,3189,1780,0,0,0,0,3,1881,2682,1524,789,3,3060,3819,-0.733,1.935,18.84,7.382,-0.721,-0.406,2.591,-3.311,10.147,-0.599,0.173,0.121,angry
5.47,2466,0,427,0,0,0,0,0,5,2021,2881,2147,1117,3,3192,3816,-1.159,10.415,19.613,8.731,-1.745,-1.96,1.324,-3.718,9.431,-0.225,0.266,0.083,angry
5.48,0,0,0,0,0,0,0,0,8,2473,3017,2571,1597,5,3209,3881,11.274,3.235,19.613,3.836,1.217,-1.956,0.611,-2.646,9.89,-0.153,0.278,0.063,angry
5.49,0,0,0,0,0,0,0,0,0,2551,3022,2697,1935,4,3477,3879,10.611,14.554,15.972,1.371,2.53,-0.71,0.23,-2.895,10.06,-0.101,0.19,0.053,angry
5.5,0,0,0,0,0,0,0,0,9,2709,3048,2987,2523,7,3481,3799,4.829,-0.316,10.697,-0.534,2.795,0.986,0.735,-2.789,9.67,-0.029,0.175,0.053,angry
5.51,0,0,0,0,0,0,0,0,25,2728,3048,3043,2715,9,3445,3615,2.753,-3.931,8.89,-1.222,2.652,1.116,0.91,-2.705,9.776,-0.04,0.143,0.045,angry
5.52,0,0,0,0,0,0,0,0,27,2765,3063,3130,2733,9,3403,3608,2.516,-3.002,5.997,-1.655,2.463,1.248,0.814,-2.571,9.776,-0.045,0.143,0.052,angry
5.53,0,0,0,0,0,0,0,0,91,2799,3061,3157,2783,29,3288,3486,1.417,-4.231,3.893,-1.827,2.22,1.291,0.773,-2.746,9.771,-0.053,0.16,0.042,angry
5.54,0,0,0,0,0,0,0,0,313,2794,3055,3192,2663,0,3135,3341,1.295,-2.624,5.291,-1.967,1.904,1.348,0.646,-2.892,9.668,-0.056,0.127,0.027,angry
5.55,0,0,0,0,0,0,0,0,313,2821,3063,3325,2537,43,2961,3153,2.236,-0.567,7.537,-2.449,1.743,1.382,0.797,-3.079,9.524,-0.032,0.134,0.013,angry
5.56,0,0,0,0,0,0,0,0,317,2766,3068,3271,2473,48,2407,2869,4.389,1.056,7.503,-3.398,2.004,1.482,0.582,-2.883,9.55,-0.065,0.096,0.015,angry
5.57,0,0,0,0,0,0,0,0,221,2697,3068,3295,2323,42,2223,2508,4.851,2.037,8.176,-3.807,1.981,1.613,0.479,-2.643,10.003,-0.05,0.08,0.016,angry
5.58,0,0,0,0,0,0,0,0,363,2547,2935,3363,2085,52,1877,1917,7.333,5.624,9.831,-4.468,1.686,2.043,0.591,-2.713,9.943,-0.05,0.091,0.034,angry
5.59,0,0,0,0,0,0,0,0,466,2526,3091,3375,2025,51,1822,1877,10.015,7.678,8.657,-4.75,1.817,2.405,0.673,-2.82,9.744,-0.027,0.076,0.042,angry
5.6,0,0,0,0,0,0,0,0,714,2493,3007,3389,1997,51,1498,1819,17.475,12.124,4.422,-4.519,2.433,3.754,0.558,-2.928,9.637,0.018,0.077,0.055,angry
5.61,0,0,0,0,0,0,0,0,841,2475,3094,3444,1972,50,1608,1882,19.613,19.613,5.538,-3.55,3.291,6.439,0.484,-2.986,9.615,0.021,0.09,0.054,angry
5.62,0,0,0,0,0,0,0,0,1085,2375,3101,3419,1909,47,1530,1827,16.316,19.613,-4.52,-2.705,4.675,8.355,0.546,-3.026,9.871,0.054,0.11,0.079,angry
5.63,0,0,0,0,0,0,0,0,1259,2204,3030,3431,2045,48,1750,2019,-15.06,19.613,-12.277,0.727,5.479,8.731,0.177,-3.146,9.867,0.12,0.09,0.092,angry
5.64,1682,208,2383,988,0,0,0,0,1463,2251,3099,3413,1997,51,1909,2199,-3.074,19.613,-19.613,-0.218,3.163,6.443,0.22,-2.971,9.79,0.175,0.086,0.083,angry
5.65,2559,1531,3152,2370,373,0,0,0,1115,1847,3068,2980,1649,51,2429,2725,-1.08,17.401,1.032,-1.271,0.61,2.271,0.675,-2.933,9.826,0.337,0.047,0.057,angry
5.66,2737,2190,3551,2661,718,0,292,0,566,1107,2986,2335,1067,47,2439,3188,3.223,2.107,9.986,-0.952,-0.251,0.217,-2.768,-0.893,9.359,0.147,-0.046,0.294,angry
5.67,2742,2385,3583,2670,1881,48,1456,524,251,619,2810,2105,616,45,1995,3292,0.208,0.845,9.917,-0.054,-0.067,-0.171,-10.075,-1.915,10.23,0.071,-0.279,1.081,angry
5.68,2677,2374,3600,2864,2305,1865,2439,2721,5,5,1850,1342,111,0,1099,3360,-0.438,2.823,8.856,-0.149,0.265,-0.069,-13.819,-3.012,10.321,0.292,-1.044,4.42,angry
5.69,2786,2365,3663,2935,2538,2253,2834,3134,41,39,99,409,39,38,0,2773,-0.067,3.077,8.576,0.037,-0.105,0.052,1.654,-10.147,9.134,0.372,-1.597,7.26,angry
5.7,2806,2461,3665,2919,2784,2064,3093,3300,39,37,94,0,109,31,40,2183,0.381,3.584,9.234,0.019,-0.132,0.044,5.25,-13.81,8.217,1.006,-1.422,8.058,angry
5.71,2710,2553,3673,2864,2893,1689,3184,3383,0,0,0,0,0,0,0,1287,0.625,3.689,8.837,-0.005,0.028,-0.005,5.837,-18.407,7.786,1.524,-0.348,8.508,angry
5.72,2637,2627,3669,2833,2907,1378,3203,3441,0,0,0,0,0,0,0,935,0.39,3.831,9.292,-0.037,0.072,-0.021,0.713,-17.717,7.003,-0.3,-1.022,7.209,angry
5.73,2559,2620,3653,2849,2896,848,3204,3472,0,0,0,0,0,0,0,713,0.251,3.531,9.131,-0.009,0.102,-0.03,5.085,-15.68,3.06,-0.885,-1.588,6.548,angry
5.74,2559,2602,3653,2860,2880,263,3166,3500,0,0,69,0,0,0,0,392,0.096,3.728,9.419,0.007,0.079,-0.016,6.158,-10.944,7.307,-1.381,-1.103,5.048,angry
5.75,2525,2559,3648,2850,2886,16,3141,3514,0,0,0,0,0,0,0,199,0.342,3.814,9.371,-0.009,0.084,-0.015,3.29,-5.835,8.171,-1.452,-1.112,4,angry
5.76,2480,2543,3635,2843,2845,275,3143,3527,0,0,0,0,0,0,0,142,0.019,3.409,9.256,-0.007,0.07,0.003,1.951,-3.689,9.029,-1.335,-0.92,3.904,angry
5.77,2484,2559,3653,2879,2794,168,3158,3555,0,0,0,0,0,0,0,63,0.129,3.565,9.395,0.026,0.051,-0.01,0.953,-0.97,9.237,-0.889,-0.982,4.312,angry
5.78,2525,2601,3667,2917,2771,270,3178,3559,0,5,0,0,0,0,0,23,0.278,3.651,9.287,0.03,0.058,-0.01,3.201,0.474,9.661,-0.333,-0.811,4.463,angry
5.79,2559,2630,3693,2958,2752,331,3191,3559,0,0,0,0,0,0,0,8,0.108,3.575,9.273,0.032,0.067,0.001,2.662,1.733,9.538,0.008,-0.829,4.471,angry
5.8,2595,2630,3696,2985,2767,368,3185,3554,0,0,0,0,0,0,0,0,0.072,3.56,9.196,0.046,0.071,0.005,2.246,1.923,9.912,0.321,-0.834,4.678,angry
5.81,2608,2632,3705,2994,2764,289,3178,3550,0,0,0,0,0,0,0,0,0.22,3.582,9.371,0.045,0.076,0.006,2.622,1.46,9.747,0.533,-0.906,4.853,angry
5.82,2629,2639,3712,3022,2748,379,3151,3539,0,0,0,0,0,1,0,0,0.136,3.543,9.354,0.051,0.1,-0.018,11.803,11.155,2.274,-0.783,-2.411,4.388,angry
5.83,2687,2610,3716,3087,2694,143,3079,3473,0,0,0,0,0,0,0,0,0.136,3.474,9.529,0.078,0.142,-0.043,13.975,-0.318,5.004,0.279,-2.969,3.133,angry
5.84,2765,2608,3715,3159,2593,0,2885,3322,0,0,0,46,50,0,0,0,0.091,3.613,9.421,0.08,0.185,-0.055,4.116,0.053,15.06,1.049,-0.948,1.743,angry
5.85,2854,2597,3735,3241,2320,0,2450,2721,0,0,0,171,0,6,0,89,0.18,3.455,9.589,0.205,0.164,-0.024,2.868,-2.174,18.89,-0.219,-0.234,0.392,angry
5.86,2979,2608,3761,3328,1200,0,1381,647,0,0,0,299,0,0,1395,2361,0.606,2.114,10.716,0.636,0.233,0.229,0.196,0.95,7.989,0.153,-0.092,0.031,angry
5.87,2982,2341,3782,3387,309,0,96,0,0,0,0,886,104,0,1869,3045,1.827,2.835,10.58,1.713,0.066,1.045,0.517,-2.856,9.833,0.194,-0.188,0,angry
5.88,3143,1255,3699,3286,0,0,0,0,0,0,1236,1045,316,0,2327,3211,2.215,3.531,11.047,1.635,0.821,0.829,0.986,-2.497,10.092,0.095,-0.161,0.006,angry
5.89,3219,0,2736,2849,0,0,0,0,0,0,2085,1351,553,329,2927,3531,3.96,3.644,12.95,2.117,2.222,0.585,0.292,-2.069,10.111,0.043,0.054,0.07,angry
5.9,3026,0,209,1521,0,0,0,0,1,2,2147,1657,871,679,3339,3693,4.817,5.804,13.673,2.946,4.878,-1.122,0.354,-2.368,10.029,0.117,0.014,0.054,angry
5.91,880,0,0,0,0,0,0,0,1,3,2160,1709,887,679,3440,3807,11.406,10.139,16.173,1.294,6.033,-3.212,0.429,-2.354,9.764,0.095,0.037,0.039,angry
5.92,0,0,0,0,0,0,0,0,1,0,2162,1675,1131,427,3517,3894,16.467,14.605,19.613,1.253,6.702,-0.085,0.29,-2.212,9.919,0.105,0.016,0.027,angry
5.93,0,0,0,0,0,0,0,0,9,35,2157,1584,1379,95,3603,3883,19.043,13.623,13.051,-0.384,4.048,3.519,0.362,-2.09,9.754,0.046,-0.003,0.027,angry
5.94,0,0,0,0,0,0,0,0,1,98,2316,1763,1575,1,3655,3891,14.911,7.635,-0.673,0.13,3.912,4.785,0.424,-2.31,9.847,-0.004,-0.006,0.027,angry
5.95,0,0,0,0,0,0,0,0,0,0,2321,1775,1693,0,3691,3867,7.281,9.591,7.898,0.313,3.739,5.348,0.488,-2.334,9.708,-0.024,-0.004,0.016,angry
5.96,0,0,0,0,0,0,0,0,1,123,2326,1803,1739,2,3693,3848,4.374,8.016,11.243,-0.349,3.115,5.376,0.4,-2.377,9.783,-0.033,-0.015,0.009,angry
5.97,0,0,0,0,0,0,0,0,1,101,2311,1807,1788,3,3673,3799,2.689,4.037,7.63,-0.883,2.619,5.029,0.232,-2.454,9.74,-0.018,-0.025,0.002,angry
5.98,0,0,0,0,0,0,0,0,6,217,2313,1784,1803,3,3692,3709,0.493,2.78,8.574,-1.288,2.317,4.411,0.357,-2.27,9.924,-0.018,-0.011,-0.001,angry
5.99,0,0,0,0,0,0,0,0,3,327,2410,1683,1791,2,3653,3603,-0.682,1.551,8.334,-1.653,1.686,3.746,0.321,-2.267,9.902,-0.03,-0.014,0.007,angry
6,0,0,0,0,0,0,0,0,1,367,2556,1715,1827,3,3652,3511,-0.309,0.546,7.185,-1.992,1.167,3.134,0.318,-2.195,9.764,-0.064,-0.03,0.017,angry
6.01,0,0,0,0,0,0,0,0,3,525,2664,1775,1886,3,3622,3467,0.148,0.548,6.711,-2.192,0.762,2.628,0.326,-2.313,9.783,-0.079,-0.02,0.022,angry
6.02,0,0,0,0,0,0,0,0,0,725,2725,1805,1999,2,3589,3488,0.807,1.506,7.705,-2.353,0.333,2.263,0.385,-2.26,9.72,-0.095,-0.024,0.032,angry
6.03,0,0,0,0,0,0,0,0,1,952,2692,1897,2093,8,3547,3488,1.815,2.653,8.588,-2.624,-0.02,2.032,0.445,-2.466,9.89,-0.098,-0.016,0.031,angry
6.04,0,0,0,0,0,0,0,0,1,1061,2833,1971,2263,47,3465,3511,2.94,3.634,8.296,-2.972,-0.17,1.883,0.431,-2.44,9.807,-0.069,-0.008,0.035,angry
6.05,0,0,0,0,0,0,0,0,0,1176,2899,2111,2373,2,3283,3497,3.318,4.271,7.843,-3.233,-0.195,1.806,0.462,-2.473,9.764,-0.054,-0.012,0.042,angry
6.06,0,0,0,0,0,0,0,0,1,1273,2917,2196,2505,2,3355,3509,3.551,4.774,7.386,-3.316,-0.458,1.826,0.429,-2.334,9.778,-0.053,-0.005,0.043,angry
6.07,0,0,0,0,0,0,0,0,2,1405,2930,2275,2633,2,3367,3540,4.484,5.72,7.42,-3.29,-0.759,1.971,0.371,-2.37,9.955,-0.06,-0.034,0.044,angry
6.08,0,0,0,0,0,0,0,0,1,1597,2991,2357,2741,3,3383,3553,5.794,7.027,7.621,-3.262,-0.91,2.246,0.455,-2.413,9.845,-0.066,-0.036,0.037,angry
6.09,0,0,0,0,0,0,0,0,0,1639,2986,2526,2879,3,3397,3513,6.802,8.353,8.226,-3.221,-1.001,2.664,0.397,-2.435,9.946,-0.08,-0.036,0.032,angry
6.1,0,0,0,0,0,0,0,0,2,1725,3017,2652,2999,2,3403,3559,8.622,11.071,9.397,-3.186,-1.037,3.28,0.39,-2.476,9.862,-0.067,-0.052,0.037,angry
6.11,0,0,0,0,0,0,0,0,1,1801,3043,2679,3096,0,3381,3539,10.285,14.085,9.701,-3.152,-0.863,4.135,0.338,-2.492,9.862,-0.063,-0.043,0.043,angry
6.12,0,0,0,0,0,0,0,0,21,2053,3089,2904,3274,7,3421,3497,3.093,18.232,7.606,-2.774,-0.71,5.503,0.493,-2.461,9.627,-0.091,-0.052,0.052,angry
6.13,0,0,0,0,0,0,0,0,33,2335,3145,3047,3443,12,3341,3211,-2.818,19.613,5.243,-2.027,-0.709,5.444,0.579,-2.696,9.73,0.007,-0.075,0.08,angry
6.14,0,0,0,0,0,0,0,0,61,2473,3150,3100,3507,19,3279,2968,-14.109,19.613,1.492,-1.073,-1.241,4,0.426,-2.545,9.704,0.017,-0.113,0.088,angry
6.15,0,0,0,0,0,0,172,0,557,2585,3258,3277,3580,47,2939,2260,-6.567,17.025,-10.858,2.31,0.01,2.001,0.68,-2.083,9.814,-0.06,-0.19,0.123,angry
6.16,0,0,0,0,0,0,746,3120,996,2905,3173,3438,3148,47,2002,671,-19.613,3.96,19.613,2.62,4.258,-2.695,0.481,-2.722,9.596,-0.351,-0.233,0.157,angry
6.17,0,0,0,0,0,0,1227,3747,1379,2981,3176,3503,2875,43,1075,539,-0.007,-0.718,4.231,2.675,0.642,-0.887,0.17,-0.129,9.701,-0.578,-0.33,0.203,angry
6.18,0,0,0,0,0,0,1780,3811,1947,2997,3245,3455,1195,44,663,181,12.534,6.306,7.501,2.434,0.332,-0.252,0.936,-1.551,9.735,-1.236,-0.225,-0.049,angry
6.19,575,0,0,0,628,0,2548,3868,2107,2797,3222,3027,351,27,114,89,-3.567,5.497,6.594,-0.036,1.721,-0.617,-0.215,-0.261,9.752,-3.081,-1.237,0.724,angry
6.2,1215,240,699,0,891,0,2930,3948,1701,2215,3273,2168,101,0,37,56,-1.03,5.76,11.708,0.059,0.553,-0.203,-4.415,4.178,14.904,-5.843,-1.164,1.564,angry
6.21,1437,596,1844,881,1479,206,3149,3997,776,303,2454,46,27,0,0,0,-0.5,4.113,10.329,-0.002,0.254,-0.078,1.317,2.083,19.613,-8.731,-3.947,0.878,angry
6.22,1553,758,2309,1409,1535,301,3262,4025,43,0,0,0,0,0,0,0,0.417,3.687,9.505,0.043,0.154,-0.057,3.096,-19.613,19.077,-8.731,-4.274,1.749,angry
6.23,1631,1001,2537,1632,2002,480,3338,4033,0,0,0,0,0,0,0,0,0.146,3.73,9.61,0.036,0.08,-0.021,6.524,-6.225,19.613,-6.055,-2.663,2.783,angry
6.24,1691,1147,2715,1807,2185,531,3376,4027,0,0,0,0,0,0,0,0,0.153,3.496,9.421,0.04,0.045,-0.004,-5.272,1.073,19.613,-0.115,-0.606,2.919,angry
6.25,1712,1212,2830,1951,2240,241,3367,4007,0,17,0,0,0,0,0,0,0.101,3.455,9.337,0.052,0.088,-0.02,3.412,3.788,9.024,2.152,-1.088,3.402,angry
6.26,1760,1310,2890,2086,2161,384,3292,3967,0,0,0,0,0,0,0,0,0.17,3.63,9.34,0.05,0.129,-0.049,4.31,4.355,8.418,2.374,-1.057,3.045,angry
6.27,1772,1329,2927,2123,2098,0,3187,3931,7,0,0,0,0,0,0,0,0.007,3.61,9.354,0.042,0.108,-0.028,6.771,2.358,10.238,3.333,-0.733,1.625,angry
6.28,1774,1264,2930,2102,2071,0,3127,3905,0,0,0,0,0,0,0,0,-0.129,3.512,9.347,0.042,0.078,-0.017,5.538,1.377,9.62,3.811,-0.795,0.81,angry
6.29,1767,1310,2941,2035,2009,0,3088,3890,0,0,309,0,0,0,0,0,-0.065,3.479,9.34,0.034,0.059,-0.022,4.228,0.51,9.661,4.253,-0.956,0.048,angry
6.3,1790,1335,2960,1908,2062,0,3024,3855,1,0,0,0,0,0,0,0,0.079,3.407,9.282,0.039,0.063,-0.028,1.772,-1.563,10.781,4.946,-1.3,-0.949,angry
6.31,1831,1346,3025,1982,2164,0,3013,3833,0,0,0,0,0,0,0,0,-0.055,3.383,9.309,0.091,0.069,-0.047,0.072,-2.535,11.935,5.257,-1.246,-1.214,angry
6.32,1987,1456,3167,2293,2347,0,3047,3821,0,0,0,0,0,0,0,0,-0.022,3.448,9.268,0.086,0.064,-0.041,-2.574,-3.97,11.902,5.565,-1.337,-1.165,angry
6.33,2143,1662,3318,2524,2559,0,3071,3790,0,0,0,0,0,0,0,0,0.268,3.618,9.369,0.099,0.069,-0.034,-0.97,-6.088,15.864,5.602,-1.507,-0.818,angry
6.34,2266,1840,3472,2729,2727,170,3071,3745,0,0,0,0,0,0,0,0,-0.034,3.62,9.38,0.123,0.057,-0.025,1.003,-8.815,18.419,5.607,-1.591,-1.101,angry
6.35,2462,2129,3632,2939,2923,297,2969,3632,0,0,0,0,0,0,0,0,-0.237,3.395,9.395,0.137,0.106,-0.026,2.31,-19.589,19.613,5.424,-0.869,-2.334,angry
6.36,2694,2401,3777,3216,3159,521,2758,3393,0,0,0,31,0,0,0,0,-0.067,3.359,9.333,0.202,0.158,-0.026,-1.053,-19.613,7.731,3.987,0.528,-2.256,angry
6.37,2955,2698,3885,3409,3269,371,2306,2366,0,0,0,0,0,0,0,0,-0.065,3.148,9.814,0.399,0.102,0.05,-2.933,-19.613,0.8,2.973,0.473,-1.521,angry
6.38,3255,2960,3973,3573,3039,0,1125,0,0,0,0,0,11,0,0,0,0.01,2.892,9.424,0.56,0.074,0.144,-5.94,-19.613,-5.21,0.391,-1.522,-0.323,angry
6.39,3541,3159,4017,3712,1664,0,528,0,43,0,0,0,0,0,0,0,0.381,4.369,9.258,1.215,0.025,0.489,9.05,-12.258,-14.016,-1.262,1.58,-0.139,angry
6.4,3706,3210,4053,3771,1023,0,581,0,0,0,0,0,0,0,21,599,1.006,3.182,8.174,1.814,-0.156,0.706,-7.479,19.613,19.613,-1.386,2.501,1.116,angry
6.41,3877,2995,4070,3792,671,0,547,0,0,18,0,0,0,6,72,2149,1.968,2.164,8.93,3,-0.368,1.125,-17.36,5.143,2.583,-5.705,-3.358,-0.872,angry
6.42,3982,2451,4039,3684,0,0,317,0,0,0,0,0,0,0,1415,3574,1.669,6.139,10.101,3.956,0.945,0.797,3.405,-15.905,19.613,-4.364,-1.079,0.876,angry
6.43,3949,1871,3815,2960,0,0,0,0,0,0,0,0,243,0,2919,3787,2.789,4.108,7.25,6.724,1.828,0.189,-9.261,8.334,12.828,-0.592,1.94,1.043,angry
6.44,3865,750,3131,2261,0,0,0,0,0,6,0,0,415,5,2999,3849,-2.322,0.321,19.613,8.61,0.562,-1.524,1.642,-5.013,13.384,0.479,0.93,0.435,angry
6.45,3376,137,2000,789,0,0,0,0,2,137,504,0,645,0,3245,3805,-4.377,5.416,19.613,8.731,-1.737,-3.838,2.241,-1.59,8.916,-0.075,0.467,0.24,angry
6.46,1297,0,0,0,0,0,0,0,0,991,1248,0,1135,0,3403,3915,6.246,17.885,19.613,8.731,-1.334,-3.994,1.35,-2.557,9.227,-0.142,0.325,0.256,angry
6.47,0,0,0,0,0,0,0,0,6,1240,2288,182,1638,1,3543,3945,11.538,4.499,19.613,3.676,0.851,-4.541,1.214,-2.602,10.046,-0.109,0.256,0.212,angry
6.48,0,0,0,0,0,0,0,0,3,1407,2433,551,1928,2,3621,3956,1.262,12.06,19.613,1.191,0.153,-1.882,1.183,-2.641,10.01,-0.109,0.169,0.175,angry
6.49,0,0,0,0,0,0,0,0,1,1449,2533,930,2292,2,3687,3978,10.731,-2.2,19.613,-0.76,0.59,-1.656,0.874,-2.576,10.092,-0.053,0.169,0.132,angry
6.5,0,0,0,0,0,0,0,0,1,1553,2664,1643,2549,7,3752,3963,5.296,-3.79,8.655,-1.571,0.394,-1.017,0.915,-2.535,9.694,-0.03,0.082,0.068,angry
6.51,0,0,0,0,0,0,0,0,3,1647,2682,1787,2605,0,3751,3941,4.927,-2.794,8.231,-1.863,-0.537,-0.54,0.879,-2.535,9.787,-0.017,0.097,0.048,angry
6.52,0,0,0,0,0,0,0,0,2,1659,2735,1845,2697,3,3733,3917,5.583,-2.629,6.958,-2.105,-1.123,-0.05,0.967,-2.538,9.9,-0.016,0.112,0.042,angry
6.53,0,0,0,0,0,0,0,0,1,1699,2828,1829,2731,2,3676,3877,5.588,-1.93,6.574,-2.438,-1.203,0.417,0.972,-2.435,9.713,-0.032,0.115,0.048,angry
6.54,0,0,0,0,0,0,0,0,0,1783,2884,1951,2715,2,3613,3836,4.257,-0.431,7.853,-2.86,-1.206,0.842,0.838,-2.397,9.838,-0.052,0.127,0.053,angry
6.55,0,0,0,0,0,0,0,0,3,1833,2838,2093,2659,3,3544,3784,2.622,0.443,8.389,-3.367,-1.286,1.145,0.682,-2.502,9.759,-0.042,0.098,0.059,angry
6.56,0,0,0,0,0,0,0,0,7,1743,2894,2223,2647,5,3491,3707,1.077,1.463,8.768,-3.887,-1.321,1.306,0.627,-2.413,9.706,-0.03,0.084,0.056,angry
6.57,0,0,0,0,0,0,0,0,0,1785,2943,2279,2663,4,3339,3621,0.225,2.239,8.696,-4.285,-1.333,1.326,0.699,-2.466,9.761,-0.051,0.074,0.066,angry
6.58,0,0,0,0,0,0,0,0,9,1823,2940,2333,2719,3,3271,3492,-1.171,2.698,8.921,-4.561,-1.535,1.313,0.778,-2.43,9.771,-0.064,0.074,0.073,angry
6.59,0,0,0,0,0,0,0,0,28,1948,2976,2405,2779,9,3128,3365,-1.686,3.479,9.591,-4.77,-1.781,1.267,0.747,-2.48,9.663,-0.082,0.061,0.092,angry
6.6,0,0,0,0,0,0,0,0,26,1933,3043,2571,2835,0,3050,3182,-1.516,4.147,9.716,-4.89,-2.002,1.253,0.749,-2.535,9.771,-0.085,0.059,0.082,angry
6.61,0,0,0,0,0,0,0,0,46,2063,3020,2637,2919,17,3078,3019,-1.93,5.255,11.619,-4.922,-2.158,1.167,0.73,-2.533,9.725,-0.065,0.064,0.079,angry
6.62,0,0,0,0,0,0,0,0,101,2107,3053,2873,3131,31,3079,2697,-1.595,7.774,16.058,-5.198,-2.576,1.137,0.769,-2.722,9.493,0.002,0.086,0.092,angry
6.63,0,0,0,0,0,0,0,0,269,2195,3078,2969,3173,31,3087,2630,3.725,14.404,19.613,-5.271,-2.739,1.361,0.654,-2.365,9.625,-0.024,0.075,0.096,angry
6.64,0,0,0,0,0,0,0,0,821,2340,3099,3207,3501,47,3115,2491,1.132,19.613,14.806,-5.114,-1.85,2.65,0.639,-2.674,9.459,-0.003,0.013,0.075,angry
6.65,0,0,0,0,0,0,0,0,1327,2455,3124,3435,3497,37,2976,1959,-7.879,19.613,4.073,-3.729,-0.702,2.451,0.687,-2.624,9.776,-0.103,-0.03,0.045,angry
6.66,0,0,0,0,0,0,0,0,1597,2523,3173,3541,3539,51,2871,1811,-8.193,19.613,-11.593,-1.122,0.384,1.853,0.819,-2.509,9.864,-0.138,-0.041,0.039,angry
6.67,0,0,0,0,0,0,0,969,2088,2684,3145,3689,3411,47,2024,763,-10.767,19.613,-11.588,1.58,0.853,1.286,0.718,-2.67,9.835,-0.281,-0.055,0.018,angry
6.68,0,0,0,0,0,0,739,3522,2579,2769,3181,3772,2599,36,190,121,-14.624,9.392,19.613,2.847,3.134,-2.637,0.115,0.369,10.185,-0.859,0.037,-0.267,angry
6.69,0,0,0,0,0,0,1206,3888,2735,2821,3081,3823,1500,30,184,110,-2.2,6.179,5.447,3.994,0.145,-0.928,2.816,-2.547,8.636,-1.038,0.048,-0.261,angry
6.7,0,0,0,0,126,0,2256,3905,2870,2700,3222,3833,239,25,47,185,1.329,11.224,15.656,2.513,-0.216,-0.358,5.066,1.427,10.125,-2.218,-1.564,-0.691,angry
6.71,771,0,0,0,768,0,2922,3888,2555,1449,3334,3725,71,1,7,59,2.409,3.156,4.568,0.305,1.948,-0.919,-1.056,0.479,12.567,-6.136,0.458,0.615,angry
6.72,1281,253,36,0,1258,0,3151,3957,1828,285,3368,3199,1,1,0,9,0.469,3.105,12.838,0.319,0.696,-0.364,3.752,-0.838,19.613,-8.731,0.199,1.321,angry
6.73,1473,608,974,0,1783,0,3271,4003,365,0,0,233,0,0,0,0,0.306,3.713,9.531,0.04,0.348,-0.126,-2.217,-6.936,19.613,-8.731,-0.529,4.199,angry
6.74,1577,938,2009,368,2175,0,3390,3996,0,0,120,0,0,0,0,0,0.548,3.582,9.493,0.025,0.21,-0.062,9.934,-5.061,19.613,-3.154,0.738,4.673,angry
6.75,1680,1499,2478,594,2253,0,3442,3987,0,0,0,0,0,0,0,44,0.232,3.639,9.481,0.033,0.089,-0.019,-1.346,-17.329,19.613,-0.86,0.394,4.134,angry
6.76,1748,1670,2699,911,2416,0,3454,3899,0,0,0,0,0,0,0,0,0.359,3.56,9.428,0.099,0.073,-0.04,13.841,2.82,12.201,1.567,0.508,2.345,angry
6.77,1787,1785,2848,1136,2464,0,3431,3903,0,39,0,0,0,0,0,0,0.515,3.426,9.395,0.117,0.118,-0.072,11.835,6.618,10.269,2.239,0.406,1.441,angry
6.78,1853,1909,3109,1535,2597,0,3293,3827,0,0,0,0,0,0,0,0,0.486,3.656,9.275,0.115,0.209,-0.091,8.339,3.883,8.04,2.981,-0.345,-0.28,angry
6.79,1925,1978,3221,1810,2619,0,3207,3778,0,0,0,0,0,0,0,0,0.182,3.596,9.567,0.099,0.194,-0.044,7.044,2.363,8.243,3.318,-0.851,-0.914,angry
6.8,2011,2005,3323,2157,2635,0,3107,3722,0,5,0,4,0,0,0,0,0.184,3.524,9.349,0.118,0.166,-0.039,5.725,0.534,9.807,3.817,-1.209,-1.417,angry
6.81,2093,2109,3397,2410,2676,0,3021,3632,0,0,0,0,0,0,0,0,0.007,3.405,9.218,0.14,0.116,-0.026,4.405,-0.974,10.372,4.43,-1.363,-1.732,angry
6.82,2224,2239,3525,2655,2732,0,2801,3497,0,0,0,0,0,0,0,0,0.165,3.587,9.258,0.148,0.107,-0.023,3.127,-2.002,10.752,4.942,-1.353,-1.872,angry
6.83,2384,2340,3632,2817,2769,0,2527,3315,0,0,0,0,0,0,0,0,0.084,3.625,9.522,0.137,0.13,-0.017,0.546,-3.812,11.847,5.432,-1.597,-1.764,angry
6.84,2531,2433,3683,2989,2848,0,2369,3103,0,0,0,0,0,0,0,0,0.194,3.598,9.019,0.161,0.14,-0.02,0.098,-6.115,14.672,5.668,-2.287,-1.537,angry
6.85,2678,2559,3797,3180,2930,0,2141,2704,0,10,0,0,0,0,0,0,-0.086,3.534,8.993,0.188,0.138,-0.006,1.312,-6.998,16.467,5.621,-2.486,-1.519,angry
6.86,2829,2687,3871,3338,2997,0,1825,1900,0,0,0,0,0,77,0,0,-0.065,3.663,9.416,0.216,0.103,-0.011,4.137,-15.859,19.613,5.512,-2.402,-2.194,angry
6.87,2990,2898,3939,3477,3056,0,1456,509,0,0,0,0,0,0,0,0,0.036,3.548,9.285,0.256,0.075,0.002,-0.757,-19.613,18.816,5.342,-1.318,-2.976,angry
6.88,3239,3087,3989,3603,2865,0,942,0,0,0,0,0,0,0,0,0,0.163,3.603,9.893,0.361,0.078,0.082,-5.499,-19.613,8.164,4.432,-0.86,-2.641,angry
6.89,3390,3187,4018,3664,2626,0,608,0,0,0,0,0,0,0,0,0,0.539,3.9,9.708,0.515,0.077,0.162,-8.152,-19.613,-3.196,3.057,-0.731,-1.84,angry
6.9,3541,3287,4048,3717,2180,0,497,0,0,0,0,0,0,0,0,0,0.022,3.012,9.148,0.718,0.058,0.263,-7.671,-19.613,-2.504,1.742,-0.875,-0.99,angry
6.91,3696,3376,4048,3760,1434,0,567,0,0,0,99,0,0,0,0,0,0.304,4.168,8.94,1.102,0.003,0.448,-5.394,-19.613,-4.061,0.666,-0.669,-0.956,angry
6.92,3821,3434,4079,3792,1193,0,548,0,0,18,0,0,0,0,0,0,1.097,3.792,9.804,1.334,0.044,0.587,-6.814,-19.613,-7.13,-2.583,-0.411,-1.823,angry
6.93,3961,3433,4093,3824,759,0,483,0,0,0,0,0,0,0,0,159,0.666,2.212,10.472,2.081,-0.157,0.864,1.618,-3.093,19.613,-0.992,4.044,-0.092,angry
6.94,4016,3279,4094,3798,561,0,434,0,0,60,0,0,0,0,16,1866,2.265,2.883,10.563,3.107,-0.117,1.006,-19.613,11.231,10.171,-5.959,-1.305,-1.127,angry
6.95,4048,2638,4046,3522,411,0,16,0,0,0,0,0,0,0,1483,3596,3.812,7.796,7.197,4.969,1.326,0.706,-4.439,-17.928,17.691,-5.555,-1.382,1.336,angry
6.96,3972,1959,3722,2527,0,0,0,0,0,0,0,2575,0,0,2617,37,-2.387,5.832,19.613,7.554,0.442,0.706,-1.432,-19.613,19.613,1.064,5.313,3.673,angry
6.97,2885,58,1599,256,0,0,0,0,0,28,0,0,376,0,3119,3887,-6.759,12.333,19.613,8.731,-3.801,-4.073,0.467,-4.266,18.447,-0.626,0.888,0.496,angry
6.98,1273,0,0,0,0,0,0,0,2,845,954,108,1126,2,3485,3897,0.929,19.613,19.613,8.731,-2.541,-4.193,0.057,-2.073,9.728,-0.07,0.493,0.225,angry
6.99,0,0,0,0,0,0,0,0,2,1075,2175,373,1513,2,3577,3999,11.162,4.748,19.613,3.51,0.437,-5.665,1.377,-2.859,10.051,0.045,0.301,0.145,angry
7,0,0,0,0,0,0,0,0,3,1271,2344,762,1895,3,3679,4015,8.49,11.061,19.613,-0.679,-0.521,-2.824,1.259,-2.236,9.529,-0.005,0.189,0.133,angry
7.01,0,0,0,0,0,0,0,0,2,1304,2405,1033,2107,2,3759,4030,13.534,3.974,14.248,-1.63,0.755,-2.376,1.137,-2.555,9.637,-0.009,0.149,0.128,angry
7.02,0,0,0,0,0,0,0,0,2,1387,2602,1257,2343,2,3794,4029,8.169,-3.115,9.117,-2.009,0.952,-1.917,0.953,-2.677,10.101,-0.007,0.121,0.107,angry
7.03,0,0,0,0,0,0,0,0,1,1448,2600,1503,2642,2,3814,4067,6.574,-2.018,7.266,-2.18,0.119,-1.116,0.907,-2.363,9.768,-0.018,0.11,0.08,angry
7.04,0,0,0,0,0,0,0,0,1,1527,2638,1598,2571,3,3800,3994,6.498,-2.373,6.16,-2.431,-0.658,-0.428,0.845,-2.531,9.984,0.003,0.122,0.051,angry
7.05,0,0,0,0,0,0,0,0,0,1509,2677,1615,2601,1,3747,3950,6.613,-2.48,4.87,-2.593,-0.848,0.182,0.915,-2.272,9.831,-0.016,0.134,0.065,angry
7.06,0,0,0,0,0,0,0,0,13,1585,2776,1687,2611,1,3751,3909,5.092,-1.511,5.849,-2.787,-0.871,0.654,0.907,-2.286,9.778,-0.065,0.161,0.106,angry
7.07,0,0,0,0,0,0,0,0,3,1605,2810,1914,2472,0,3626,3853,3.132,-0.376,7.721,-3.197,-1.054,1.016,0.812,-2.447,9.661,-0.1,0.212,0.13,angry
7.08,0,0,0,0,0,0,0,0,7,1653,2874,2145,2390,83,3436,3785,2.078,0.891,8.566,-3.75,-1.209,1.243,0.812,-2.765,9.785,-0.076,0.19,0.118,angry
7.09,0,0,0,0,0,0,0,0,2,1673,2894,2316,2343,3,3293,3719,1.393,1.721,8.277,-4.307,-1.148,1.302,0.603,-2.641,9.697,-0.07,0.145,0.111,angry
7.1,0,0,0,0,0,0,0,0,17,1725,2899,2479,2423,6,3090,3592,-0.081,2.303,8.622,-4.748,-1.147,1.231,0.706,-2.624,9.699,-0.074,0.124,0.097,angry
7.11,0,0,0,0,0,0,0,0,31,1723,2910,2550,2515,9,2943,3467,-1.444,2.837,8.54,-4.991,-1.429,1.142,0.802,-2.701,9.78,-0.075,0.107,0.095,angry
7.12,0,0,0,0,0,0,0,0,18,1811,2976,2680,2547,13,2981,3326,-1.8,3.836,9.278,-5.118,-1.778,1.038,0.733,-2.6,9.864,-0.076,0.103,0.088,angry
7.13,0,0,0,0,0,0,0,0,87,1763,3007,2805,2653,25,2911,3191,-2.025,5.638,11.253,-5.231,-2.191,0.849,0.776,-2.543,9.572,-0.043,0.1,0.078,angry
7.14,0,0,0,0,0,0,0,0,151,1867,3058,3019,2905,35,2971,2732,-1.01,8.176,14.392,-5.398,-2.556,0.747,0.311,-2.085,9.744,-0.01,0.033,0.07,angry
7.15,0,0,0,0,0,0,0,0,742,2139,2971,3336,3165,48,3007,2539,4.506,13.606,19.613,-5.231,-2.829,1.326,0.441,-2.227,9.991,-0.082,0.005,0.043,angry
7.16,0,0,0,0,0,0,0,0,1102,2130,3068,3340,3263,29,2983,2453,2.325,19.613,16.886,-5.188,-1.56,2.969,0.563,-2.124,9.991,-0.114,-0.022,0.029,angry
7.17,0,0,0,0,0,0,0,0,1659,2223,3091,3548,3431,47,2805,1881,-5.279,19.613,8.612,-3.892,-0.285,3.031,0.618,-2.66,9.725,-0.188,-0.033,0.013,angry
7.18,0,0,0,0,0,0,0,0,1999,2415,3130,3733,3447,47,2154,1148,-6.321,19.613,-9.167,-2.73,1.111,3.072,0.634,-2.495,9.759,-0.216,-0.015,0.01,angry
7.19,0,0,0,0,0,0,0,259,2264,2439,3140,3806,3187,46,1839,531,-19.613,19.613,-18.84,0.867,0.416,1.126,0.953,-2.579,9.898,-0.272,-0.013,0.006,angry
7.2,0,0,0,0,0,0,634,3358,2643,2671,3165,3913,2573,43,263,233,-18.924,-0.297,8.667,5.114,2.961,-1.901,-0.072,0.505,9.929,-0.838,0.038,-0.275,angry
7.21,0,0,0,0,0,0,1408,3888,2927,2679,3186,3870,677,19,42,135,-4.956,19.398,8.55,4.847,-0.324,-0.691,1.767,-1.147,9.127,-1.504,-0.188,-0.43,angry
7.22,0,0,0,0,578,0,2451,3887,2951,2683,3206,3928,159,9,17,142,-19.613,19.613,19.613,4.215,1.23,-1.524,3.237,-1.769,9.835,-1.915,-1.167,-0.495,angry
7.23,1409,365,0,0,896,0,2919,3824,2568,1685,3212,3861,91,5,6,37,0.457,5.492,17.487,0.762,1.15,-0.552,2.938,-3.249,10.573,-5.102,0.5,-0.074,angry
7.24,1586,1200,2320,525,1735,0,3155,3902,1141,0,3165,2167,0,0,0,7,1.13,4.918,9.737,-0.018,0.421,-0.177,4.903,-0.429,19.613,-8.731,-0.164,2.049,angry
7.25,1767,1582,2874,1517,2224,0,3318,3955,19,0,1845,941,0,0,0,0,0.12,3.886,8.775,0.086,0.439,-0.106,3.917,-13.616,19.613,-8.731,-0.031,3.079,angry
7.26,1872,1939,3143,2096,2479,50,3408,3969,0,69,0,0,0,0,0,0,0.419,3.876,9.436,0.06,0.076,0.005,9.847,-4.683,19.613,-3.353,1.69,3.966,angry
7.27,1975,2247,3303,2398,2723,128,3447,3934,0,0,0,0,11,0,0,0,0.105,3.847,9.507,0.037,0.071,0.004,8.358,11.574,19.613,0.345,-0.938,3.15,angry
7.28,2101,2373,3437,2593,2838,65,3440,3867,0,0,0,0,0,0,0,0,0.115,3.843,9.041,0.026,0.061,0.007,11.976,2.236,11.516,0.766,-0.42,2.945,angry
7.29,2199,2481,3531,2688,2964,0,3331,3747,0,0,0,0,0,0,0,1,0.4,3.572,9.328,0.077,0.08,-0.012,10.738,3.938,8.49,2.109,-0.162,1.209,angry
7.3,2201,2558,3578,2731,3010,0,3221,3663,0,0,0,0,0,0,0,27,0.294,3.716,9.426,0.078,0.071,-0.017,9.706,3.91,7.726,2.548,-0.53,0.241,angry
7.31,2270,2624,3618,2787,3013,0,3118,3566,45,0,0,0,0,0,0,0,0.196,3.577,9.414,0.094,0.078,-0.019,8.404,2.473,7.092,2.894,-1.018,-0.541,angry
7.32,2309,2732,3672,2864,2988,0,2886,3353,0,0,0,0,0,0,0,0,0.062,3.587,9.428,0.118,0.074,-0.015,5.595,-0.412,9.038,3.672,-1.564,-1.613,angry
7.33,2379,2799,3722,2933,2976,0,2499,3041,0,0,0,0,0,0,0,0,0.218,3.649,9.407,0.125,0.064,-0.025,4.506,-1.583,10.23,4.205,-1.633,-1.929,angry
7.34,2471,2867,3765,2997,3004,0,2289,2559,0,0,0,0,7,0,0,0,0.146,3.773,9.345,0.135,0.055,-0.02,1.817,-3.371,10.98,4.914,-1.842,-2.15,angry
7.35,2529,2966,3823,3088,3057,0,2104,2032,0,37,0,0,0,0,0,0,0.043,3.776,9.237,0.124,0.072,-0.014,0.16,-5.138,13.496,5.268,-2.121,-1.971,angry
7.36,2640,3035,3867,3201,3120,0,2022,1658,0,0,0,0,0,0,0,0,0.069,3.754,9.373,0.132,0.164,-0.012,-0.409,-5.746,15.328,5.334,-2.276,-1.763,angry
7.37,2768,3071,3917,3322,3231,0,1904,1122,12,0,0,0,0,0,0,0,0.031,3.764,9.282,0.147,0.176,-0.015,2.2,-12.112,19.613,5.388,-2.55,-1.615,angry
7.38,2950,3154,3963,3440,3246,0,1600,0,0,0,5,0,0,0,0,0,0.041,3.558,9.304,0.213,0.168,-0.003,0.402,-19.613,19.613,5.322,-1.758,-2.184,angry
7.39,3056,3218,3989,3510,3223,0,1438,0,0,0,0,0,0,0,0,0,-0.22,3.428,8.995,0.24,0.102,0.011,-4.594,-19.613,14.775,4.738,-1.18,-2.094,angry
7.4,3263,3344,4035,3627,3009,0,1114,0,0,0,0,0,0,0,0,0,-0.072,3.294,9.594,0.375,0.14,0.036,-7.999,-19.613,3.139,3.422,-1.1,-1.678,angry
7.41,3373,3453,4069,3673,2848,0,529,0,0,0,0,0,0,0,0,0,-0.048,3.038,9.189,0.541,0.088,0.073,-9.412,-19.613,-4.025,2.19,-1.184,-0.903,angry
7.42,3494,3547,4079,3725,2414,0,579,0,0,0,0,0,0,0,0,0,-0.354,2.588,9.867,0.838,0.166,0.266,-8.418,-19.613,-4.429,0.875,-1.34,-0.527,angry
7.43,3637,3623,4095,3760,1938,0,638,0,0,0,0,0,0,0,0,0,0.172,3.977,9.608,0.927,0.081,0.368,-5.61,-19.613,-4.48,-0.081,-1.333,-1.015,angry
7.44,3760,3685,4095,3781,1349,0,592,0,0,0,10,0,0,0,0,0,0.057,3.079,8.181,1.244,-0.069,0.494,0.994,-19.613,-16.489,-3.927,1.564,-2.193,angry
7.45,3888,3664,4095,3786,713,0,667,0,0,0,0,0,0,0,99,1196,0.541,2.059,9.799,2.284,-0.333,0.775,-19.613,19.613,19.613,-3.918,2.264,-0.09,angry
7.46,3958,3161,4095,3665,222,0,550,0,0,0,0,13,0,0,1415,3444,1.305,1.132,9.278,4.051,0.26,0.868,-5.468,-15.483,3.517,-5.811,-0.012,2.485,angry
7.47,3901,2518,3959,2665,0,0,0,0,0,3759,92,0,137,55,0,3763,-1.846,6.048,10.285,7.088,0.104,0.11,-19.613,-19.613,19.613,-0.968,4.936,0.961,angry
7.48,2948,1296,2951,680,0,0,0,0,0,57,365,0,425,0,3164,4020,3.369,9.56,19.613,8.731,-4.8,-2.565,1.058,-0.599,5.578,-0.195,0.734,0.194,angry
7.49,1174,0,0,0,0,0,0,0,7,843,2579,1289,975,5,3432,3989,5.227,19.613,18.311,8.731,-1.887,-3.701,0.283,-2.638,11.138,-0.126,0.275,0.156,angry
7.5,0,0,0,0,0,0,0,0,7,998,2480,1469,1319,11,3575,4009,-0.144,19.613,19.613,1.496,0.054,-3.5,1.008,-3.048,10.044,0.043,0.221,0.117,angry
7.51,0,0,0,0,0,0,0,0,3,1189,2797,1711,1799,4,3675,4020,11.983,-3.754,19.613,0.512,0.647,-2.181,1.053,-2.325,9.728,-0.009,0.142,0.119,angry
7.52,0,0,0,0,0,0,0,0,3,1289,2817,1895,2149,5,3757,4025,12.265,-1.422,14.799,-0.918,1.276,-1.732,1.085,-2.605,9.874,-0.004,0.11,0.101,angry
7.53,0,0,0,0,0,0,0,0,1,1471,2871,2159,2541,3,3829,4045,6.785,-2.459,8.827,-2.412,1.253,-0.769,0.821,-2.478,10.094,0.002,0.113,0.056,angry
7.54,0,0,0,0,0,0,0,0,2,1516,2889,2286,2651,1,3831,3987,4.994,-4.583,5.095,-2.629,0.963,-0.464,0.776,-2.421,9.701,0.031,0.091,0.037,angry
7.55,0,0,0,0,0,0,0,0,1,1639,2904,2333,2725,3,3806,3945,3.802,-3.972,4.19,-2.507,0.434,-0.122,0.883,-2.418,9.799,0.03,0.085,0.031,angry
7.56,0,0,0,0,0,0,0,0,2,1675,2915,2387,2729,0,3751,3887,3.56,-1.908,6.287,-2.674,-0.12,0.156,0.936,-2.349,9.809,0.005,0.079,0.038,angry
7.57,0,0,0,0,0,0,0,0,1,1721,2925,2421,2763,2,3692,3845,4.302,-0.124,7.453,-3.176,-0.491,0.39,0.955,-2.274,9.67,-0.033,0.079,0.052,angry
7.58,0,0,0,0,0,0,0,0,3,1733,2933,2447,2735,5,3623,3775,4.743,0.9,7.276,-3.702,-0.501,0.617,0.797,-2.334,9.608,-0.03,0.066,0.051,angry
7.59,0,0,0,0,0,0,0,0,29,1770,2894,2540,2735,3,3515,3593,4.161,1.968,7.254,-4.169,-0.424,0.824,0.632,-2.358,9.85,-0.058,0.059,0.071,angry
7.6,0,0,0,0,0,0,0,0,1,1805,2961,2617,2767,3,3412,3603,2.835,2.897,7.815,-4.538,-0.607,0.97,0.622,-2.411,9.867,-0.039,0.057,0.07,angry
7.61,0,0,0,0,0,0,0,0,3,1819,2984,2667,2840,3,3141,3477,2.32,3.512,7.918,-4.837,-0.892,1.059,0.737,-2.368,9.785,-0.077,0.07,0.079,angry
7.62,0,0,0,0,0,0,0,0,1,1880,2930,2725,2903,17,3096,3307,1.97,4.269,7.93,-4.984,-1.189,1.127,0.852,-2.509,9.809,-0.07,0.06,0.081,angry
7.63,0,0,0,0,0,0,0,0,1,1879,3037,2779,2980,2,3159,3149,1.465,5.009,8.66,-5.027,-1.433,1.14,0.855,-2.617,9.79,-0.046,0.061,0.081,angry
7.64,0,0,0,0,0,0,0,0,12,2012,3043,2859,3037,5,3112,2955,0.632,5.825,10.034,-4.972,-1.798,1.118,0.742,-2.519,9.673,-0.06,0.055,0.091,angry
7.65,0,0,0,0,0,0,0,0,17,2073,3061,2927,3143,5,3113,2859,0.67,7.111,13.001,-4.992,-2.142,1.025,0.929,-2.581,9.469,-0.054,0.068,0.088,angry
7.66,0,0,0,0,0,0,0,0,20,2132,3071,2988,3184,7,3119,2855,2.203,9.708,16.661,-5.043,-2.462,0.981,0.85,-2.811,9.625,-0.013,0.058,0.078,angry
7.67,0,0,0,0,0,0,0,0,105,2205,3071,3003,3262,23,3149,2840,6.567,15.596,19.41,-5.183,-2.522,1.294,1.025,-3.151,9.251,0.007,0.011,0.04,angry
7.68,0,0,0,0,0,0,0,0,326,2296,3094,3221,3406,47,3117,2681,5.454,19.613,11.614,-4.965,-1.264,2.827,0.678,-2.413,9.823,-0.044,-0.003,0.057,angry
7.69,0,0,0,0,0,0,0,0,691,2456,3094,3311,3479,50,3103,2509,-6.574,19.613,6.606,-2.913,-1.174,3.022,0.69,-2.459,9.699,-0.129,-0.018,0.047,angry
7.7,0,0,0,0,0,0,0,0,981,2535,3130,3587,3541,48,2921,2197,-9.278,19.613,1.717,-2.129,-1.143,2.398,0.661,-2.021,9.694,-0.2,-0.012,0.017,angry
7.71,0,0,0,0,0,0,0,0,1434,2739,3145,3717,3320,47,2035,716,-9.756,19.613,-18.112,0.832,-0.029,1.598,0.922,-2.811,9.922,-0.278,-0.021,0.028,angry
7.72,0,0,0,0,0,0,538,2474,1767,2841,3145,3783,2996,54,1288,523,-2.995,11.246,-14.566,0.724,2.098,0.542,0.972,-3.057,9.608,-0.116,-0.078,0.153,angry
7.73,0,0,0,0,0,0,1399,3802,2282,2985,3165,3845,1853,53,255,205,-19.613,5.667,17.787,5.108,-0.204,-0.798,2.313,-3.879,9.337,-0.871,0.183,-0.235,angry
7.74,0,0,0,0,450,0,2403,3837,2419,3049,3201,3737,239,13,73,47,19.613,18.943,8.303,4.09,1.833,-1.705,3.057,-0.273,8.406,-2.174,-0.963,-0.308,angry
7.75,1264,271,0,0,784,0,2902,3874,2251,2855,3247,3687,101,13,91,43,-17.731,-5.511,15.847,1.261,0.862,-0.53,0.323,0.251,12.447,-3.858,-1.621,-0.464,angry
7.76,1650,1044,1936,146,1535,0,3056,3874,1423,837,3263,2313,28,0,0,11,-1.815,4.688,10.159,0.081,0.517,-0.185,2.636,-0.091,15.069,-8.731,-1.482,1.22,angry
7.77,1669,1571,2755,1365,1959,0,3244,3945,123,0,0,60,0,0,0,0,-0.328,3.326,9.196,0.035,0.256,-0.077,2.559,-17.394,19.613,-8.731,-1.061,3.084,angry
7.78,1840,1766,3005,1965,2347,290,3366,3969,0,0,0,0,0,0,0,0,0.029,3.484,9.189,0.068,0.126,-0.039,6.472,-12.658,19.613,-8.422,-0.217,3.136,angry
7.79,1908,2059,3221,2341,2592,400,3441,3966,0,0,0,51,0,0,0,0,0.275,3.668,9.464,0.037,0.111,-0.023,-5.143,-9.041,19.613,-0.756,0.596,4.044,angry
7.8,2001,2156,3321,2483,2737,291,3459,3953,0,0,0,3,0,0,0,0,0.381,3.079,8.94,0.07,0.095,-0.001,8.945,2.375,9.493,1.589,-0.265,3.289,angry
7.81,2064,2300,3393,2559,2801,21,3399,3903,0,19,0,0,0,0,0,0,0.215,3.598,9.481,0.028,0.098,0.004,9.522,4.317,8.543,2.174,-0.236,2.699,angry
7.82,2094,2296,3431,2588,2814,0,3348,3846,0,0,0,1,0,0,0,0,0.397,3.622,9.538,0.033,0.104,-0.011,10.695,2.164,7.132,2.597,-0.002,1.765,angry
7.83,2112,2348,3451,2607,2793,0,3266,3793,0,0,0,0,0,0,0,0,0.278,3.462,9.182,0.046,0.115,-0.025,9.919,1.779,6.361,3.01,-0.184,0.809,angry
7.84,2139,2389,3467,2622,2736,0,3173,3741,0,0,0,0,0,0,0,0,0.12,3.536,9.373,0.06,0.104,-0.033,8.54,0.912,7.025,3.395,-0.487,-0.133,angry
7.85,2160,2382,3433,2640,2704,0,3087,3693,0,0,0,0,0,0,0,0,-0.036,3.524,9.354,0.066,0.087,-0.03,6.907,0.129,6.436,3.755,-0.942,-0.879,angry
7.86,2197,2386,3529,2686,2729,0,2962,3607,0,0,0,0,0,0,0,26,0.077,3.409,9.278,0.08,0.059,-0.03,4.432,-1.822,8.167,4.349,-1.46,-1.818,angry
7.87,2267,2398,3583,2752,2819,0,2813,3536,0,0,0,0,0,0,0,0,0.227,3.814,9.701,0.083,0.063,-0.046,1.765,-3.503,11.48,5.127,-1.546,-2.058,angry
7.88,2306,2431,3639,2837,2926,0,2787,3490,0,0,0,0,0,0,0,0,0.101,3.749,9.498,0.084,0.066,-0.029,0.663,-4.652,11.717,5.356,-1.798,-1.995,angry
7.89,2320,2510,3702,2956,3045,0,2768,3446,0,0,0,0,0,69,0,0,-0.072,3.316,9.383,0.13,0.124,-0.027,-0.17,-5.605,14.246,5.441,-2.116,-1.641,angry
7.9,2416,2640,3776,3111,3152,0,2675,3334,0,24,0,0,0,0,0,0,0.065,3.776,9.215,0.127,0.156,-0.025,3.148,-13.319,19.613,5.418,-2.356,-1.788,angry
7.91,2583,2737,3854,3277,3279,0,2559,2944,0,0,0,0,0,0,0,0,-0.072,3.57,9.395,0.131,0.169,-0.023,1.935,-18.488,19.613,5.319,-2.323,-2.43,angry
7.92,2817,2899,3911,3416,3370,0,2288,2272,0,0,0,0,0,0,0,0,-0.014,3.452,9.416,0.226,0.141,0.009,-4.82,-19.613,13.779,4.352,-1.216,-2.625,angry
7.93,3061,3034,3977,3549,3318,0,1519,0,0,0,0,0,0,0,0,17,0.302,3.445,9.857,0.411,0.131,0.042,-10.822,-19.613,-2.746,2.009,-1.325,-0.505,angry
7.94,3331,3266,4032,3658,2655,0,589,0,0,0,0,0,0,0,0,0,-0.192,3.46,9.12,0.788,0.114,0.218,-6.33,-19.613,-6.045,-0.404,-1.844,-0.462,angry
7.95,3568,3418,4079,3731,1772,0,586,0,0,0,0,0,0,0,0,0,0.206,4.822,9.457,1.311,0.081,0.492,-8.373,-19.613,-12.275,-2.543,2.476,-1.183,angry
7.96,3690,3500,4055,3751,1127,0,633,0,0,0,0,0,0,0,87,1407,-0.041,3.014,8.727,1.602,-0.135,0.618,-12.213,17.459,19.613,-2.178,2.973,1.051,angry
7.97,3822,3343,4087,3721,700,0,601,0,55,0,40,0,0,0,1184,3561,2.401,2.531,9.797,3.184,-0.418,0.879,-5.55,-5.018,2.267,-5.523,-0.211,1.799,angry
7.98,3770,2722,4031,3164,0,0,144,0,1,3772,74,0,16,16,0,3775,3.531,4.834,11.114,5.677,1.117,0.307,-19.613,-19.613,19.613,-3.358,7.331,5.428,angry
7.99,3409,1734,3445,1918,0,0,0,0,0,75,0,0,507,0,3111,3911,-2.464,-1.664,19.613,8.731,-1.609,-0.665,0.165,-2.248,19.613,-0.837,0.581,0.435,angry
8,1728,0,709,0,0,0,0,0,2,1082,2021,375,1063,13,3398,3978,-3.852,10.783,19.613,8.731,-2.61,-3.509,0.86,-1.453,9.852,-0.072,0.554,0.237,angry
8.01,0,0,0,0,0,0,0,0,6,1182,2433,1129,1303,6,3491,3997,11.179,-2.303,19.613,3.006,1.718,-4.077,0.661,-3.273,10.072,-0.007,0.424,0.147,angry
8.02,0,0,0,0,0,0,0,0,9,1357,2572,1619,1933,7,3631,4051,5.248,-3.929,19.597,0.064,0.778,-1.812,0.962,-2.88,10.036,0.021,0.141,0.071,angry
8.03,0,0,0,0,0,0,0,0,3,1435,2730,1736,2065,2,3725,4055,6.5,-1.848,11.882,-1.308,0.676,-1.699,0.922,-2.605,9.895,0.045,0.146,0.052,angry
8.04,0,0,0,0,0,0,0,0,2,1559,2720,1959,2159,2,3741,4057,5.701,-2.509,9.938,-2.076,0.66,-1.472,0.862,-2.521,9.898,0.045,0.119,0.039,angry
8.05,0,0,0,0,0,0,0,0,1,1595,2799,2007,2285,0,3755,4043,5.634,-3.275,4.939,-2.502,0.476,-1.105,0.804,-2.521,10.017,0.059,0.091,0.043,angry
8.06,0,0,0,0,0,0,0,0,2,1591,2812,2109,2375,26,3725,4019,4.65,-4.3,2.868,-2.38,0.167,-0.701,0.898,-2.315,9.764,0.028,0.115,0.043,angry
8.07,0,0,0,0,0,0,0,0,2,1653,2590,2187,2359,3,3631,3983,4.312,-3.196,3.62,-2.369,-0.303,-0.278,0.984,-2.313,9.795,-0.017,0.145,0.066,angry
8.08,0,0,0,0,0,0,0,0,4,1624,2861,2319,2365,5,3590,3933,4.822,-1.597,5.284,-2.666,-0.566,0.099,0.934,-2.399,9.752,-0.039,0.151,0.087,angry
8.09,0,0,0,0,0,0,0,0,6,1683,2874,2443,2281,3,3493,3913,4.872,-0.735,5.672,-3.125,-0.493,0.427,0.757,-2.55,9.697,-0.025,0.148,0.08,angry
8.1,0,0,0,0,0,0,0,0,11,1735,2879,2511,2235,4,3417,3852,3.687,-0.079,6.984,-3.507,-0.509,0.676,0.608,-2.464,9.764,-0.035,0.118,0.08,angry
8.11,0,0,0,0,0,0,0,0,10,1727,2935,2623,2251,5,3339,3799,2.351,1.348,8.258,-3.965,-0.811,0.91,0.611,-2.442,9.802,-0.033,0.119,0.082,angry
8.12,0,0,0,0,0,0,0,0,41,1711,2920,2693,2298,85,3273,3725,2.148,2.023,8.049,-4.389,-1.029,1.098,0.599,-2.507,9.756,-0.048,0.086,0.073,angry
8.13,0,0,0,0,0,0,0,0,12,1773,2940,2789,2421,70,3143,3620,1.709,2.854,8.157,-4.63,-1.162,1.235,0.752,-2.557,9.802,-0.046,0.075,0.059,angry
8.14,0,0,0,0,0,0,0,0,60,1805,3099,2872,2509,13,3068,3597,1.109,3.802,9.1,-4.775,-1.303,1.32,0.678,-2.547,9.823,-0.046,0.098,0.068,angry
8.15,0,0,0,0,0,0,0,0,57,1895,2971,2917,2629,18,3082,3533,0.421,4.741,10.676,-4.793,-1.635,1.387,0.536,-2.124,9.845,0,0.082,0.069,angry
8.16,0,0,0,0,0,0,0,0,261,1941,3027,3067,2871,105,3087,3375,2.571,7.336,14.813,-4.809,-2.128,1.599,0.333,-2.243,10.108,-0.041,0.05,0.041,angry
8.17,0,0,0,0,0,0,0,0,487,2028,3055,3134,2969,47,3065,3282,10.669,16.307,19.269,-4.663,-2.197,2.567,0.778,-2.849,9.558,-0.001,0.075,0.052,angry
8.18,0,0,0,0,0,0,0,0,825,2158,3063,3291,3133,50,3059,2957,5.009,19.613,14.751,-3.859,-1.392,4.411,0.816,-2.784,9.488,-0.008,0.039,0.037,angry
8.19,0,0,0,0,0,0,0,0,1163,2120,3078,3533,3229,73,2847,2604,2.636,19.613,7.111,-3.571,0.261,4.258,0.632,-2.665,9.522,-0.051,-0.006,0.042,angry
8.2,0,0,0,0,0,0,193,0,1107,2211,3130,3635,3244,48,2803,2379,-10.178,19.613,-15.524,-0.474,0.722,3.106,0.563,-2.322,10.132,-0.132,-0.009,0.021,angry
8.21,0,0,0,0,0,0,571,2588,1461,2327,3099,3683,3028,47,1837,1593,-11.432,19.613,-19.613,4.335,-0.892,3.409,0.448,-2.662,9.735,-0.261,-0.019,-0.03,angry
8.22,0,0,0,0,7,0,1757,3722,1811,2257,3130,3881,2232,47,370,613,-19.613,-1.942,19.613,3.705,2.305,-1.853,0.74,-1.733,9.977,-0.38,0.073,-0.109,angry
8.23,0,0,0,0,646,0,2662,3809,1926,2396,3140,3913,1112,23,8,262,16.776,19.613,-3.402,3.317,3.269,-2.952,0.931,-1.939,9.728,-0.951,0.138,-0.341,angry
8.24,1424,880,279,0,1328,0,2977,3715,1779,1776,3112,3967,119,7,7,123,-16.237,-11.459,0.991,0.602,1.425,-0.782,1.92,-1.937,10.47,-2.144,-1.118,-0.673,angry
8.25,1606,1742,2670,1379,2115,0,3152,3761,1968,447,3212,3350,0,2,1,135,-1.36,5.76,11.248,0.122,0.356,-0.181,1.063,-4.003,10.388,-4.03,0.331,0.758,angry
8.26,1849,1942,3114,2174,2559,0,3312,3803,1891,12,3163,2858,0,117,0,62,0.35,3.685,9.404,0.118,0.046,-0.054,0.694,4.271,16.786,-5.88,-0.425,1.915,angry
8.27,2147,2147,3289,2448,2906,0,3417,3804,717,0,0,10,0,0,0,0,-1.056,2.126,9.847,0.092,0.1,0.004,-2.483,-11.418,19.613,-6.845,-0.744,3.148,angry
8.28,2373,2378,3391,2587,3151,0,3458,3785,0,37,0,0,1,0,0,0,0.443,4.015,9.764,0.102,0.038,-0.017,-2.157,5.315,12.996,-1.804,-0.236,5.017,angry
8.29,2480,2480,3502,2710,3234,0,3425,3696,0,0,0,0,13,0,0,0,0.421,3.79,9.452,0.116,0.003,-0.04,-3.44,-7.041,19.613,-0.565,-0.435,4.436,angry
8.3,2591,2587,3583,2816,3325,0,3280,3579,0,0,0,1,0,0,0,0,0.244,3.74,9.402,0.09,0.097,-0.046,7.798,0.467,7.537,1.122,-0.867,3.797,angry
8.31,2704,2634,3617,2839,3302,0,3184,3489,0,0,0,0,0,0,0,0,0.211,3.919,9.397,0.096,0.08,-0.034,8.21,1.966,5.715,1.27,-0.899,2.945,angry
8.32,2798,2670,3645,2898,3277,0,3067,3393,0,0,7,25,0,0,0,0,0.287,3.56,9.347,0.085,0.092,-0.025,7.846,1.784,5.157,1.398,-1.096,1.86,angry
8.33,2895,2688,3671,2950,3237,0,2934,3248,0,9,0,17,0,0,0,0,0.196,3.654,9.301,0.086,0.091,-0.027,6.67,2.184,5.193,1.513,-1.383,0.874,angry
8.34,2961,2715,3697,2994,3188,0,2770,3085,0,0,0,0,0,0,0,23,0.175,3.627,9.301,0.129,0.055,-0.014,5.653,2.315,5.555,1.746,-1.527,0.062,angry
8.35,3002,2775,3722,3024,3146,0,2636,2908,0,0,17,0,0,0,0,0,0.206,3.73,9.371,0.117,0.092,-0.025,3.962,2.241,5.619,2.029,-1.53,-0.573,angry
8.36,3115,2806,3760,3103,3055,0,2209,2503,0,0,0,0,0,0,0,0,0.113,3.768,9.201,0.12,0.126,-0.018,0.11,1.355,7.477,2.591,-1.3,-1.18,angry
8.37,3136,2844,3783,3152,2978,0,2036,2315,0,3,0,0,0,0,0,0,0.072,3.675,9.167,0.116,0.128,-0.014,-2.952,1.082,9.311,2.849,-1.455,-1.096,angry
8.38,3247,2825,3824,3259,3025,0,1973,2165,0,0,0,0,0,0,0,0,0.019,3.699,9.179,0.104,0.135,-0.006,-5.988,0.539,11.219,3.114,-1.871,-0.674,angry
8.39,3360,2864,3854,3359,3143,0,1878,2071,0,0,0,0,3,0,0,0,0.072,3.821,9.249,0.096,0.152,-0.007,-8.126,-2.466,14.509,3.869,-2.026,0.868,angry
8.4,3447,2869,3888,3456,3184,0,1742,1808,0,0,0,3,0,0,0,0,-0.05,3.723,9.57,0.138,0.155,-0.003,-7.451,-7.882,13.736,4.056,-2.346,2.255,angry
8.41,3506,2914,3924,3559,3098,0,1511,1146,0,55,0,0,14,10,0,0,0.031,3.725,9.462,0.212,0.114,0.011,-7.573,-11.959,13.695,3.857,-2.619,2.553,angry
8.42,3611,2992,3962,3647,2784,0,1102,0,0,0,0,0,0,60,0,0,0.048,3.723,9.471,0.273,0.096,0.032,-13.048,-19.247,9.555,2.779,-3.51,3.224,angry
8.43,3663,3051,3983,3703,2641,0,735,0,0,0,0,0,0,0,0,0,0.053,3.771,9.086,0.347,0.033,0.078,-14.128,-19.613,4.391,1.872,-3.772,3.567,angry
8.44,3719,3084,4000,3745,2445,0,478,0,0,0,0,0,33,0,0,0,0.086,3.737,9.285,0.399,0.055,0.108,-11.547,-19.613,3.464,1.262,-3.094,3.771,angry
8.45,3762,3120,4006,3787,1986,0,431,0,0,0,0,0,0,0,0,0,0.182,3.455,9.062,0.537,0.061,0.188,-6.428,-18.318,5.313,-1.796,-1.949,2.559,angry
8.46,3821,3127,4037,3833,1571,0,336,0,0,0,0,0,0,0,0,0,0.278,3.46,9.414,0.737,0.094,0.345,0.939,-19.613,-1.271,-0.998,2.742,2.363,angry
8.47,3856,3113,4041,3874,1215,0,341,0,0,0,0,0,0,0,0,0,0.141,3.33,9.584,0.938,0.07,0.452,-4.786,-11.133,-0.086,-0.564,4.615,1.868,angry
8.48,3903,3056,4048,3888,893,0,157,0,0,19,0,0,0,0,763,217,-0.036,3.496,9.366,1.051,0.097,0.561,-19.613,19.613,19.613,-4.206,-2.994,3.463,angry
8.49,3952,2697,4030,3869,303,0,0,0,0,0,227,19,37,0,2109,2847,2.215,3.721,9.742,1.71,0.218,0.838,5.176,-13.64,12.591,-0.719,0.247,0.524,angry
8.5,3961,2107,3941,3669,0,0,0,0,42,0,2106,975,69,0,2379,3325,2.717,4.664,10.855,2.693,0.674,0.801,-1.827,-6.007,14.806,-0.141,-0.025,0.234,angry
8.51,3919,683,3318,2803,0,0,0,0,1,159,2677,1727,219,0,2836,3541,0.132,2.308,11.035,3.963,1.811,0.063,0.764,-2.933,10.314,-0.201,0.006,0.054,angry
8.52,3557,0,1370,875,0,0,0,0,7,919,2815,1955,529,10,3101,3635,-1.666,17.767,19.613,6.177,-0.382,-1.425,0.79,-2.356,9.804,-0.089,0.082,0.08,angry
8.53,2073,0,0,0,0,0,0,0,11,1041,2751,2221,633,9,3239,3689,8.88,8.09,19.563,4.08,1.678,-2.919,0.453,-2.444,9.728,-0.084,0.082,0.088,angry
