timestamp,L1,L2,L3,L4,L5,L6,L7,L8,R1,R2,R3,R4,R5,R6,R7,R8,acc_x_left,acc_y_left,acc_z_left,gyro_x_left,gyro_y_left,gyro_z_left,acc_x_right,acc_y_right,acc_z_right,gyro_x_right,gyro_y_right,gyro_z_right,mood
0,2359,2256,2986,2800,506,0,2130,3379,377,1203,2034,2453,26,5,1939,2869,0.124,3.68,9.385,0.056,0.037,-0.018,0.539,-2.837,9.644,0.03,0.026,0.015,angry
0.01,2626,2375,3270,2864,582,0,2365,3458,453,1165,2369,2478,11,10,1973,2935,0.101,3.634,9.27,0.053,0.03,-0.013,0.498,-2.868,9.723,0.035,0.018,0.014,angry
0.02,2639,2390,3281,2865,630,0,2365,3450,383,1135,2280,2489,21,6,1957,3033,0.084,3.658,9.304,0.052,0.022,-0.008,0.486,-2.725,9.649,0.017,0.01,0.018,angry
0.03,2641,2407,3287,2863,511,0,2373,3439,398,1183,2321,2519,12,5,1939,3055,0.062,3.649,9.316,0.049,0.026,-0.006,0.498,-2.837,9.689,-0.006,0.01,0.017,angry
0.04,2412,2171,3113,2559,432,0,2175,3152,423,1298,2354,2543,21,9,1973,3101,0.122,3.687,9.325,0.049,0.029,-0.012,0.496,-2.844,9.816,-0.001,0.028,0.018,angry
0.05,2645,2413,3287,2859,469,0,2346,3430,412,1273,2362,2519,10,4,2011,3133,0.153,3.651,9.349,0.051,0.023,-0.007,0.491,-2.89,9.706,0.014,0.03,0.016,angry
0.06,2641,2407,3285,2860,527,0,2328,3399,407,1299,2357,2493,19,5,2071,3143,0.122,3.673,9.33,0.061,0.027,-0.013,0.493,-2.842,9.644,0.015,0.03,0.017,angry
0.07,2655,2411,3279,2855,557,0,2299,3394,410,1298,2316,2505,13,7,2101,3261,0.079,3.675,9.278,0.054,0.033,-0.012,0.474,-2.89,9.802,-0.005,0.014,0.018,angry
0.08,2662,2413,3286,2864,531,0,2288,3407,409,1300,2515,2484,24,8,2133,3193,0.067,3.658,9.313,0.051,0.027,-0.009,0.464,-2.883,9.72,0.006,0.023,0.016,angry
0.09,2669,2416,3294,2862,362,0,2272,3367,403,1321,2505,2543,24,7,2136,3199,0.127,3.704,9.349,0.052,0.03,-0.01,0.469,-2.835,9.694,0.009,0.024,0.015,angry
0.1,2671,2434,3298,2873,416,0,2304,3387,377,1321,2490,2568,21,7,2151,3218,0.036,3.701,9.306,0.048,0.026,-0.012,0.484,-2.868,9.663,0.008,0.024,0.02,angry
0.11,2671,2443,3296,2869,493,0,2336,3406,405,1264,2190,2577,19,7,2166,3231,0.103,3.68,9.323,0.038,0.024,-0.001,0.481,-2.907,9.723,0.019,0.013,0.018,angry
0.12,2673,2449,3291,2875,503,0,2374,3433,404,923,2403,2511,5,3,2166,3229,0.038,3.706,9.354,0.033,0.035,-0.006,0.496,-3.026,9.689,0.052,0.001,-0.006,angry
0.13,2640,2405,3216,2854,548,0,2384,3456,275,467,2019,1944,28,11,2100,3245,0.144,3.689,9.299,0.023,0.035,-0.009,0.63,-2.974,9.864,0.047,-0.04,-0.031,angry
0.14,2623,2299,3184,2813,605,0,2451,3499,75,187,350,1148,0,0,2152,3282,0.105,3.73,9.409,0.016,0.05,-0.011,0.601,-3.194,9.732,0.032,-0.067,-0.041,angry
0.15,2533,2065,3046,2723,585,0,2482,3536,0,106,0,794,0,0,2181,3303,0.062,3.639,9.316,0.01,0.058,-0.003,0.338,-2.634,9.5,0.027,-0.049,-0.015,angry
0.16,2426,1866,2930,2626,464,0,2482,3549,5,0,0,220,0,0,2117,3348,0.124,3.642,9.304,0.026,0.05,-0.011,0.584,-2.883,9.515,0.04,-0.038,-0.015,angry
0.17,2290,1686,2861,2495,419,0,2496,3568,11,45,0,62,0,0,2055,3373,0.144,3.57,9.311,0.047,0.053,-0.013,0.517,-2.749,9.634,0.06,0.018,0,angry
0.18,2256,1473,2800,2320,227,0,2480,3568,5,0,0,57,0,0,2015,3400,0.101,3.606,9.369,0.058,0.052,-0.009,0.553,-2.701,9.618,0.056,0.033,0.01,angry
0.19,2229,1297,2743,2227,282,0,2421,3557,0,0,0,187,0,0,2084,3449,-0.002,3.572,9.282,0.066,0.047,-0.014,0.46,-2.622,9.582,0.018,0.064,0.04,angry
0.2,2205,1189,2674,2134,63,0,2259,3517,0,0,46,851,0,0,2059,3495,0.029,3.519,9.239,0.086,0.03,-0.004,0.474,-2.866,9.768,0.009,0.119,0.05,angry
0.21,2224,1168,2717,2190,16,0,1835,3375,68,61,66,1263,24,0,2118,3516,0.117,3.673,9.443,0.124,0,0.001,0.594,-2.782,9.618,0.012,0.126,0.046,angry
0.22,2211,1225,2719,2174,0,0,976,2882,75,263,1661,1801,29,7,2311,3756,0.115,3.689,9.397,0.167,-0.048,0.022,0.603,-2.796,9.656,0.055,0.109,0.031,angry
0.23,2288,1441,2832,2217,0,0,102,1353,135,399,2070,2076,47,17,2628,3609,0.541,3.223,9.577,0.275,-0.079,0.062,0.496,-2.842,9.608,0.083,0.067,0.019,angry
0.24,2348,1583,2923,2112,0,0,0,0,115,409,2162,2169,9,3,2776,3641,-0.931,2.962,9.802,0.62,-0.147,-0.043,0.551,-2.713,9.72,0.096,0.079,0.018,angry
0.25,2359,1327,2847,1517,0,0,0,0,157,396,2308,2480,88,18,3068,3753,0.79,2.82,10.044,1.371,-0.22,-0.119,0.479,-2.571,9.661,0.04,0.044,0.039,angry
0.26,2339,511,2355,432,0,0,0,0,233,653,2531,2429,48,27,3208,3879,0.318,2.492,12.356,1.88,-0.205,-0.347,0.426,-2.516,9.754,0.013,0.051,0.031,angry
0.27,2145,0,0,0,0,0,0,0,233,781,2567,2514,58,18,3245,3992,0.761,0.934,14.461,2.202,-0.303,-1.051,0.378,-2.672,9.787,0.037,0.034,0.037,angry
0.28,161,0,0,0,0,0,0,0,277,935,2674,2557,85,0,3263,3876,2.212,-1.293,13.42,1.732,-0.324,-1.789,0.405,-2.737,9.716,0.008,0.025,0.021,angry
0.29,0,0,0,0,0,0,0,0,285,947,2684,2581,141,28,3323,3880,3.685,-0.91,13.364,1,-0.03,-2.069,0.366,-2.686,9.716,0.014,0.025,0.02,angry
0.3,0,0,0,0,0,0,0,0,299,1059,2659,2619,122,29,3339,3789,2.428,0.615,16.838,-0.106,-0.369,-1.213,0.402,-2.677,9.651,0.006,0.02,0.018,angry
0.31,0,0,0,0,0,0,0,0,295,1145,2556,2665,139,33,3356,3879,4.592,-2.368,9.538,-1.014,-0.495,-0.55,0.426,-2.598,9.756,-0.032,0.022,0.031,angry
0.32,0,0,0,0,0,0,0,0,317,1205,2531,2660,138,64,3357,3868,2.425,-1.125,9.55,-1.253,-0.571,0.068,0.484,-2.753,9.711,-0.03,0.03,0.03,angry
0.33,0,0,0,0,0,0,0,0,373,1241,2853,2699,100,27,3349,3849,1.645,0.371,9.512,-1.542,-0.463,0.415,0.438,-2.768,9.718,-0.031,0.042,0.041,angry
0.34,0,0,0,0,0,0,0,0,421,1195,2925,2711,105,26,3335,3849,0.558,1.616,10.218,-1.702,-0.404,0.498,0.405,-2.744,9.732,-0.024,0.049,0.037,angry
0.35,0,0,0,0,0,0,0,0,374,1367,2902,2772,155,36,3326,3903,0.278,2.957,9.785,-1.929,-0.433,0.497,0.373,-2.689,9.711,-0.017,0.049,0.029,angry
0.36,0,0,0,0,0,0,0,0,308,1320,2904,2799,140,31,3321,3847,1.465,3.608,8.756,-1.893,-0.319,0.516,0.381,-2.691,9.692,-0.018,0.059,0.03,angry
0.37,0,0,0,0,0,0,0,0,361,1317,2915,2823,173,41,3315,3837,3.704,4.673,7.319,-1.714,0.049,0.669,0.4,-2.698,9.661,-0.021,0.054,0.037,angry
0.38,0,0,0,0,0,0,0,0,407,1354,2915,2864,174,38,3294,3835,5.301,6.766,7.08,-1.438,0.392,1.064,0.371,-2.708,9.634,-0.03,0.058,0.04,angry
0.39,0,0,0,0,0,0,0,0,383,1399,2920,2901,170,37,3275,3825,5.847,9.342,9.079,-1.187,0.443,1.677,0.402,-2.758,9.685,-0.03,0.062,0.03,angry
0.4,0,0,0,0,0,0,0,0,383,1399,2920,2901,170,37,3275,3825,3.187,12.419,9.78,-1.313,0.264,2.417,0.402,-2.758,9.685,-0.03,0.062,0.03,angry
0.41,0,0,0,0,0,0,0,0,431,1583,2869,2988,285,45,3193,3787,0.433,12.452,6.864,-1.315,0.203,2.827,0.378,-2.722,9.658,-0.042,0.065,0.037,angry
0.42,0,0,0,0,0,0,0,0,412,1641,2886,3047,264,46,3099,3629,-3.148,12.584,5.025,-1.042,0.204,2.827,0.328,-2.677,9.718,-0.047,0.066,0.039,angry
0.43,0,0,0,0,0,0,0,0,507,1597,2966,3083,332,47,2940,3695,-9.335,15.263,0.86,0.128,1.184,1.633,0.364,-2.71,9.73,-0.059,0.064,0.041,angry
0.44,0,0,0,0,0,0,0,1083,585,1790,3004,3145,411,47,2869,3751,-10.144,16.427,-2.387,1.32,0.141,0.948,0.438,-2.828,9.704,-0.077,0.084,0.039,angry
0.45,0,0,0,0,0,0,384,2396,827,2056,3063,3270,453,45,2604,3359,-1.954,7.762,19.613,0.937,2.221,-1.539,0.467,-2.89,9.622,-0.097,0.11,0.046,angry
0.46,0,0,0,0,0,0,1079,2974,1270,2135,3135,3413,335,45,2263,2571,-0.946,-1.542,2.231,1.631,0.569,-0.593,0.517,-2.626,9.761,-0.11,0.122,0.043,angry
0.47,400,0,0,0,0,0,1605,3151,1395,2237,3171,3493,227,51,1677,1751,-7.587,2.128,-4.12,-0.223,-0.391,0.301,0.402,-2.574,9.603,-0.175,0.07,0.026,angry
0.48,1317,0,558,309,224,0,1914,3332,1621,2395,3222,3596,21,6,313,380,-0.962,3.412,10.891,0.18,0.075,-0.133,0.57,-1.697,10.005,-0.457,-0.074,-0.091,angry
0.49,1603,684,2210,1474,341,0,2279,3459,2029,2146,3222,3637,0,0,0,91,-0.254,3.68,9.577,0.017,0.047,0.023,0.855,-2.33,9.778,-1.816,-0.351,-0.326,angry
0.5,1760,1455,2656,1991,502,0,2709,3543,2098,1703,3212,3629,0,0,12,0,0.17,3.601,9.316,0.034,-0.002,0.003,0.041,-2.83,9.749,-2.019,-0.223,-0.547,angry
0.51,1859,1856,2896,2256,859,0,2914,3599,2332,629,3078,3400,0,0,0,0,0.306,3.546,9.275,0.021,0.006,-0.002,2.495,-1.343,9.852,-3.167,0.457,-0.057,angry
0.52,1982,2140,3109,2416,1355,0,3086,3633,1577,0,0,1696,0,0,0,0,0.089,3.615,9.524,0.032,0.019,-0.018,4.408,-1.791,18.32,-5.342,0.584,0.974,angry
0.53,2106,2357,3248,2539,1893,180,3198,3661,1087,0,25,725,0,0,0,0,0.177,3.608,9.481,0.022,0.032,-0.007,1.595,-4.824,18.296,-5.824,1.193,2.194,angry
0.54,2165,2521,3330,2626,2130,417,3245,3675,0,0,0,0,0,0,0,0,0.268,3.587,9.448,0.034,0.03,-0.013,3.01,1.044,17.806,-2.841,2.153,2.742,angry
0.55,2142,2546,3347,2661,2226,443,3190,3618,0,0,0,0,0,0,0,0,0.383,3.606,9.469,0.051,0.034,-0.019,5.234,-0.474,17.729,-0.839,0.453,1.024,angry
0.56,2244,2704,3456,2755,2417,429,3275,3651,0,0,0,0,0,0,0,0,0.194,3.713,9.507,0.047,0.042,-0.014,7.506,1.226,10.072,-0.161,0.233,1.122,angry
0.57,2252,2770,3425,2788,2485,148,3184,3583,0,0,0,0,77,0,0,0,0.352,3.687,9.44,0.073,-0.001,0.003,6.337,1.499,9.493,0.776,-0.057,0.492,angry
0.58,2316,2864,3541,2849,2544,0,3223,3573,0,0,0,0,0,0,0,0,0.065,3.646,9.369,0.056,0.031,-0.01,6.812,1.518,7.518,1.533,-0.564,-0.369,angry
0.59,2336,2907,3562,2878,2559,0,3210,3537,0,0,0,0,0,0,0,0,0.184,3.57,9.4,0.054,0.039,-0.012,5.789,1.025,7.482,1.807,-0.767,-0.8,angry
0.6,2281,2790,3493,2757,2464,0,3113,3329,0,0,0,0,0,0,0,0,0.089,3.563,9.292,0.055,0.029,-0.013,4.911,0.237,8.04,2.065,-1.017,-1.165,angry
0.61,2362,2961,3610,2907,2623,0,3153,3479,0,0,69,0,0,0,0,0,0.127,3.677,9.517,0.063,0.019,-0.019,4.405,-0.73,8.854,2.346,-1.176,-1.444,angry
0.62,2390,3023,3635,2937,2695,0,3114,3419,0,0,0,0,0,0,0,0,0.146,3.486,9.282,0.08,0.024,-0.021,3.311,-1.446,9.459,2.654,-1.162,-1.635,angry
0.63,2454,3071,3667,2986,2779,0,3041,3332,0,0,0,0,0,0,0,0,0.239,3.613,9.361,0.107,0,-0.012,0.285,-2.382,10.599,3.077,-1.292,-1.562,angry
0.64,2518,3119,3712,3062,2874,0,2955,3237,0,0,0,0,0,0,0,0,0.35,3.721,9.651,0.096,0.029,-0.019,-0.584,-3.275,12.524,3.34,-1.782,-1.119,angry
0.65,2640,3185,3762,3135,2972,0,2846,3120,0,0,0,0,0,0,0,0,0.156,3.555,9.27,0.126,0.011,-0.022,-0.132,-4.159,14.008,3.524,-1.84,-0.908,angry
0.66,2683,3215,3757,3122,2992,0,2629,2816,0,0,0,0,18,0,0,0,0.146,3.589,9.464,0.126,0.052,-0.029,2.064,-5.954,13.994,3.7,-1.709,-0.767,angry
0.67,2826,3287,3759,3243,3039,0,2441,2112,0,0,0,0,0,0,0,0,0.223,3.62,9.301,0.139,0.059,-0.036,2.545,-11.904,15.658,3.394,-1.668,-1.446,angry
0.68,2928,3381,3823,3374,3011,0,2121,1083,0,0,130,0,0,0,0,0,0.01,3.649,9.06,0.127,0.072,-0.026,1.185,-15.883,15.019,3.186,-1.764,-1.85,angry
0.69,3019,3497,3906,3456,2919,0,1920,10,0,0,0,0,0,0,0,0,-0.115,3.349,9.072,0.219,0.088,0.013,-1.879,-19.613,4.233,1.937,-1.814,-2.303,angry
0.7,3100,3606,3937,3532,2736,0,1289,0,0,0,0,0,0,0,0,0,-0.031,3.819,9.172,0.289,0.196,0.039,-6.869,-19.613,0.51,0.228,-1.584,-1.745,angry
0.71,3163,3662,3952,3568,2672,0,857,0,0,0,0,0,0,0,0,0,-0.007,2.887,8.851,0.449,0.203,0.105,-4.587,-19.613,-1.142,-1.268,-0.607,-1.604,angry
0.72,3285,3735,3981,3631,2225,0,302,0,0,0,0,0,0,0,0,0,0.072,3.179,8.82,0.659,0.204,0.17,-6.349,-19.613,-2.931,-1.688,1.532,-1.247,angry
0.73,3329,3707,3905,3583,1735,0,320,0,0,0,0,0,0,0,0,0,0.596,3.95,9.615,0.851,0.231,0.3,-2.085,-2.717,5.916,-1.188,3.368,-0.166,angry
0.74,3467,3748,3984,3666,1097,0,462,0,0,0,0,0,0,4,47,4,0.385,3.45,9.481,1.159,0.147,0.46,-6.785,-6.127,17.245,-0.801,3.299,0.226,angry
0.75,3460,3648,3946,3531,351,0,464,0,30,0,23,0,0,0,489,1042,0.924,3.182,9.299,1.568,0.13,0.582,-0.464,8.095,17.071,-2.425,0.858,-0.112,angry
0.76,3685,3482,3978,3695,109,0,230,0,0,0,0,0,0,0,1349,2699,1.288,3.675,9.325,2.526,0.315,0.779,-0.613,-7.463,12.306,-3.387,-0.368,1.238,angry
0.77,3744,2938,3937,3622,0,0,0,0,0,0,0,0,0,0,2201,3417,0.996,3.582,8.416,3.364,0.682,0.658,1.192,-14.564,19.613,-0.049,1.094,0.34,angry
0.78,3746,2793,3902,3475,0,0,0,0,0,0,0,0,0,0,2646,3554,0.857,4.202,8.475,4.169,0.723,0.405,-0.558,-1.719,7.604,0.208,2.22,0.579,angry
0.79,3687,2554,3758,2822,0,0,0,0,0,0,0,0,0,0,2735,3667,1.417,4.554,12.153,5.012,0.57,0.139,0.548,-4.709,14.619,0.14,0.954,0.148,angry
0.8,3608,2070,3344,2466,0,0,0,0,0,0,0,29,22,0,2825,3684,2.593,6.524,16.723,6.554,-0.598,-0.591,1.899,-2.861,10.975,0.035,0.835,0.201,angry
0.81,2778,149,1870,731,0,0,0,0,0,147,0,0,56,0,2923,3727,-3.826,12.024,14.696,8.361,-1.806,-2.034,-0.12,-1.669,9.215,0.017,0.564,0.177,angry
0.82,1462,0,0,0,0,0,0,0,0,377,1451,239,16,0,3193,3847,-0.46,17.368,14.49,7.801,-1.74,-2.112,1.178,-2.873,10.132,-0.03,0.299,0.21,angry
0.83,0,0,0,0,0,0,0,0,1,1161,2436,845,23,0,3275,3900,6.747,4.207,19.613,2.068,-0.369,-3.695,0.611,-2.483,9.706,0.047,0.186,0.107,angry
0.84,0,0,0,0,0,0,0,0,0,1225,2520,1051,77,1,3351,3925,5.574,4.547,19.613,0.337,-0.102,-1.589,0.661,-2.612,9.867,0.053,0.168,0.051,angry
0.85,0,0,0,0,0,0,0,0,0,1375,2602,1141,99,0,3530,3929,7.257,2.523,14.605,-0.885,0.275,-1.698,0.991,-2.416,9.795,0.048,0.181,0.045,angry
0.86,0,0,0,0,0,0,0,0,1,1509,2684,1205,137,1,3448,3812,4.961,-1.939,11.619,-1.685,0.41,-1.398,0.898,-2.43,9.895,0.015,0.141,0.052,angry
0.87,0,0,0,0,0,0,0,0,1,1547,2730,1245,135,2,3480,3926,4.836,-1.233,8.078,-1.915,0.092,-1.091,0.845,-2.406,9.778,0.013,0.123,0.049,angry
0.88,0,0,0,0,0,0,0,0,6,1591,2761,1306,160,1,3491,3899,5.052,-1.322,7.606,-2.16,-0.227,-0.734,0.651,-2.464,9.792,-0.018,0.08,0.075,angry
0.89,0,0,0,0,0,0,0,0,0,1606,2776,1431,234,1,3495,3853,5.863,-0.414,7.537,-2.486,-0.395,-0.321,0.52,-2.5,9.692,-0.016,0.047,0.069,angry
0.9,0,0,0,0,0,0,0,0,0,1694,2899,1506,213,2,3507,3773,6.103,0.996,8.145,-2.877,-0.35,0.121,0.63,-2.38,9.802,-0.031,0.046,0.053,angry
0.91,0,0,0,0,0,0,0,0,0,1827,2933,1613,253,1,3465,3675,5.523,2.696,8.674,-3.344,-0.243,0.526,0.704,-2.512,9.919,-0.052,0.037,0.062,angry
0.92,0,0,0,0,0,0,0,0,1,1915,2961,1751,311,47,3444,3515,4.499,3.666,8.078,-3.848,-0.165,0.847,0.816,-2.526,9.807,-0.056,0.039,0.062,angry
0.93,0,0,0,0,0,0,0,0,0,1973,3025,1891,378,2,3426,3318,3.541,4.017,6.931,-4.099,-0.205,1.047,0.749,-2.37,9.67,-0.058,0.04,0.073,angry
0.94,0,0,0,0,0,0,0,0,0,1957,3027,2063,525,2,3404,3246,2.684,4.752,7.029,-4.171,-0.366,1.162,0.603,-2.358,9.725,-0.106,0.041,0.097,angry
0.95,0,0,0,0,0,0,0,0,1,2027,3050,2195,846,7,3358,3207,2.085,5.981,7.863,-4.202,-0.641,1.248,0.675,-2.351,9.62,-0.14,0.045,0.117,angry
0.96,0,0,0,0,0,0,0,0,0,2123,3058,2379,1077,3,3309,3190,2.282,7.058,8.545,-4.262,-0.844,1.309,0.706,-2.65,9.855,-0.142,0.063,0.133,angry
0.97,0,0,0,0,0,0,0,0,8,2252,3099,2571,1325,0,3215,3079,2.449,7.568,8.935,-4.293,-0.865,1.386,0.579,-2.662,9.936,-0.123,0.063,0.126,angry
0.98,0,0,0,0,0,0,0,0,63,2381,3155,2693,1719,5,3155,3051,2.081,7.879,9.878,-4.282,-0.909,1.502,0.524,-2.607,9.886,-0.106,0.068,0.111,angry
0.99,0,0,0,0,0,0,0,0,0,2479,3206,2871,2057,11,3107,2924,1.279,8.147,11.198,-4.206,-1.034,1.563,0.503,-2.49,9.704,-0.113,0.068,0.106,angry
1,0,0,0,0,0,0,0,0,104,2635,3214,2935,2259,24,3016,2888,0.251,8.758,13.319,-4.121,-1.313,1.532,0.637,-2.634,9.694,-0.125,0.057,0.104,angry
1.01,0,0,0,0,0,0,0,0,152,2699,3201,3097,2411,37,3015,2747,0.931,12.28,16.285,-4.07,-1.761,1.359,0.582,-2.552,9.783,-0.138,0.077,0.107,angry
1.02,0,0,0,0,0,0,0,0,341,2893,3299,3301,2719,69,2997,2279,1.128,19.18,12.692,-4.038,-1.504,1.461,0.582,-2.789,9.84,-0.125,0.091,0.073,angry
1.03,0,0,0,0,0,0,0,0,776,3113,3306,3485,2961,51,2919,1599,-5.143,19.613,9.409,-3.338,-1.441,1.43,0.4,-2.473,9.629,-0.075,0.047,0.08,angry
1.04,0,0,0,0,0,0,0,0,1065,3181,3304,3576,3022,45,2919,677,-7.266,19.613,1.46,-2.495,-1.309,1.523,0.479,-2.631,10.072,-0.136,0.084,0.063,angry
1.05,0,0,0,0,0,0,0,0,1145,3315,3329,3737,2973,20,2533,79,-8.255,19.613,-11.097,-0.575,1.057,0.571,0.63,-3.223,9.639,-0.051,0.06,0.091,angry
1.06,0,0,0,0,0,0,0,841,1773,3433,3350,3839,2492,9,959,59,-4.618,19.613,-18.428,2.411,1.61,0.519,0.096,-1.216,9.773,-0.163,0.031,0.045,angry
1.07,0,0,0,0,0,0,721,2817,1992,3493,3355,3860,2198,3,925,0,-12.462,-6.407,19.613,4.412,1.178,-0.5,0.493,-2.883,10.022,-0.811,0.147,-0.188,angry
1.08,0,0,0,0,0,0,1365,3191,2343,3611,3370,3812,915,6,778,4,-6.136,11.873,11.205,3.817,0.839,-1.494,1.123,-1.468,9.55,-0.963,0.043,-0.199,angry
1.09,1008,0,0,0,131,0,2193,3307,2455,3580,3380,3687,415,3,573,0,0.448,11.772,19.613,-0.75,0.033,0.429,1.484,-2.653,9.33,-2.06,-0.419,-0.384,angry
1.1,1594,1014,1597,240,288,0,2367,3381,2463,3491,3386,3640,597,0,377,0,3.922,2.471,7.906,0.504,0.316,-0.169,1.836,-0.934,10.441,-3.466,-0.419,-0.734,angry
1.11,1817,1664,2653,1760,388,0,2668,3451,1756,2747,3519,2971,956,0,0,0,0.493,4.654,9.433,0.081,0.18,-0.082,3.857,-2.004,12.795,-6.796,-0.569,-0.23,angry
1.12,2032,1918,2974,2308,907,0,2891,3542,1390,393,1684,607,0,8,0,0,0.081,3.622,9.134,0.044,0.158,-0.074,-0.52,-9.79,19.613,-8.731,-2.465,1.006,angry
1.13,2199,2101,3202,2612,1568,0,3044,3611,1133,0,0,160,0,0,0,0,0,3.431,8.811,0.13,-0.007,0.007,0.634,-13.898,19.613,-8.731,-3.022,2.196,angry
1.14,2365,2369,3337,2778,1857,0,3138,3634,0,0,0,0,0,0,0,0,0.062,3.941,9.464,0.025,0.057,0.005,6.112,-8.023,19.613,-6.34,-2.721,3.013,angry
1.15,2443,2522,3434,2881,1981,177,3197,3642,0,0,0,0,0,0,0,0,0.278,3.548,9.182,0.01,0.073,0.002,-1.405,-1.539,19.613,0.007,0.174,2.666,angry
1.16,2480,2654,3495,2944,2135,13,3195,3606,0,0,0,0,0,0,0,0,0.508,3.733,9.404,0.026,0.076,-0.02,4.554,4.144,17.336,1.34,-0.871,2.529,angry
1.17,2498,2699,3536,3012,2221,0,3154,3555,0,0,0,0,37,0,0,0,0.187,3.505,9.184,0.045,0.046,-0.006,7.556,2.768,9.962,2.708,-0.023,2.118,angry
1.18,2505,2704,3532,3046,2176,0,3063,3494,0,0,0,0,0,0,0,0,-0.002,3.63,9.28,0.046,0.067,-0.006,8.052,1.542,9.857,3.22,0.068,1.444,angry
1.19,2557,2771,3583,3089,2155,0,3023,3459,0,0,12,0,0,0,0,0,0.081,3.575,9.251,0.071,0.06,-0.005,7.956,0.927,8.741,3.731,-0.02,0.742,angry
1.2,2551,2806,3601,3120,2043,0,2927,3381,0,0,0,0,0,0,0,0,0.129,3.668,9.294,0.064,0.075,-0.013,7.386,0.113,8.215,4.082,-0.151,0.023,angry
1.21,2624,2835,3635,3157,2036,0,2796,3302,0,0,0,0,0,0,0,0,0.213,3.663,9.282,0.066,0.08,-0.015,6.211,-0.893,8.365,4.425,-0.327,-0.602,angry
1.22,2640,2891,3677,3201,1895,0,2559,3123,0,0,0,0,0,0,0,0,0.16,3.704,9.357,0.078,0.095,-0.018,3.481,-2.464,9.287,4.985,-0.797,-1.389,angry
1.23,2717,2923,3707,3248,1934,0,2283,2922,0,0,0,0,0,0,0,0,0.038,3.694,9.4,0.107,0.121,-0.014,2.327,-3.658,10.192,5.121,-1.043,-1.554,angry
1.24,2814,2956,3747,3316,2017,0,2042,2687,0,20,7,0,0,0,0,0,0.117,3.685,9.256,0.102,0.147,-0.017,0.795,-5.619,12.665,5.46,-1.345,-1.518,angry
1.25,2864,2992,3794,3305,2030,0,1851,2394,0,13,0,0,1,20,0,0,0.034,3.814,9.323,0.117,0.173,-0.022,0.086,-6.697,15.21,5.592,-1.65,-1.331,angry
1.26,2960,3056,3827,3439,2124,0,1644,1728,0,0,0,25,0,0,0,0,-0.079,3.742,9.237,0.12,0.205,-0.03,0.06,-7.482,17.806,5.45,-1.902,-1.328,angry
1.27,3022,3120,3861,3509,2208,0,1417,737,0,0,0,0,0,47,0,0,-0.067,3.895,9.378,0.156,0.178,-0.015,2.557,-16.259,19.613,5.405,-1.898,-2.061,angry
1.28,3048,3154,3853,3502,2187,0,985,0,0,0,0,28,0,0,0,0,-0.168,3.716,9.287,0.208,0.128,0.014,0.67,-19.613,15.912,4.958,-0.326,-2.539,angry
1.29,3152,3287,3920,3633,2203,0,640,0,0,0,0,0,0,22,0,0,0.136,3.79,9.263,0.315,0.097,0.07,-3.349,-19.613,6.819,4.094,-0.109,-2.127,angry
1.3,3220,3344,3920,3664,2061,0,304,0,0,0,0,0,0,45,0,0,-0.041,3.227,9.143,0.528,0.055,0.17,-7.044,-19.613,-1.128,3.025,-1.009,-1.613,angry
1.31,3377,3454,3953,3731,1744,0,48,0,0,0,0,0,0,0,0,0,0.194,4.204,8.954,0.749,0.166,0.28,-5.104,-19.613,-7.235,1.739,-1.393,-1.399,angry
1.32,3480,3472,3971,3755,819,0,116,0,0,0,0,0,0,37,0,0,0.666,5.286,10.649,0.799,0.19,0.39,-7.851,-19.613,-14.858,-0.021,-1.12,-1.45,angry
1.33,3639,3391,3969,3761,457,0,93,0,0,0,0,0,0,0,0,0,0.634,3.292,8.808,1.478,0.072,0.684,1.46,-10.767,-7.8,-1.459,2.263,0.071,angry
1.34,3713,3277,3983,3786,153,0,173,0,0,0,0,0,0,0,0,958,0.22,3.304,9.878,1.915,-0.006,0.837,-7.417,19.613,19.613,-2.469,3.068,1.053,angry
1.35,3758,3099,3957,3775,32,0,220,0,0,0,0,0,3,0,0,2151,1.405,4.013,10.458,2.579,0.308,0.957,-12.615,2.622,4.453,-6.821,-3.1,-0.73,angry
1.36,3696,2806,3871,3728,0,0,170,0,0,4,0,0,0,0,357,3113,1.571,4.949,9.938,3.297,0.919,1.01,-4.175,-9.143,7.841,-4.926,0.56,1.94,angry
1.37,3809,2620,3919,3694,0,0,0,0,0,0,28,0,0,0,1125,3555,0.788,3.242,8.159,3.768,1.28,0.951,1.853,-10.977,17.008,-4.588,-0.744,1.211,angry
1.38,3799,2345,3839,3492,0,0,0,0,0,0,0,0,0,0,2063,3683,1.12,2.897,6.227,4.869,1.772,0.637,-4.168,-17.078,19.613,-2.314,3.889,1.988,angry
1.39,3730,1968,3611,2955,0,0,0,0,0,0,0,0,0,0,2535,3751,3.326,7.417,10.767,6.419,2.139,0.386,-8.631,6.682,14.492,-0.134,1.573,0.922,angry
1.4,3563,819,3060,2665,0,0,0,0,0,239,0,0,3,0,2577,3804,-0.424,1.98,19.613,8.415,0.668,-1.374,1.585,-2.703,8.945,-0.216,0.58,0.217,angry
1.41,2887,152,2324,1845,0,0,0,0,0,420,721,265,57,0,2762,3827,-4.36,9.881,19.613,8.731,-1.326,-3.379,0.565,-3.294,10.06,-0.155,0.349,0.227,angry
1.42,1404,0,0,0,0,0,0,0,1,1422,2085,1048,92,1,3052,3886,-1.35,16.328,19.613,8.731,-1.608,-3.619,1.022,-2.928,9.589,-0.052,0.162,0.124,angry
1.43,0,0,0,0,0,0,0,0,9,1605,2218,1497,115,2,3164,3900,10.946,10.247,19.599,2.299,-0.232,-4.124,1.003,-2.389,9.598,-0.1,0.054,0.131,angry
1.44,0,0,0,0,0,0,0,0,55,1910,2605,1820,238,19,3239,3915,9.395,6.797,19.613,0.014,-0.554,-1.84,0.922,-2.942,9.598,-0.11,0.027,0.112,angry
1.45,0,0,0,0,0,0,0,0,165,1974,2700,2174,331,37,3298,3791,9.857,1.753,14.064,-0.973,0.323,-1.898,0.553,-2.684,9.256,-0.06,0.015,0.107,angry
1.46,0,0,0,0,0,0,0,0,283,2099,2899,2501,541,45,3341,3868,4.851,-0.97,9.057,-1.805,-0.207,-1.116,0.666,-2.655,9.804,-0.027,0.086,0.029,angry
1.47,0,0,0,0,0,0,0,0,349,2215,2927,2621,653,46,3305,3797,5.753,-0.709,6.881,-2.338,-1.054,-0.311,0.905,-2.686,9.701,-0.044,0.128,0.038,angry
1.48,0,0,0,0,0,0,0,0,401,2238,2945,2703,617,43,3224,3739,5.148,0.972,7.683,-2.809,-1.158,0.45,0.634,-2.689,9.979,-0.07,0.117,0.043,angry
1.49,0,0,0,0,0,0,0,0,459,2255,2979,2775,667,47,3108,3639,4.039,2.794,9.06,-3.325,-1.176,0.828,0.503,-2.705,9.687,-0.058,0.087,0.045,angry
1.5,0,0,0,0,0,0,0,0,437,2265,2984,2845,688,0,2996,3659,2.421,3.728,8.868,-3.845,-1.168,1.039,0.682,-2.672,9.594,-0.046,0.104,0.054,angry
1.51,0,0,0,0,0,0,0,0,415,2217,3020,2983,669,46,2919,3368,0.788,4.001,8.001,-4.28,-1.082,1.06,0.637,-2.643,9.598,-0.058,0.083,0.05,angry
1.52,0,0,0,0,0,0,0,0,581,2342,2940,2989,765,101,2751,3167,-0.79,4.29,7.436,-4.437,-1.214,0.953,0.634,-2.744,9.787,-0.044,0.081,0.053,angry
1.53,0,0,0,0,0,0,0,0,559,2439,3186,3171,1020,0,2531,2823,-2.253,5.619,8.329,-4.326,-2.034,0.809,0.565,-2.583,9.685,-0.06,0.082,0.055,angry
1.54,0,0,0,0,0,0,0,0,759,2469,3183,3356,1255,47,2504,2568,-0.134,7.558,9.39,-4.212,-2.314,0.859,0.548,-2.717,9.668,-0.06,0.082,0.038,angry
1.55,0,0,0,0,0,0,0,0,877,2668,3191,3369,1456,47,2537,2413,0.517,8.449,12.189,-4.266,-2.105,1.236,0.611,-2.849,9.574,-0.066,0.076,0.037,angry
1.56,0,0,0,0,0,0,0,0,1023,2785,3217,3527,1764,74,2295,1973,-1.147,9.426,15.505,-4.335,-2.317,1.545,0.716,-2.945,9.328,-0.029,0.067,0.037,angry
1.57,0,0,0,0,0,0,0,0,1291,2905,3242,3611,2009,37,1967,1213,-0.453,14.025,18.261,-4.375,-2.246,1.61,0.45,-2.758,9.627,-0.102,0.035,0.029,angry
1.58,0,0,0,0,0,0,0,0,1298,2931,3247,3673,2063,47,2027,948,-4.063,19.613,15.457,-4.478,-1.713,1.802,0.218,-2.84,10.472,-0.139,0.004,0.013,angry
1.59,0,0,0,0,0,0,0,0,1715,3087,3263,3859,1960,33,1323,158,-4.705,19.613,6.855,-3.797,-0.933,1.745,0.654,-2.708,9.797,-0.105,-0.017,0.024,angry
1.6,0,0,0,0,0,0,0,0,2063,3198,3299,3992,1876,11,668,71,-5.631,19.613,-3.816,-2.638,0.322,1.727,0.668,-1.721,9.74,-0.133,-0.059,0.054,angry
1.61,0,0,0,0,0,0,0,0,2159,3375,3286,3959,1594,6,371,23,-14.492,19.613,-19.613,0.33,0.117,1.163,0.261,-0.898,9.831,-0.406,-0.035,-0.09,angry
1.62,0,0,0,0,0,0,0,1535,2581,3355,3258,4035,503,3,219,0,-0.371,15.802,-10.642,2.709,2.224,0.644,0.543,-2.765,9.534,-0.551,0.096,-0.225,angry
1.63,0,0,0,0,0,0,812,3242,2843,3411,3334,4038,52,0,99,0,-18.883,0.488,17.585,5.161,-0.539,-0.053,1.24,-2.114,9.428,-1.202,-0.223,-0.345,angry
1.64,0,0,0,0,0,0,1475,3442,2927,3377,3339,4011,0,0,57,0,-0.215,17.135,19.19,3.406,0.801,-1.098,2.569,0.455,10.218,-1.679,-0.696,-0.436,angry
1.65,448,0,0,0,33,0,2308,3445,3063,3041,3378,3991,0,0,0,0,12.579,13.949,13.376,-0.141,3.082,-1.27,1.877,-2.516,10.623,-3.515,-0.003,-0.836,angry
1.66,1444,631,1087,144,435,0,2581,3427,2387,1715,3567,3871,0,0,0,55,1.621,6.855,13.233,0.212,0.638,-0.25,2.145,-5.586,10.455,-7.508,0.877,0.183,angry
1.67,1648,1465,2559,1785,291,0,2845,3536,1483,732,3053,3358,0,0,0,0,-0.067,3.955,10.065,0.014,0.302,-0.101,0.824,-1.659,19.211,-8.731,0.366,1.423,angry
1.68,1874,1884,3065,2388,1497,0,3040,3632,841,7,0,541,0,0,0,0,0.01,3.737,9.452,0.054,0.13,-0.063,-1.032,-6.601,19.613,-8.731,-2.07,4.333,angry
1.69,2044,2265,3310,2669,1818,339,3171,3664,0,0,0,0,0,0,0,0,0.584,3.869,9.785,0.13,-0.055,0.027,8.088,-5.186,18.459,-6.153,-1.057,4.492,angry
1.7,2203,2498,3460,2835,2130,535,3234,3645,0,0,0,0,0,0,0,0,0.139,3.771,9.5,0.028,0.058,0.019,2.933,-15.668,19.613,-1.448,1.14,4.822,angry
1.71,2081,2333,3335,2663,2087,448,2981,3267,0,0,0,0,0,0,0,0,0.18,3.591,9.436,0.071,0.062,-0.008,12.024,0.833,13.819,1.436,-0.6,2.171,angry
1.72,2375,2709,3537,3015,2397,0,3061,3403,0,0,0,0,0,0,0,7,0.555,3.666,9.313,0.07,0.091,-0.025,9.103,2.174,8.44,2.778,0.269,0.792,angry
1.73,2453,2800,3648,3085,2460,0,3038,3335,0,0,0,0,0,0,0,0,0.376,3.943,9.436,0.066,0.096,-0.013,8.456,1.341,7.558,3.145,-0.189,-0.083,angry
1.74,2535,2859,3678,3136,2434,0,2906,3221,0,0,0,0,0,0,0,0,0.089,3.663,9.218,0.098,0.071,-0.002,8.159,0.862,6.34,3.41,-0.529,-0.868,angry
1.75,2515,2864,3645,3056,2351,0,2682,2992,0,0,0,0,0,0,0,0,-0.019,3.551,9.275,0.099,0.055,-0.003,7.286,-0.524,7.484,3.663,-0.724,-1.542,angry
1.76,2613,2977,3730,3225,2325,0,2377,2800,0,0,0,0,8,0,0,0,0.122,3.773,9.364,0.087,0.08,-0.028,6.213,-2.342,8.947,4.15,-0.879,-2.145,angry
1.77,2654,3052,3744,3270,2224,0,2064,2373,0,0,0,0,23,0,0,17,0.18,3.606,9.258,0.1,0.088,-0.024,3.601,-4.159,9.103,4.965,-0.788,-2.778,angry
1.78,2711,3104,3790,3311,2182,0,1850,1744,0,0,0,0,0,0,0,0,0.05,3.855,9.251,0.102,0.094,-0.016,1.058,-5.904,10.57,5.363,-0.892,-2.704,angry
1.79,2768,3138,3824,3362,2263,0,1820,1216,0,0,0,0,0,1,0,0,0.168,3.804,9.354,0.086,0.122,-0.025,0.06,-6.752,11.621,5.442,-1.095,-2.512,angry
1.8,2825,3170,3840,3431,2298,0,1696,771,0,0,0,0,0,0,0,0,0.093,3.644,9.23,0.114,0.16,-0.015,-0.709,-8.255,14.964,5.522,-1.532,-1.977,angry
1.81,2899,3187,3862,3472,2333,0,1555,318,0,0,0,0,0,0,0,0,-0.101,3.718,9.598,0.122,0.171,-0.022,0.34,-10.578,19.613,5.384,-1.918,-1.561,angry
1.82,2960,3247,3883,3538,2433,0,1328,0,0,0,33,0,0,0,0,0,0.024,3.773,9.474,0.162,0.143,-0.015,1.123,-15.845,19.613,5.411,-1.695,-1.487,angry
1.83,3043,3323,3911,3600,2455,0,998,0,0,0,0,0,0,0,0,18,-0.074,3.668,9.586,0.239,0.132,0.009,1.269,-13.02,18.658,4.622,-1.192,-1.479,angry
1.84,3065,3374,3920,3637,2430,0,709,0,0,0,7,0,0,0,0,0,0.144,3.409,9.029,0.367,0.12,0.064,-2.626,-19.613,9.323,3.846,-0.012,-0.706,angry
1.85,3173,3435,3932,3675,2277,0,505,0,2,0,0,0,5,0,0,0,0.225,3.637,9.146,0.483,0.087,0.11,-9.373,-19.613,4.216,3.22,-1.33,-0.973,angry
1.86,3263,3450,3951,3719,1990,0,383,0,0,0,12,0,0,0,0,0,-0.036,2.978,9.187,0.584,0.071,0.181,-0.407,-19.613,-6.242,1.34,-2.143,-2.068,angry
1.87,3429,3504,3972,3750,1459,0,321,0,0,0,0,0,0,0,0,0,0.029,3.304,9.151,1.019,0.039,0.419,-10.98,-19.613,-9.287,-1.276,1.437,-1.703,angry
1.88,3545,3508,3975,3773,831,0,254,0,0,0,0,0,0,0,0,0,0.464,3.44,9.445,1.236,0.011,0.572,-11.624,-19.613,-11.794,-2.745,2.098,-0.991,angry
1.89,3635,3462,3984,3769,445,0,100,0,0,0,0,0,0,0,0,980,0.836,3.345,9.754,1.705,-0.01,0.744,-10.01,6.551,19.613,-1.79,3.764,1.888,angry
1.9,3705,3247,3990,3777,338,0,26,0,0,2,0,0,0,0,5,2101,1.314,3.002,9.787,2.351,-0.167,0.895,-17.569,-0.508,13.657,-5.551,-1.577,-0.042,angry
1.91,3744,2880,3920,3743,0,0,0,0,0,0,56,0,0,0,313,2985,2.002,5.124,9.615,3.274,0.801,0.922,1.044,-9.064,6.527,-4.306,0.593,1.513,angry
1.92,3759,2635,3892,3618,0,0,0,0,0,5,0,0,0,55,949,3527,0.026,2.61,7.175,4.15,1.083,0.732,4.719,-10.369,19.379,-3.323,0.496,0.94,angry
1.93,3735,2512,3850,3303,0,0,0,0,0,0,0,17,0,0,1399,3683,1.446,7.441,7.4,5.211,1.148,0.173,-11.973,-19.613,19.613,-3.742,2.763,1.371,angry
1.94,3465,1657,3332,2674,0,0,0,0,0,0,0,0,0,0,2530,3791,1.403,7.192,19.613,7.882,-1.095,-1.005,-1.432,-4.492,19.613,-0.755,0.45,0.328,angry
1.95,1987,0,1581,1014,0,0,0,0,0,275,1507,381,41,0,2903,3867,-1.338,4.458,17.25,8.731,-2.719,-4.226,-0.283,-2.777,10.549,-0.088,0.347,0.138,angry
1.96,259,0,0,0,0,0,0,0,0,345,1950,966,20,0,2991,3897,0.917,13.443,19.41,7.435,-1.649,-3.939,1.109,-3.381,10.312,-0.093,0.154,0.134,angry
1.97,0,0,0,0,0,0,0,0,0,808,2567,1123,88,1,3160,3923,14.011,8.49,19.613,2.36,0.223,-4.718,1.075,-2.531,10.166,-0.094,0.11,0.113,angry
1.98,0,0,0,0,0,0,0,0,1,1289,2759,1395,255,1,3228,3809,8.159,11.554,19.613,0.311,-0.467,-1.972,1.171,-2.703,9.795,-0.086,0.048,0.118,angry
1.99,0,0,0,0,0,0,0,0,9,1659,2846,1715,519,3,3339,3925,10.915,2.289,15.064,-0.843,0.153,-1.58,0.721,-3.019,9.768,-0.048,0.002,0.074,angry
2,0,0,0,0,0,0,0,0,23,1755,2899,1927,847,0,3398,3911,8.212,-0.283,9.584,-1.797,0.712,-1.189,0.517,-2.473,10.518,-0.006,0.022,0.022,angry
2.01,0,0,0,0,0,0,0,0,0,1883,2968,2086,1059,3,3445,3893,5.6,-1.305,7.269,-1.873,0.656,-0.764,0.675,-2.447,9.984,0.001,-0.015,-0.002,angry
2.02,0,0,0,0,0,0,0,0,2,2011,2973,2111,1271,2,3487,3830,4.824,-0.728,7.238,-2.207,0.022,-0.257,0.905,-2.365,9.697,-0.043,0.001,0.005,angry
2.03,0,0,0,0,0,0,0,0,6,2131,2979,2163,1462,4,3476,3734,5.289,-0.328,6.893,-2.508,-0.349,0.152,1.202,-2.49,9.708,-0.07,0.011,0.022,angry
2.04,0,0,0,0,0,0,0,0,3,2171,3007,2221,1595,1,3428,3513,5.667,0.615,7.137,-2.879,-0.435,0.595,0.893,-2.569,9.747,-0.06,-0.002,0.023,angry
2.05,0,0,0,0,0,0,0,0,0,2172,3048,2216,1751,2,3379,3219,5.581,1.946,7.977,-3.4,-0.162,0.961,0.654,-2.535,9.744,-0.057,-0.02,0.026,angry
2.06,0,0,0,0,0,0,0,0,8,2249,2966,2205,1882,2,3302,3165,4.161,3.235,8.411,-3.973,0.089,1.176,0.718,-2.516,9.651,-0.044,-0.015,0.022,angry
2.07,0,0,0,0,0,0,0,0,11,2263,3048,2234,2085,2,3154,3089,2.693,3.977,7.757,-4.433,0.124,1.256,0.781,-2.37,9.697,-0.075,0.022,0.034,angry
2.08,0,0,0,0,0,0,0,0,46,2273,3058,2251,2103,3,2971,2975,1.568,4.345,6.668,-4.691,-0.075,1.234,0.867,-2.579,9.835,-0.088,0.031,0.063,angry
2.09,0,0,0,0,0,0,0,0,5,2339,3086,2349,2317,0,2924,2877,1.116,5.32,6.79,-4.735,-0.414,1.163,0.84,-2.595,9.79,-0.103,0.028,0.07,angry
2.1,0,0,0,0,0,0,0,0,26,2453,3109,2455,2429,9,2915,2887,1.441,6.421,7.345,-4.681,-0.761,1.15,0.807,-2.658,9.687,-0.099,0.033,0.075,angry
2.11,0,0,0,0,0,0,0,0,23,2527,3160,2503,2459,7,2919,2796,2.648,7.702,8.31,-4.622,-1.021,1.211,0.864,-2.622,9.665,-0.08,0.054,0.075,angry
2.12,0,0,0,0,0,0,0,0,63,2595,3181,2707,2651,20,2927,2748,3.728,9.392,9.957,-4.674,-1.082,1.393,0.814,-2.682,9.773,-0.075,0.069,0.086,angry
2.13,0,0,0,0,0,0,0,0,101,2685,3204,2777,2715,26,2941,2729,4.197,10.309,11.066,-4.773,-1.018,1.642,0.718,-2.593,9.72,-0.08,0.074,0.091,angry
2.14,0,0,0,0,0,0,0,0,247,2863,3232,2951,2923,47,2982,2601,1.02,10.534,12.546,-4.57,-1.293,1.848,0.757,-2.808,9.725,-0.093,0.132,0.092,angry
2.15,0,0,0,0,0,0,0,0,316,3051,3219,3151,3091,1,2968,2363,-0.79,14.533,16.829,-4.205,-1.96,1.356,0.73,-2.674,9.656,-0.131,0.105,0.08,angry
2.16,0,0,0,0,0,0,0,0,472,3158,3242,3302,3181,47,2999,2215,-0.584,19.613,13.925,-4.386,-1.822,0.939,0.682,-2.559,9.804,-0.133,0.096,0.081,angry
2.17,0,0,0,0,0,0,0,0,743,3293,3209,3375,3298,36,2845,1653,-7.111,19.613,9.574,-3.473,-2.343,0.734,0.845,-2.861,9.603,-0.187,0.088,0.085,angry
2.18,0,0,0,0,0,0,0,0,1071,3435,3268,3513,3291,87,2744,283,-10.647,19.613,1.314,-2.382,-2.666,0.646,1.032,-3.211,9.629,-0.118,0.093,0.087,angry
2.19,0,0,0,0,0,0,0,0,1414,3529,3209,3580,3123,31,2379,109,-8.406,19.613,-7.922,-0.714,-0.733,0.408,0.927,-2.72,9.357,-0.119,0.04,0.116,angry
2.2,0,0,0,0,0,0,0,171,1933,3619,3299,3637,2629,24,659,71,-3.175,19.613,-15.457,1.781,2.07,0.957,0.606,-1.616,9.768,-0.326,-0.017,0.074,angry
2.21,0,0,0,0,0,0,865,2645,2323,3739,3324,3652,1814,4,403,13,-14.806,-9.618,19.613,2.838,3.03,0.592,0.651,-2.993,9.531,-0.637,-0.073,-0.065,angry
2.22,0,0,0,0,0,0,1383,3370,2445,3771,3329,3551,1191,0,507,0,-19.187,7.156,7.836,4.758,0.166,-1.034,0.299,-0.795,9.524,-1.024,-0.131,-0.078,angry
2.23,0,0,0,0,0,0,2377,3550,2492,3743,3380,2991,73,0,395,0,17.482,12.742,9.091,2.733,1.32,-1.228,1.008,-1.377,11.09,-3.219,-0.12,-0.342,angry
2.24,1197,16,0,0,228,0,2692,3534,2148,3173,3490,2327,633,0,0,0,-13.068,0.101,19.613,0.705,1.225,-0.817,-0.814,-2.016,9.792,-7.084,-0.822,0.05,angry
2.25,1475,1175,2187,950,242,0,2853,3626,1547,1968,3329,1495,341,0,44,0,-0.414,7.69,12.447,-0.023,0.449,-0.072,-1.049,5.133,14.078,-8.731,-2.099,0.129,angry
2.26,1680,1518,2766,2238,829,0,3014,3698,585,0,0,4,0,0,0,0,-0.357,4.017,9.488,0.026,0.284,-0.078,-0.498,-9.871,19.613,-8.731,-3.789,1.814,angry
2.27,1935,1831,3091,2559,1286,154,3127,3739,0,0,0,0,1,0,0,0,-0.249,3.519,9.469,0.065,0.104,0.022,10.197,-9.811,19.613,-5.332,-1.308,3.325,angry
2.28,2071,2124,3285,2768,1714,673,3210,3738,0,0,0,7,0,0,0,0,0.06,3.745,9.371,0.005,0.068,0.022,5.564,-0.996,19.613,-1.197,0.955,4.658,angry
2.29,2160,2368,3394,2853,1967,685,3256,3698,1,0,0,0,0,0,0,0,0.206,3.759,9.536,0.018,0.057,0.003,2.976,2.705,13.542,1.604,-0.012,3.17,angry
2.3,2192,2471,3489,2919,2064,41,3190,3583,0,0,0,0,0,0,0,0,0.438,3.749,9.428,0.06,0.089,-0.031,7.005,2.2,8.076,2.733,0.19,2.653,angry
2.31,2274,2586,3523,2983,2137,0,3143,3535,0,0,0,0,0,0,0,0,0.266,3.61,9.4,0.06,0.095,-0.023,9.771,1.178,6.996,3.186,0.441,1.945,angry
2.32,2325,2657,3561,3024,2138,0,3062,3460,0,0,0,0,0,0,0,0,0.017,3.795,9.519,0.069,0.079,-0.012,9.967,0.385,6.673,3.616,0.69,1.145,angry
2.33,2376,2690,3583,3069,2142,0,2949,3377,0,0,0,0,0,0,0,0,0.019,3.685,9.182,0.084,0.102,-0.023,9.091,-0.395,6.646,3.991,0.574,0.295,angry
2.34,2430,2747,3620,3099,2171,0,2850,3267,0,0,0,0,0,0,0,0,0.077,3.577,9.364,0.09,0.078,-0.021,8.1,-1.559,7.07,4.262,0.091,-0.543,angry
2.35,2462,2789,3643,3136,2160,0,2707,3137,0,0,0,0,0,0,0,0,0.163,3.73,9.534,0.094,0.088,-0.025,7.561,-2.308,6.567,4.498,-0.345,-1.264,angry
2.36,2487,2859,3696,3185,2194,0,2442,2907,0,0,10,0,0,0,0,0,0.079,3.74,9.44,0.104,0.092,-0.031,6.694,-2.986,6.381,4.637,-0.537,-1.771,angry
2.37,2595,2922,3725,3254,2240,0,2268,2699,0,0,0,0,4,0,0,0,0.062,3.788,9.431,0.104,0.095,-0.021,4.369,-5.499,10.75,5.008,-0.641,-2.118,angry
2.38,2658,2960,3755,3307,2318,0,2128,2404,0,0,0,0,0,0,0,0,-0.072,3.735,9.309,0.114,0.118,-0.018,1.839,-7.087,12.474,5.399,-1.258,-1.935,angry
2.39,2681,2929,3727,3305,2374,0,1968,1961,0,0,0,0,0,0,0,0,-0.113,3.831,9.234,0.101,0.136,-0.025,0.905,-7.101,13.242,5.356,-1.672,-1.722,angry
2.4,2797,3024,3819,3425,2403,0,1926,1535,0,0,0,0,0,0,0,0,0.093,3.996,9.39,0.109,0.14,-0.028,3.031,-10.075,19.613,5.087,-2.274,-1.334,angry
2.41,2841,3056,3753,3469,2363,0,1699,980,0,0,0,0,0,0,0,18,0.014,3.725,8.83,0.18,0.071,-0.003,2.116,-19.613,19.613,5.539,-2.033,-1.947,angry
2.42,2971,3205,3878,3565,2521,0,1518,0,0,0,0,0,0,0,0,0,0.053,4.005,9.445,0.191,0.057,0.023,0.208,-19.613,19.613,5.071,-1.668,-2.296,angry
2.43,3024,3271,3888,3607,2471,0,1329,0,0,0,0,0,0,0,0,0,0.28,3.893,9.476,0.259,0.063,0.045,-0.527,-19.613,1.118,3.778,-0.997,-2.172,angry
2.44,3071,3330,3903,3647,2331,0,1023,0,0,0,0,0,0,0,0,0,0.024,3.828,9.601,0.407,0.036,0.109,-7.705,-19.613,-2.658,2.878,-0.847,-1.611,angry
2.45,3107,3397,3922,3691,2160,0,505,0,0,0,0,0,0,0,8,0,0.002,2.899,8.179,0.652,-0.103,0.198,-5.945,-19.613,-3.026,1.139,-1.297,-1.495,angry
2.46,3215,3472,3938,3724,1905,0,389,0,0,0,0,0,0,0,0,0,0.534,3.129,9.606,0.688,0.052,0.241,-6.907,-19.613,-9.773,0.016,-0.34,-1.428,angry
2.47,3298,3503,3954,3744,1469,0,371,0,0,0,2,0,0,0,0,0,0.093,3.505,8.753,0.933,0.055,0.405,-5.064,-19.613,-14.748,-1.953,0.807,-1.766,angry
2.48,3059,3323,3643,3648,836,0,224,0,0,0,0,0,0,0,0,60,0.055,2.78,8.466,1.352,-0.095,0.613,-3.081,-11.315,-9.85,-1.601,2.153,-0.846,angry
2.49,3458,3472,3969,3761,606,0,128,0,0,0,0,0,0,0,13,1353,1.135,3.072,9.189,1.737,-0.042,0.829,-13.834,19.613,19.613,-3.085,2.384,0.826,angry
2.5,3575,3061,3963,3760,145,0,0,0,0,0,0,0,47,0,571,3236,0.354,2.243,9.471,2.834,0.304,0.911,-3.156,-7.973,6.979,-5.491,-1.224,1.537,angry
2.51,3616,2877,3952,3715,0,0,0,0,0,0,0,0,0,0,1223,3525,0.522,4.662,9.29,3.418,0.822,0.797,9.419,-11.6,15.105,-4.231,-1.54,1.189,angry
2.52,3600,2686,3888,3490,0,0,0,0,0,0,0,0,0,0,2200,3644,-0.445,2.825,6.227,4.615,0.76,0.216,-2.962,-14.892,19.613,0.291,1.366,0.172,angry
2.53,3495,2480,3819,3108,0,0,0,0,0,192,0,0,76,0,2419,3735,4.116,6.771,9.608,5.835,1.07,0.204,-2.342,0.062,12.256,-0.529,2.36,0.887,angry
2.54,3230,2000,3508,2771,0,0,0,0,0,485,0,0,21,0,2595,3679,-0.974,6.594,19.613,6.984,-0.613,-0.025,-0.809,-3.689,12.155,0.092,1.049,0.154,angry
2.55,2007,116,2068,1422,0,0,0,0,1,1445,1161,141,17,0,2893,3863,-4.118,14.784,17.174,8.731,-2.888,-3.714,0.369,-2.732,10.127,-0.096,0.379,0.221,angry
2.56,0,0,0,0,0,0,0,0,0,1660,1704,621,12,0,2998,3887,0.663,16.087,19.613,7.486,-2.401,-3.298,0.994,-2.844,9.72,-0.044,0.259,0.171,angry
2.57,0,0,0,0,0,0,0,0,23,1911,1829,819,102,3,3097,3925,10.585,1.884,19.613,1.527,-0.699,-4.723,0.989,-2.169,9.431,-0.104,0.107,0.169,angry
2.58,0,0,0,0,0,0,0,0,13,2018,2907,1228,279,5,3179,3945,9.572,8.064,19.613,0.455,-0.449,-2.274,1.219,-3.175,10.046,-0.105,0.098,0.161,angry
2.59,0,0,0,0,0,0,0,0,18,2039,2720,1365,566,5,3242,3951,7.468,-0.11,15.115,-0.583,-0.13,-2.115,0.752,-2.883,10.439,-0.051,0.104,0.08,angry
2.6,0,0,0,0,0,0,0,0,31,2250,2848,1809,989,12,3347,3929,5.904,-2.26,8.509,-1.823,0.124,-1.305,0.723,-2.617,9.783,-0.036,0.062,0.039,angry
2.61,0,0,0,0,0,0,0,0,39,2364,2884,1990,1157,37,3363,3913,5.306,-1.173,6.366,-2.084,-0.233,-0.778,1.018,-2.404,9.462,-0.076,0.077,0.07,angry
2.62,0,0,0,0,0,0,0,0,110,2453,2892,2283,1318,26,3307,3831,5.452,-0.776,6.235,-2.446,-0.636,0.086,0.67,-2.677,9.57,-0.091,0.107,0.09,angry
2.63,0,0,0,0,0,0,0,0,221,2441,2940,2421,1317,37,3254,3765,4.573,1.36,8.456,-3.174,-0.648,0.823,0.476,-2.758,9.816,-0.084,0.082,0.074,angry
2.64,0,0,0,0,0,0,0,0,302,2553,3007,2635,1407,47,3089,3509,1.963,2.782,8.001,-4.008,-0.514,1.143,0.606,-2.686,9.711,-0.091,0.06,0.083,angry
2.65,0,0,0,0,0,0,0,0,423,2607,3048,2719,1505,47,2685,3044,-0.814,3.725,8.114,-4.416,-0.824,0.992,0.725,-2.78,9.634,-0.087,0.059,0.077,angry
2.66,0,0,0,0,0,0,0,0,346,2707,3068,2789,1553,53,2677,2927,-1.128,6.314,9.17,-4.663,-1.427,0.716,0.663,-2.78,9.78,-0.085,0.057,0.068,angry
2.67,0,0,0,0,0,0,0,0,594,2783,3130,2981,1741,47,2687,2788,-0.946,7.946,10.324,-4.658,-1.608,0.553,0.687,-2.868,9.811,-0.083,0.087,0.062,angry
2.68,0,0,0,0,0,0,0,0,869,2861,3168,3095,1991,45,2699,2687,-2.449,9.081,12.141,-4.512,-2.031,0.528,0.709,-2.741,9.51,-0.089,0.101,0.052,angry
2.69,0,0,0,0,0,0,0,0,924,2917,3181,3183,2090,47,2671,2621,-2.77,10.774,15.074,-4.132,-2.47,0.349,0.596,-2.847,9.596,-0.082,0.114,0.048,angry
2.7,0,0,0,0,0,0,0,0,1013,2984,3204,3351,2344,47,2601,2462,-0.532,15.558,14.087,-3.781,-2.535,0.114,0.584,-2.842,9.579,-0.031,0.137,0.049,angry
2.71,0,0,0,0,0,0,0,0,1129,3125,3224,3503,2487,46,2535,2031,-3.479,19.613,10.283,-2.922,-2.257,0.698,0.725,-3.019,9.912,-0.062,0.123,0.059,angry
2.72,0,0,0,0,0,0,0,0,1523,3187,3219,3601,2555,47,2312,1686,-10.405,19.613,6.541,-2.077,-2.839,0.938,0.476,-2.904,9.761,-0.047,0.05,0.058,angry
2.73,0,0,0,0,0,0,0,0,1812,3243,3222,3751,2543,46,1897,611,-12,19.613,-0.335,-1.22,-1.145,0.451,0.52,-2.847,10.214,-0.11,-0.01,0.033,angry
2.74,0,0,0,0,0,0,0,0,2187,3352,3263,3862,2115,22,611,88,-10.259,19.613,-13.884,0.744,0.576,-0.778,0.551,-2.289,9.646,-0.196,-0.013,0.051,angry
2.75,0,0,0,0,0,0,429,1244,2463,3402,3258,3903,1520,51,355,99,-3.804,-2.064,1.422,1.955,4.407,-1.019,0.402,-0.895,9.706,-0.523,0.037,-0.1,angry
2.76,0,0,0,0,0,0,1591,3222,2840,3415,3263,3939,403,7,57,35,-19.613,-3.225,8.495,4.551,-0.459,-0.758,0.62,-1.796,9.773,-0.905,-0.025,-0.294,angry
2.77,0,0,0,0,291,0,2315,3447,3144,3501,3268,3816,2,0,47,0,19.613,19.613,19.613,1.345,7.043,-3.244,2.284,-0.862,10.048,-2.055,-0.637,-0.448,angry
2.78,1310,0,587,0,508,0,2559,3488,3193,3223,3299,3767,0,0,0,0,-7.274,5.734,19.613,0.591,0.737,-0.351,1.525,-0.994,10.424,-2.961,-0.776,-0.415,angry
2.79,1397,1125,2512,1825,350,0,2420,3487,2695,1823,3432,3342,0,60,0,0,-0.824,3.721,9.294,0.276,0.374,0.025,0.972,0.919,11.131,-6.802,0.453,-0.169,angry
2.8,1712,1472,3071,2545,510,0,2705,3600,1669,0,2142,597,0,0,0,0,-0.251,4.432,9.819,0.09,0.311,-0.005,-1.24,-5.239,19.613,-8.731,-1.083,1.369,angry
2.81,1949,1755,3306,2719,731,237,2835,3595,1063,0,0,7,72,0,0,0,-0.165,3.649,9.29,0.045,0.139,0.007,-0.994,-19.613,19.613,-8.731,-1.384,2.25,angry
2.82,2115,2192,3432,2934,1130,704,2917,3649,0,0,0,0,0,0,0,0,0.031,3.697,9.301,0.009,0.115,0.004,7.697,5.681,19.613,-2.421,1.532,3.139,angry
2.83,2230,2429,3501,3027,1657,688,2965,3607,0,0,0,0,0,0,0,31,0.192,3.512,9.28,0,0.101,-0.022,5.155,6.175,18.665,1.015,0.563,2.192,angry
2.84,2369,2586,3600,3129,1849,533,2989,3536,0,0,0,0,0,0,0,0,0.314,3.857,9.519,0.031,0.098,-0.035,8.169,1.101,9.553,1.888,1.394,2.003,angry
2.85,2387,2670,3629,3174,1872,93,2917,3469,0,0,0,0,0,0,0,0,0.29,3.673,9.325,0.038,0.092,-0.024,8.648,3.074,8.159,2.396,1.516,1.431,angry
2.86,2430,2761,3663,3207,1795,0,2820,3398,0,0,0,0,18,0,0,0,0.254,3.666,9.33,0.054,0.073,-0.016,9.546,1.623,6.093,2.7,1.688,0.62,angry
2.87,2467,2807,3685,3238,1677,0,2704,3316,0,0,0,0,0,0,0,0,0.18,3.546,9.359,0.058,0.084,-0.02,9.177,0.941,5.262,3.042,1.66,-0.201,angry
2.88,2528,2847,3696,3261,1636,0,2549,3221,0,0,0,0,0,0,0,0,0.151,3.646,9.39,0.049,0.098,-0.034,8.188,0.589,4.733,3.309,1.448,-0.902,angry
2.89,2539,2883,3715,3281,1616,0,2439,3133,0,0,0,0,3,0,0,0,0.146,3.745,9.385,0.059,0.1,-0.038,7.242,-0.256,4.836,3.534,1.075,-1.475,angry
2.9,2559,2925,3725,3298,1535,0,2338,3024,0,0,0,0,0,0,0,0,0.081,3.534,9.256,0.065,0.104,-0.045,7.092,-1.444,5.581,3.732,0.741,-1.946,angry
2.91,2624,2960,3742,3314,1602,0,2224,2910,29,0,0,0,0,0,4,0,0.086,3.584,9.143,0.093,0.086,-0.029,7.132,-2.569,7.14,4.003,0.605,-2.414,angry
2.92,2641,3039,3767,3347,1671,0,2084,2733,0,0,0,0,0,0,0,0,0.201,3.555,9.199,0.096,0.08,-0.038,5.294,-5.255,7.487,4.454,0.654,-3.037,angry
2.93,2673,3069,3794,3379,1787,0,1967,2579,0,0,0,0,0,0,0,0,0.158,3.479,9.112,0.126,0.076,-0.028,4.594,-7.039,7.42,4.515,0.396,-3.328,angry
2.94,2704,3114,3799,3413,1803,0,1791,2368,0,29,0,0,0,0,0,0,0.132,3.496,9.21,0.151,0.069,-0.016,4.879,-8.499,7.702,4.335,0.041,-3.757,angry
2.95,2814,3170,3823,3442,1770,0,1473,1872,0,0,0,0,0,19,0,0,0.12,3.742,9.328,0.174,0.103,0.006,13.115,-11.609,8.344,3.715,0.411,-5.227,angry
2.96,2923,3213,3856,3481,1773,0,1245,1292,0,0,0,0,0,0,0,0,-0.036,3.898,9.574,0.131,0.11,-0.004,19.613,-15.531,7.798,3.305,1.851,-6.759,angry
2.97,2967,3217,3863,3518,1710,0,1101,611,0,0,0,0,0,0,0,19,0.017,3.761,9.213,0.125,0.149,-0.019,19.613,-19.613,6.634,2.157,4.028,-8.731,angry
2.98,3029,3226,3874,3518,1617,0,896,0,0,30,0,0,0,0,0,0,0.031,3.809,9.249,0.188,0.086,-0.015,15.675,-19.613,-2.344,0.574,4.086,-8.731,angry
2.99,3047,3216,3882,3509,1621,0,743,0,0,0,0,0,0,0,0,0,0.057,3.73,9.301,0.197,0.066,-0.027,10.573,-19.613,-4.029,-0.538,3.842,-8.731,angry
3,3052,3266,3893,3504,1598,0,630,0,0,0,0,0,0,0,0,0,0.002,3.706,9.366,0.237,0.064,-0.043,-19.613,-19.613,19.613,-5.933,0.91,-8.731,angry
3.01,3065,3324,3866,3481,1351,0,474,0,0,0,0,23,0,0,0,0,-0.012,3.697,9.914,0.289,-0.004,-0.224,3.955,-19.613,19.613,-2.121,-0.096,-7.625,angry
3.02,3152,3384,3893,3448,1037,0,332,0,11,206,2403,555,0,0,0,0,-2.538,2.274,8.959,0.517,-0.719,-1.383,1.575,-17.183,3.771,1.025,-0.236,0.035,angry
3.03,3134,3328,3861,3345,688,0,298,0,182,2302,2674,696,543,2,1391,0,-1.887,1.891,7.147,0.706,-1.954,-3.392,0.927,-4.144,9.68,0.729,-0.702,0.003,angry
3.04,3100,3139,3786,3242,259,0,0,0,371,2515,2925,903,1611,1,2327,2,1.496,4.877,9.859,0.922,-2.39,-4.94,1.709,-1.377,7.087,0.281,-0.15,0.378,angry
3.05,2983,2688,3634,3071,0,0,0,0,439,2648,2976,1459,2223,47,3099,2536,1.659,5.629,7.302,1.258,-3.022,-5.772,0.024,-2.392,8.504,0.122,0.286,0.418,angry
3.06,2684,1911,3339,2704,0,0,0,0,534,2772,2984,1669,2541,31,3433,3231,0.663,6.191,8.068,1.083,-3.171,-6.444,1.022,-2.868,9.641,0.143,-0.18,0.261,angry
3.07,2054,437,2702,1774,0,0,0,0,547,2803,2979,1447,2699,47,3449,3310,3.402,7.015,9.062,0.894,-3.29,-6.855,0.867,-2.787,10.187,0.082,-0.156,0.211,angry
3.08,1507,0,625,231,0,0,0,0,565,2899,2935,1223,2723,49,3432,3325,2.512,8.183,9.713,0.968,-3.288,-6.771,2.382,-3.122,9.352,0.058,-0.017,0.183,angry
3.09,527,0,0,0,0,0,0,0,551,2931,2961,1395,2595,47,3487,3423,3.06,6.685,9.306,0.595,-3.108,-6.223,1.523,-3.017,9.689,0.09,0.135,0.06,angry
3.1,0,0,0,0,0,0,0,0,564,2887,2940,1417,2573,47,3481,3446,0.22,9.498,12.038,0.282,-3.063,-4.299,1.039,-2.713,9.972,0.066,0.135,0.056,angry
3.11,0,0,0,0,0,0,0,0,467,2808,2915,1255,2226,45,3413,3495,-1.765,1.753,8.375,-0.103,-2.572,-2.77,0.838,-2.83,9.661,0.111,0.121,0.011,angry
3.12,0,0,0,0,0,0,0,0,339,2459,2833,907,2065,51,3335,3527,-9.136,0.594,9.993,0.005,-2.061,-2.384,0.876,-2.602,9.618,0.082,0.086,-0.009,angry
3.13,0,0,0,0,0,0,0,0,391,2249,2858,812,2065,47,3305,3538,-10.616,-0.347,9.495,-0.176,-2.012,-3.101,0.678,-2.612,9.56,0.08,0.1,-0.009,angry
3.14,0,0,0,0,0,0,0,0,356,1979,2835,854,1939,45,3303,3559,-8.717,0.192,9.723,-0.448,-1.679,-4.077,0.814,-2.591,9.577,0.059,0.087,0.001,angry
3.15,0,0,0,0,0,0,0,0,363,2059,2879,1205,1799,46,3325,3580,-4.508,-0.283,8.504,-0.729,-1.609,-4.56,0.692,-2.574,9.668,-0.009,0.121,0.045,angry
3.16,0,0,0,0,0,0,0,0,399,2089,2879,1575,1897,47,3324,3604,-1.566,0.464,8.95,-0.953,-1.773,-4.55,0.658,-2.497,9.67,-0.027,0.132,0.048,angry
3.17,0,0,0,0,0,0,0,0,531,2172,2904,1955,2053,47,3323,3608,-0.824,1.743,10.266,-1.256,-1.825,-4.43,0.876,-2.531,9.704,-0.065,0.148,0.062,angry
3.18,0,0,0,0,0,0,0,0,619,2160,2981,2519,2233,47,3231,3561,-1.362,3.278,10.781,-1.584,-1.889,-4.439,0.567,-2.72,9.737,-0.064,0.166,0.051,angry
3.19,0,0,0,0,0,0,0,0,623,2133,2986,2685,2236,47,3125,3515,-2.48,5.598,8.772,-1.722,-1.837,-4.603,0.57,-2.559,9.991,-0.082,0.171,0.041,angry
3.2,0,0,0,0,0,0,0,0,692,2205,3017,2856,2153,31,2900,3411,-2.698,8.114,5.933,-1.378,-1.854,-4.616,0.723,-2.998,9.706,-0.133,0.252,0.042,angry
3.21,0,0,0,0,0,0,0,152,1116,2315,3084,3096,1971,46,2712,3211,-3.105,-0.443,6.618,0.282,-1.601,-3.464,0.476,-3.045,9.692,-0.124,0.29,0.009,angry
3.22,0,0,0,0,0,0,0,2550,1115,2236,3145,3193,1881,0,2577,2990,6.17,19.613,11.444,1.609,-0.039,-2.269,0.287,-2.746,9.814,-0.119,0.289,-0.038,angry
3.23,0,0,0,0,0,0,677,2763,1423,2343,3155,3343,1435,47,2041,1721,10.523,-10.013,4.159,0.149,-0.158,-0.207,0.443,-3.048,9.486,-0.226,0.282,-0.281,angry
3.24,0,0,0,0,0,0,1776,3133,1740,2456,3173,3364,585,46,748,318,-0.979,2.564,5.365,0.887,-0.717,-0.048,0.453,-2.875,9.984,-0.524,0.308,-0.61,angry
3.25,395,0,0,48,0,0,2345,3397,1939,2428,3173,3431,1,7,228,39,-0.117,2.198,10.048,0.298,-0.143,-0.175,0.809,-2.251,9.51,-1.137,0.422,-0.754,angry
3.26,956,0,826,985,450,113,2672,3573,2285,1867,3140,3287,0,0,0,0,-0.364,3.972,9.776,0.208,0.032,-0.274,3.168,-0.476,10.496,-2.4,-0.091,-0.73,angry
3.27,1171,0,1535,1671,563,386,2934,3679,1966,0,2876,2654,0,0,0,0,-0.721,3.905,9.404,0.04,0.086,-0.133,3.424,-4.197,13.633,-4.158,2.164,-0.763,angry
3.28,1307,32,2155,2030,705,578,3094,3735,1659,0,0,1273,0,0,0,0,-0.776,3.01,8.849,0.08,-0.03,-0.03,2.162,-3.067,15.579,-4.509,3.512,0.663,angry
3.29,1409,662,2514,2243,1348,854,3198,3752,0,0,0,0,0,0,0,0,-0.187,3.251,8.799,0.058,-0.037,-0.031,15.687,-11.349,17.085,-1.146,7.487,2.842,angry
3.3,1477,1282,2803,2350,1766,995,3258,3761,0,0,0,0,0,0,0,0,0.304,3.584,9.481,0.067,0.022,-0.046,19.613,-9.007,11.384,-1.047,4.183,-4.824,angry
3.31,1504,1485,2951,2432,1961,937,3277,3760,0,0,0,0,0,0,0,0,0.22,3.824,9.718,0.057,0.064,-0.034,13.132,-7.913,6.218,-1.126,3.791,-5.674,angry
3.32,1520,1581,3038,2496,2149,818,3259,3735,0,46,0,0,0,0,0,0,-0.014,3.558,9.354,0.059,0.07,-0.035,1.695,-4.846,9.639,-0.039,3.865,-5.485,angry
3.33,1533,1699,3133,2557,2219,453,3215,3696,0,0,0,0,0,0,0,0,-0.383,3.393,9.395,0.077,0.04,-0.021,0.493,-0.311,7.429,0.652,2.083,-4.162,angry
3.34,1535,1904,3215,2594,2278,98,3133,3629,0,0,0,0,0,0,0,0,-0.007,3.618,9.57,0.072,0.008,-0.019,2.258,-0.012,8.09,1.017,1.847,-3.561,angry
3.35,1580,2096,3315,2635,2352,0,3040,3482,0,0,0,0,0,0,0,0,-0.168,3.685,9.471,0.13,-0.007,-0.012,3.455,0.711,8.112,1.946,1.915,-2.662,angry
3.36,1667,2320,3405,2683,2423,0,2975,3281,0,0,0,0,0,0,0,18,0.053,3.452,9.23,0.152,-0.013,-0.011,5.827,0.213,6.984,2.672,1.559,-1.991,angry
3.37,1742,2450,3467,2736,2557,0,2935,3040,0,59,0,0,0,0,0,3,0.127,3.558,9.263,0.153,0.018,-0.023,7.084,-0.759,7.659,3.009,1.326,-1.799,angry
3.38,1839,2559,3485,2816,2640,0,2912,3024,0,0,0,0,0,0,0,0,-0.029,3.749,9.287,0.142,0.012,-0.031,10.017,-2.825,6.812,3.559,0.75,-1.896,angry
3.39,2027,2672,3601,2928,2786,0,2922,2987,0,0,0,0,0,0,0,0,-0.156,3.589,9.21,0.131,0.003,-0.014,10.602,-4.559,5.72,3.607,0.175,-2.365,angry
3.4,2168,2800,3664,3023,2892,0,2877,2906,0,0,0,0,0,0,0,0,-0.196,3.567,9.242,0.122,0.015,-0.025,9.747,-5.179,5.938,3.399,-0.376,-2.547,angry
3.41,2285,2878,3722,3103,3013,0,2863,2700,0,0,0,0,0,0,0,0,-0.014,4.01,9.294,0.118,0.028,-0.027,9.182,-7.247,12.522,3.08,-1.529,-2.902,angry
3.42,2141,2710,3483,2879,2833,0,2582,2253,0,0,0,0,0,0,0,0,0.043,3.689,9.534,0.114,0.077,-0.044,9.843,-9.131,15.455,3.323,-1.867,-3.194,angry
3.43,2544,3113,3812,3267,3188,0,2757,1967,0,0,0,0,0,0,0,0,0.012,3.548,9.084,0.183,0.034,-0.048,10.961,-13.223,12.23,3.12,-1.454,-3.956,angry
3.44,2704,3234,3846,3351,3199,0,2524,501,0,0,0,0,0,0,0,0,0.46,4.662,10.278,0.114,0.042,-0.042,2.112,-19.613,16.491,2.27,-2.522,-4.228,angry
3.45,2847,3354,3888,3455,3015,0,2142,0,0,0,0,0,0,0,0,0,-0.081,2.749,8.478,0.254,-0.02,-0.006,-4.975,-19.613,5.212,1.411,-2.839,-3.33,angry
3.46,3053,3478,3918,3507,2721,0,1361,0,0,0,0,0,0,0,0,0,-0.204,3.369,9.064,0.471,-0.033,0.046,-7.128,-19.613,2.33,0.839,-2.359,-2.113,angry
3.47,3229,3562,3920,3571,2278,0,1108,0,0,0,0,0,0,0,0,0,0.239,3.764,8.325,1.021,-0.007,0.283,-6.424,-19.613,-1.264,-1.234,1.526,-0.412,angry
3.48,3392,3637,3959,3583,1709,0,1154,0,0,0,0,0,0,0,233,885,0.017,2.677,8.502,1.294,-0.172,0.451,-17.564,-1.93,19.613,-2.242,4.123,0.862,angry
3.49,3456,3650,3931,3507,971,0,963,0,0,0,0,0,0,0,757,2301,-0.407,1.8,9.029,2.195,-0.319,0.61,-19.613,-0.235,19.613,-3.114,1.163,1.189,angry
3.5,3499,3568,3914,3215,884,0,606,0,0,0,0,0,0,0,1447,3343,-0.405,2.72,8.605,3.437,-0.408,0.432,19.613,-19.613,17.418,-3.405,3.805,1.479,angry
3.51,3411,2984,3730,2273,683,0,0,0,0,0,0,0,0,0,2447,3619,0.256,4.135,12.747,5.193,-1.919,-0.382,-1.913,0.694,15.16,-0.41,0.953,0.748,angry
3.52,2625,2176,3009,432,208,0,0,0,0,0,217,0,35,29,2675,3671,3.282,5.504,19.613,8.731,-5.403,-0.986,3.084,-2.686,7.618,-0.149,0.759,0.398,angry
3.53,1642,223,143,0,0,0,0,0,0,429,2469,1132,2,0,2995,3783,-4.441,12.766,19.613,8.731,-3.933,-1.434,0.658,-3.879,10.958,-0.126,0.438,0.283,angry
3.54,0,0,0,0,0,0,0,0,0,1451,2897,2275,205,0,3181,3861,7.374,13.029,16.941,5.853,-3.702,-2.707,0.721,-3.151,9.764,-0.113,0.133,0.152,angry
3.55,0,0,0,0,0,0,0,0,7,1741,2940,2504,611,7,3261,3833,-3.694,19.613,19.613,0.736,-1.515,-3.949,0.804,-3.117,9.991,-0.037,0.101,0.098,angry
3.56,0,0,0,0,0,0,0,0,68,1883,3009,2633,921,69,3357,3903,5.054,2.559,19.613,-0.56,-1.166,-2.985,0.8,-2.689,10.017,-0.056,0.078,0.095,angry
3.57,0,0,0,0,0,0,0,0,155,1963,3061,2797,1405,35,3389,3801,3.982,-1.865,12.361,-1.965,-0.381,-3.357,0.84,-2.713,10.046,-0.029,0.099,0.071,angry
3.58,0,0,0,0,0,0,0,0,125,2031,3096,3022,1651,31,3401,3741,4.415,-2.399,7.429,-2.14,-0.695,-2.691,0.783,-2.756,9.943,-0.014,0.127,0.044,angry
3.59,0,0,0,0,0,0,0,0,293,2105,3137,3155,1558,45,3311,3614,6.06,-0.419,8.104,-2.56,-0.565,-1.713,0.682,-2.775,9.661,-0.021,0.06,0.029,angry
3.6,0,0,0,0,0,0,0,0,312,2106,3127,3242,1495,45,3222,3530,6.282,1.82,10.01,-3.44,-0.583,-0.539,0.338,-2.497,9.941,-0.036,0.034,0.021,angry
3.61,0,0,0,0,0,0,0,0,373,2157,3130,3243,1373,45,2984,3253,5.131,2.528,8.183,-4.133,-0.548,0.517,0.606,-2.562,9.79,-0.002,0.044,0.017,angry
3.62,0,0,0,0,0,0,0,0,463,2223,3145,3305,1191,87,2600,2815,2.186,4.329,8.997,-4.511,-0.742,1.101,0.575,-2.435,9.776,-0.006,0.043,0.031,angry
3.63,0,0,0,0,0,0,0,0,487,2275,3140,3334,1143,46,2503,2592,-0.165,5.428,8.842,-4.894,-0.955,1.176,0.548,-2.77,9.728,0.005,0.047,0.026,angry
3.64,0,0,0,0,0,0,0,0,569,2443,3178,3383,1323,45,2291,2149,-0.948,6.076,10.233,-4.958,-1.219,1.099,0.522,-2.583,9.857,-0.035,0.064,0.046,angry
3.65,0,0,0,0,0,0,0,0,568,2602,3201,3433,1787,47,2375,1687,-1.602,6.642,12.797,-4.997,-1.446,0.992,0.546,-2.523,9.656,-0.029,0.059,0.043,angry
3.66,0,0,0,0,0,0,0,0,622,2671,3212,3479,1939,50,2351,1553,-0.809,8.6,16.281,-4.924,-1.698,0.818,0.534,-2.227,9.828,-0.051,0.061,0.038,angry
3.67,0,0,0,0,0,0,0,0,872,2825,3227,3563,2389,56,2349,1084,3.819,19.02,16.565,-4.893,-1.488,1.03,0.821,-3.055,9.567,-0.015,0.019,0.048,angry
3.68,0,0,0,0,0,0,0,0,1043,2901,3268,3725,2587,47,2334,462,-0.709,19.613,8.997,-3.971,-0.953,1.683,0.668,-2.526,9.766,-0.081,0.014,0.053,angry
3.69,0,0,0,0,0,0,0,0,1364,2931,3247,3811,2582,39,1972,147,-5.528,19.613,4.223,-3.102,-0.761,1.775,0.666,-2.531,9.85,-0.112,-0.002,0.044,angry
3.7,0,0,0,0,0,0,0,0,1811,3110,3263,4051,2375,0,1087,8,-4.879,19.613,-17.145,-1.253,0.459,1.645,0.134,-2.569,9.768,-0.12,0.037,0.043,angry
3.71,0,0,0,0,0,0,0,1007,2132,3237,3291,3983,1233,3,239,0,-10.673,19.613,-17.731,3.049,0.355,1.549,0.438,-3.598,9.021,-0.925,0.311,-0.242,angry
3.72,0,0,0,0,0,0,1106,3295,2389,3275,3291,3996,663,0,271,1,-19.613,-7.877,19.613,4.597,2.431,-1.775,0.508,-2.021,9.929,-0.933,0.123,-0.338,angry
3.73,0,0,0,0,0,0,1602,3557,2694,3245,3258,3929,18,0,365,0,1.324,9.943,9.232,4.54,0.725,-1.397,2.579,1.999,10.853,-2.16,-0.585,-0.476,angry
3.74,975,0,0,0,192,0,2402,3570,2428,2345,3370,3929,0,0,0,0,-12.397,18.534,19.613,-0.713,-0.703,0.686,1.664,-1.602,10.353,-4.251,-0.479,-1.078,angry
3.75,1492,1407,1991,443,260,0,2682,3541,2045,1484,3485,3872,0,3,0,0,-0.362,5.169,8.921,0.511,0.23,-0.093,-0.632,-2.334,7.503,-6.844,0.968,-0.376,angry
3.76,1858,2019,2921,2304,1217,0,2913,3616,1334,0,2485,1647,0,24,0,0,-0.551,3.752,10.003,0.082,0.195,-0.038,4.508,3.428,19.613,-8.731,-0.615,3.642,angry
3.77,2140,2342,3200,2559,1679,314,3082,3648,0,0,0,0,0,0,0,0,0.627,4.379,9.191,-0.016,0.262,-0.071,-1.894,-6.448,19.613,-8.731,-0.446,3.864,angry
3.78,2272,2515,3370,2756,2059,657,3146,3649,0,0,0,0,0,0,0,0,0.508,3.986,9.407,0.073,0.075,-0.018,4.647,2.883,19.613,-2.782,0.759,5.283,angry
3.79,2397,2626,3446,2864,2225,682,3152,3603,0,0,0,0,0,0,0,0,0.333,3.651,9.153,0.052,0.097,-0.007,7.946,6.199,19.613,0.838,-1.241,3.96,angry
3.8,2448,2704,3515,2945,2263,0,3043,3502,0,0,46,0,0,0,0,0,0.266,3.797,9.44,0.055,0.088,-0.011,11.878,4.662,8.25,2.347,-0.086,2.429,angry
3.81,2485,2758,3557,3002,2185,0,2810,3391,0,0,0,0,0,23,0,0,0.421,3.843,9.273,0.06,0.107,-0.027,10.795,3.498,7.539,2.624,-0.646,1.151,angry
3.82,2528,2839,3569,3056,1895,0,2522,3213,0,0,0,0,0,0,0,0,0.268,3.759,9.287,0.07,0.098,-0.023,8.327,1.745,7.851,3.148,-1.609,-1.052,angry
3.83,2530,2845,3583,3067,1745,0,2317,3065,0,0,0,0,0,0,0,0,0.055,3.656,9.337,0.085,0.097,-0.022,5.466,0.821,8.653,3.566,-1.786,-1.748,angry
3.84,2549,2851,3604,3093,1642,0,2062,2913,0,55,276,0,0,0,0,0,-0.074,3.642,9.134,0.089,0.104,-0.024,3.282,-0.215,9.404,4.031,-1.752,-2.113,angry
3.85,2559,2864,3637,3131,1615,0,1769,2599,0,0,0,0,0,0,0,0,0.067,3.706,9.203,0.094,0.101,-0.03,-0.464,-2.291,11.511,4.873,-1.87,-2.163,angry
3.86,2555,2819,3583,3118,1517,0,1649,2232,0,0,0,0,44,0,0,0,0.079,3.783,9.261,0.1,0.098,-0.029,-1.307,-3.007,11.928,5.145,-1.984,-2.013,angry
3.87,2659,2888,3721,3214,1903,0,1553,1756,0,0,0,0,0,0,0,0,-0.153,3.704,9.294,0.114,0.151,-0.036,-2.368,-4.535,13.257,5.395,-2.17,-1.624,angry
3.88,2751,2928,3763,3266,2129,0,1721,1471,0,0,0,0,0,0,0,0,0.148,3.91,9.431,0.127,0.188,-0.037,-1.156,-6.809,18.033,5.267,-2.768,-1.32,angry
3.89,2827,2999,3796,3369,2404,0,1670,1059,0,0,0,0,0,0,0,0,-0.014,3.728,9.242,0.156,0.167,-0.018,0.026,-10.511,19.613,5.385,-2.911,-1.458,angry
3.9,2928,3120,3830,3474,2549,0,1424,0,9,0,0,0,0,0,0,0,0.007,3.802,9.419,0.193,0.11,0.022,-0.227,-19.613,19.613,4.938,-2.386,-2.362,angry
3.91,2989,3208,3856,3540,2459,0,1107,0,0,0,0,0,0,0,0,0,0.237,3.668,9.488,0.325,0.104,0.066,-1.872,-19.613,13.618,4.132,-1.595,-2.412,angry
3.92,3071,3314,3887,3607,2342,0,850,0,0,0,0,0,0,0,0,0,0.517,3.67,9.862,0.505,0.06,0.139,-5.009,-19.613,4.741,3.165,-1.057,-2.088,angry
3.93,3153,3392,3909,3666,1936,0,448,0,0,0,0,0,0,0,0,5,0.223,3.414,9.582,0.771,0.031,0.243,-7.609,-19.613,-3.9,2.29,-1.201,-1.521,angry
3.94,3267,3447,3922,3706,1620,0,387,0,0,2,0,72,0,0,0,0,-0.51,2.811,9.632,0.9,0.101,0.359,-7.57,-19.613,-4.604,0.849,-1.543,-1.241,angry
3.95,3485,3456,3945,3755,672,0,176,0,0,0,0,0,0,8,0,0,0.383,3.146,8.303,1.584,0.05,0.653,-0.46,-19.613,-15.088,-3.893,0.789,-1.814,angry
3.96,3574,3360,3952,3744,560,0,102,0,0,0,0,0,0,0,17,0,0.864,2.255,8.085,1.996,-0.009,0.836,6.053,-9.555,13.862,-2.095,3.644,0.006,angry
3.97,3639,3168,4029,3760,176,0,55,0,0,0,0,0,0,0,500,1193,0.462,2.895,10.609,2.384,0.218,0.891,-11.475,8.854,19.613,-3.785,1.1,-0.384,angry
3.98,3706,2825,3920,3717,0,0,0,0,0,0,0,0,0,0,635,2569,2.492,4.075,10.379,3.932,1.141,1.092,-19.613,16.245,0.84,-5.762,-1.207,0.375,angry
3.99,3706,2675,3856,3548,0,0,0,0,0,0,0,0,34,0,1170,3415,1.068,4.994,6.646,4.732,1.408,0.717,-7.688,-17.985,12.402,-4.916,-0.309,2.515,angry
4,3199,1840,3222,2621,0,0,0,0,0,0,0,0,74,0,2703,3871,0.838,7.681,18.414,7.443,1.088,-0.096,2.282,-8.502,19.613,0.338,3.108,0.166,angry
4.01,2885,653,2765,2327,0,0,0,0,0,0,0,0,39,0,2867,3937,-7.075,15.028,19.613,8.731,-2.531,-2.451,-0.524,-7.499,19.613,0.091,1.44,0.365,angry
4.02,1322,0,101,0,0,0,0,0,0,369,0,87,103,7,3059,4021,0.187,19.613,19.613,8.731,-1.936,-4.216,1.779,-3.012,9.594,0.078,0.32,0.085,angry
4.03,0,0,0,0,0,0,0,0,1,1033,1701,143,197,1,3191,4027,4.745,13.779,19.613,6.325,-0.328,-3.956,0.546,-2.411,10.24,0.053,0.232,0.069,angry
4.04,0,0,0,0,0,0,0,0,5,1580,1911,339,507,0,3336,4025,3.797,19.613,19.613,1.519,0.576,-3.228,1.271,-2.528,9.871,0.01,0.132,0.09,angry
4.05,0,0,0,0,0,0,0,0,1,1749,2316,691,819,14,3430,3979,11.985,-0.213,19.613,0.01,-0.25,-1.317,1.152,-2.442,9.998,-0.075,0.099,0.147,angry
4.06,0,0,0,0,0,0,0,0,1,1901,2311,905,1085,0,3467,4007,10.76,0.014,11.384,-1.116,1.053,-1.308,0.967,-2.705,10.003,-0.017,0.12,0.119,angry
4.07,0,0,0,0,0,0,0,0,0,1942,2648,1053,1304,1,3487,3967,5.478,-3.347,11.411,-1.51,0.76,-0.888,0.57,-2.555,9.682,-0.031,0.083,0.059,angry
4.08,0,0,0,0,0,0,0,0,0,1944,2756,1200,1387,2,3467,3892,4.374,-1.008,8.32,-1.848,0.069,-0.507,0.735,-2.555,10.065,-0.037,0.068,0.025,angry
4.09,0,0,0,0,0,0,0,0,0,2013,2797,1338,1485,2,3415,3759,4.35,-2.033,7.664,-2.215,-0.546,-0.258,0.919,-2.521,9.737,-0.016,0.064,0.021,angry
4.1,0,0,0,0,0,0,0,0,0,2063,2833,1387,1524,7,3352,3624,5.409,-1.36,6.555,-2.604,-0.711,0.046,0.898,-2.497,9.732,-0.027,0.087,0.013,angry
4.11,0,0,0,0,0,0,0,0,1,2109,2863,1491,1549,0,3261,3389,5.399,-0.407,6.857,-2.953,-0.642,0.352,0.807,-2.37,9.598,-0.028,0.08,0.032,angry
4.12,0,0,0,0,0,0,0,0,0,2132,2894,1549,1495,0,3147,3261,4.334,1.132,8.389,-3.448,-0.716,0.67,0.745,-2.476,9.708,-0.042,0.086,0.039,angry
4.13,0,0,0,0,0,0,0,0,3,2145,2899,1548,1519,2,2925,3259,3.211,2.188,8.229,-3.958,-0.94,0.986,0.656,-2.392,9.74,-0.046,0.08,0.055,angry
4.14,0,0,0,0,0,0,0,0,0,2134,2933,1750,1567,1,2846,3273,2.207,2.38,7.142,-4.307,-1.067,1.134,0.639,-2.392,9.795,-0.051,0.071,0.081,angry
4.15,0,0,0,0,0,0,0,0,3,2088,2979,1939,1674,2,2851,3227,0.874,2.854,7.391,-4.493,-1.205,1.162,0.761,-2.588,9.723,-0.061,0.076,0.089,angry
4.16,0,0,0,0,0,0,0,0,2,2239,3020,2133,1764,27,3063,3177,-0.318,4.149,9.031,-4.651,-1.536,1.166,0.56,-2.476,9.749,-0.06,0.084,0.094,angry
4.17,0,0,0,0,0,0,0,0,2,2295,3053,2247,1899,3,2927,3145,-0.223,5.076,9.907,-4.788,-1.855,1.188,0.654,-2.488,9.735,-0.064,0.102,0.103,angry
4.18,0,0,0,0,0,0,0,0,1,2363,3160,2403,2069,1,2923,3180,-0.144,5.861,10.654,-4.911,-1.877,1.19,0.666,-2.593,9.732,-0.07,0.115,0.109,angry
4.19,0,0,0,0,0,0,0,0,26,2469,3109,2531,2231,0,2911,3141,-0.831,6.721,11.969,-4.945,-1.889,1.164,0.654,-2.545,9.852,-0.11,0.11,0.122,angry
4.2,0,0,0,0,0,0,0,0,59,2585,3150,2699,2379,1,2957,3081,-1.346,8.789,16.364,-4.972,-2.409,1.179,0.551,-2.682,9.787,-0.108,0.119,0.109,angry
4.21,0,0,0,0,0,0,0,0,383,2769,3191,3043,2663,47,2925,2908,2.435,13.836,19.613,-4.879,-2.553,1.302,0.405,-2.82,9.491,-0.068,0.115,0.099,angry
4.22,0,0,0,0,0,0,0,0,601,2890,3255,3289,2931,50,2899,2493,-0.053,19.613,15.203,-4.942,-1.65,2.409,1.037,-3.026,9.723,-0.074,0.056,0.084,angry
4.23,0,0,0,0,0,0,0,0,700,2953,3209,3405,3043,47,2835,2173,-5.89,19.613,10.405,-3.692,-1.391,2.533,0.656,-2.119,9.756,-0.116,0.037,0.063,angry
4.24,0,0,0,0,0,0,0,0,1144,3119,3245,3611,3115,51,2584,404,-4.997,19.613,-5.588,-2.835,0.367,2.406,0.366,-2.588,9.651,-0.189,0.009,0.052,angry
4.25,0,0,0,0,0,0,0,0,1683,3272,3260,3765,2648,39,1143,199,-15.818,19.613,-19.613,0.333,-0.13,1.487,0.29,-2.806,9.306,-0.026,-0.001,0.11,angry
4.26,0,0,0,0,0,0,0,1879,1897,3307,2940,3811,2329,29,425,85,7.767,12.656,-14.181,2.213,2.771,0.707,-0.093,0.153,9.778,-0.739,0.059,-0.178,angry
4.27,0,0,0,0,0,0,1089,3329,2331,3411,3293,3743,1275,2,281,0,-19.613,0.369,14.698,6.361,-1.78,0.33,0.91,-2.509,9.677,-1.116,0.137,-0.224,angry
4.28,0,0,0,0,0,0,2063,3522,2530,3417,3314,3227,87,0,331,0,1.808,19.575,19.613,4.081,0.059,-1.285,2.265,-0.97,8.696,-2.563,-0.585,-0.514,angry
4.29,1343,32,0,0,301,0,2614,3503,2596,3317,3345,3277,163,1,327,0,-0.383,-2.32,0.433,0.421,2.428,-0.807,1.164,1.753,11.076,-3.915,-0.591,-0.764,angry
4.3,1584,1270,2240,1058,496,0,2807,3520,1587,1685,3483,2425,283,0,0,0,1.781,7.661,12.084,-0.05,0.478,-0.108,-0.745,0.369,9.251,-8.731,-0.668,0.005,angry
4.31,1803,1817,2913,2270,1335,0,2972,3601,1033,0,0,122,0,0,0,0,0.005,3.967,9.78,0.055,0.255,-0.05,0.505,-14.904,19.489,-8.731,-2.473,3.224,angry
4.32,2054,2153,3223,2611,1750,205,3105,3621,249,0,0,0,0,0,0,0,0.268,3.692,8.456,0.078,0.016,0.001,1.113,-12.05,19.613,-8.731,-1.204,3.847,angry
4.33,2238,2388,3385,2800,2079,432,3152,3603,0,0,0,0,0,0,0,0,0.223,4.156,9.603,0.035,0.06,-0.015,7.74,-6.148,19.613,-1.047,1.131,5.522,angry
4.34,2332,2559,3482,2941,2301,410,3159,3519,0,0,0,0,0,0,0,0,0.278,3.603,9.28,0.072,0.06,-0.003,7.822,2.909,13.29,0.904,-1.569,3.373,angry
4.35,2443,2714,3549,3017,2422,0,3029,3344,0,0,0,0,0,0,0,0,0.543,3.929,9.38,0.095,0.09,-0.033,11.119,3.938,10.118,1.858,-1.01,2.818,angry
4.36,2495,2815,3629,3088,2407,0,2756,3130,0,1,0,0,0,0,0,0,0.254,3.78,9.407,0.09,0.118,-0.023,9.845,2.009,8.466,2.921,-0.132,0.811,angry
4.37,2457,2734,3423,3053,2135,0,2352,2860,0,0,0,0,0,0,0,0,0.113,3.62,9.064,0.104,0.118,-0.019,8.38,2.105,7.187,3.329,-0.402,-0.172,angry
4.38,2620,2896,3664,3172,2130,0,2244,2720,0,0,0,0,0,0,0,0,0.014,3.625,9.22,0.099,0.115,-0.023,7.022,1.607,6.689,3.626,-0.798,-0.98,angry
4.39,2627,2918,3682,3202,1994,0,1984,2416,0,0,0,0,0,0,0,0,0.113,3.754,9.225,0.099,0.121,-0.024,5.356,0.268,8.097,4.007,-1.086,-1.584,angry
4.4,2656,2942,3701,3205,1819,0,1823,1879,0,0,0,0,0,0,0,0,0.16,3.713,9.311,0.12,0.116,-0.028,3.955,-1.144,9.153,4.497,-1.191,-1.978,angry
4.41,2752,2978,3742,3279,1662,0,1438,838,0,0,0,0,23,0,0,0,0.089,3.816,9.246,0.172,0.11,-0.006,1.415,-3.139,9.941,5.367,-0.973,-2.112,angry
4.42,2781,3034,3781,3342,1701,0,1168,97,0,0,0,0,0,0,0,0,0.103,4.022,9.402,0.164,0.109,0.004,0.22,-3.61,10.496,5.592,-1.111,-1.956,angry
4.43,2826,3088,3786,3391,1674,0,1105,0,0,0,63,0,0,0,0,0,0.122,3.91,9.239,0.17,0.14,-0.006,-0.754,-4.618,12.273,5.725,-1.449,-1.746,angry
4.44,2855,3138,3814,3457,1920,0,829,0,0,0,0,0,0,0,0,0,-0.031,3.768,9.522,0.182,0.113,-0.005,-0.546,-6.381,15.905,5.856,-2.193,-1.397,angry
4.45,2836,3099,3744,3376,1935,0,669,0,0,0,0,0,0,0,45,0,0.06,3.84,9.323,0.194,0.136,-0.008,1.64,-7.949,18.62,5.785,-2.498,-1.431,angry
4.46,2960,3195,3841,3541,1988,0,564,0,0,0,0,0,0,0,0,0,0.007,3.994,9.345,0.208,0.084,-0.011,5.131,-13.005,19.613,5.905,-2.356,-1.711,angry
4.47,2896,3161,3625,3522,1911,0,401,0,0,0,0,0,0,0,0,0,0.014,3.898,9.328,0.224,0.075,-0.012,4.211,-18.543,19.613,5.836,-2.055,-2.502,angry
4.48,3041,3275,3858,3613,2025,0,405,0,0,0,0,0,0,0,0,5,-0.024,3.804,9.172,0.259,0.031,-0.004,2.081,-19.613,19.613,5.504,-1.476,-2.951,angry
4.49,3119,3312,3879,3654,2067,0,451,0,0,0,0,0,0,0,0,25,0.029,3.67,9.076,0.288,0.044,0.03,-0.924,-19.613,14.964,4.841,-0.76,-2.721,angry
4.5,3198,3359,3889,3687,2017,0,422,0,0,51,135,0,0,0,0,0,0.124,3.093,9.443,0.431,0.056,0.118,-5.945,-19.613,2.789,3.594,-0.909,-1.876,angry
4.51,3216,3373,3717,3658,1302,0,272,0,0,0,0,0,0,0,0,0,0.158,3.716,9.488,0.836,0.074,0.325,-3.797,-19.613,-8.406,-0.089,-2.415,-1.752,angry
4.52,3450,3502,3932,3744,1134,0,236,0,0,0,0,0,4,0,0,0,-0.213,3.156,8.851,1.069,0.023,0.507,-4.831,-19.613,-11.677,-1.985,-0.885,-2.181,angry
4.53,3583,3447,3950,3755,711,0,126,0,0,0,0,0,0,0,0,0,0.505,3.237,9.376,1.684,-0.012,0.786,-10.673,-19.613,-14.514,-3.217,1.381,-1.997,angry
4.54,3673,3193,3951,3741,303,0,130,0,0,0,0,0,0,0,653,2535,1.714,2.626,9.591,3.072,0.317,1.051,-19.613,6.917,19.613,-6.247,-0.684,0.673,angry
4.55,3696,2929,3908,3657,147,0,0,0,0,0,0,0,0,0,2041,3829,2.543,6.97,9.309,4.254,1.537,1.149,7.381,-14.284,18.632,-3.93,-0.843,1.997,angry
4.56,3525,2559,3764,2974,0,0,0,0,0,0,0,9,0,0,2679,3929,1.171,11.657,5.236,6.873,1.304,0.941,5.605,-19.613,19.613,0.394,2.173,0.36,angry
4.57,3165,1846,3214,2508,0,0,0,0,0,69,0,0,39,0,2847,4037,1.336,7.784,19.613,8.731,-2.187,-1.164,-6.596,2.109,10.688,0.118,3.412,1.061,angry
4.58,1343,0,927,272,0,0,0,0,0,1287,191,0,37,1,2941,4011,-3.031,15.332,19.35,8.731,-2.16,-4.272,-1.762,-2.497,16.834,-0.234,0.538,0.271,angry
4.59,0,0,0,0,0,0,0,0,12,1783,1960,228,220,1,3181,4031,9.737,11.315,19.613,4.316,-0.34,-4.571,1.049,-2.152,9.565,-0.001,0.419,0.211,angry
4.6,0,0,0,0,0,0,0,0,0,1931,2357,532,532,1,3278,4038,-3.309,14.222,19.613,1.064,0.168,-2.709,1.044,-2.337,9.814,-0.153,0.283,0.256,angry
4.61,0,0,0,0,0,0,0,0,4,1951,2357,1055,871,1,3351,4024,7.817,0.958,19.613,-0.309,-1.013,-1.898,1.099,-2.88,9.984,-0.097,0.206,0.153,angry
4.62,0,0,0,0,0,0,0,0,20,2095,2741,1477,1079,5,3375,4011,9.29,-0.086,10.422,-1.666,0.148,-1.99,0.699,-2.646,9.723,-0.105,0.152,0.118,angry
4.63,0,0,0,0,0,0,0,0,39,2165,2817,1689,1289,11,3381,3981,5.284,-0.781,7.738,-2.18,-0.041,-1.418,0.725,-2.634,9.876,-0.111,0.116,0.1,angry
4.64,0,0,0,0,0,0,0,0,50,2331,2904,2357,1515,7,3353,3829,5.856,-1.219,6.709,-2.705,-0.844,-0.653,0.943,-2.751,9.967,-0.149,0.176,0.071,angry
4.65,0,0,0,0,0,0,0,0,55,2486,3055,2631,1588,14,3148,3579,6.361,0.256,7.446,-3.36,-0.912,0.179,0.62,-2.686,9.811,-0.115,0.122,0.067,angry
4.66,0,0,0,0,0,0,0,0,217,2573,3063,2749,1629,41,2940,3195,5.188,1.03,7.824,-3.845,-0.896,0.644,0.713,-2.698,9.653,-0.072,0.127,0.068,angry
4.67,0,0,0,0,0,0,0,0,328,2587,3091,2853,1643,46,2600,2907,2.497,1.686,7.254,-4.383,-1.16,1.15,0.498,-2.607,9.768,-0.098,0.085,0.071,angry
4.68,0,0,0,0,0,0,0,0,376,2757,3145,3045,1810,47,2313,2471,0.436,3.139,9.323,-4.739,-1.565,1.277,0.567,-2.729,9.723,-0.09,0.064,0.052,angry
4.69,0,0,0,0,0,0,0,0,539,2841,3171,3134,1897,47,2087,2163,-0.874,5.308,10.968,-5.149,-1.91,1.248,0.632,-2.751,9.764,-0.086,0.056,0.035,angry
4.7,0,0,0,0,0,0,0,0,529,2869,3176,3221,1959,47,2072,2119,-2.054,6.632,12.378,-5.275,-2.221,1.084,0.668,-2.808,9.677,-0.07,0.069,0.035,angry
4.71,0,0,0,0,0,0,0,0,655,2939,3191,3323,2195,47,2121,1607,-1.374,8.195,16.197,-5.088,-2.648,1.025,0.622,-2.816,9.768,-0.014,0.036,0.044,angry
4.72,0,0,0,0,0,0,0,0,1032,3043,3043,3518,2408,45,2195,1296,3.117,16.182,19.613,-4.788,-2.898,1.281,0.589,-2.861,9.565,-0.005,0.019,0.062,angry
4.73,0,0,0,0,0,0,0,0,1133,2931,3209,3440,2445,46,2002,637,-0.852,19.613,15.598,-4.454,-1.959,2.439,0.694,-2.895,9.62,-0.034,0.038,0.059,angry
4.74,0,0,0,0,0,0,0,0,1629,3077,3227,3729,2519,12,1783,41,-2.897,19.613,9.534,-3.594,-1.173,2.48,0.407,-2.792,9.957,-0.035,-0.033,0.085,angry
4.75,0,0,0,0,0,0,0,0,1848,3207,3252,3859,2415,9,819,35,-11.286,19.613,-8.085,-2.922,0.69,2.363,0.831,-2.538,9.407,-0.092,-0.044,0.078,angry
4.76,0,0,0,0,0,0,0,0,2126,3310,3258,3897,2231,5,351,3,-16.594,19.613,-19.613,0.879,-0.098,1.273,0.321,-2.538,9.594,-0.253,-0.011,0.001,angry
4.77,0,0,0,0,0,0,0,1555,2486,3367,3268,4003,1095,8,207,0,3.44,-0.06,0.699,2.771,4.294,-0.292,-0.182,-2.473,9.651,-0.625,0.193,-0.261,angry
4.78,0,0,0,0,0,0,1089,3188,2648,3427,3299,3947,157,3,115,0,-19.613,-2.243,6.409,6.089,-2.305,0.735,1.583,-2.145,9.649,-1.278,-0.076,-0.376,angry
4.79,0,0,0,0,0,0,1945,3406,2751,3455,3304,3845,22,0,250,30,0.524,16.302,18.771,4.378,0.235,-1.003,3.278,-0.079,10.341,-1.985,-0.591,-0.444,angry
4.8,1232,417,0,0,158,0,2667,3440,2772,3160,3383,3839,77,0,0,0,0.848,-0.019,6.902,-0.599,2.179,-0.425,1.951,-3.021,9.158,-4.114,0.056,-0.912,angry
4.81,1456,1445,2214,381,652,0,2843,3491,1573,1051,3350,3277,155,0,0,0,0.297,7.841,12.74,0.034,0.491,-0.102,5.265,-4.822,19.474,-8.731,0.27,0.634,angry
4.82,1585,1934,2842,1862,1572,0,2997,3570,1288,5,3027,1635,0,0,0,0,0.508,3.706,9.424,0.067,0.224,-0.092,5.006,0.567,19.613,-8.731,-1.573,2.761,angry
4.83,1646,2266,3162,2267,1966,0,3125,3552,71,0,0,0,0,0,0,0,0.182,3.105,9.321,0.148,0.098,-0.045,-0.18,-16.254,19.613,-8.731,-1.199,4.233,angry
4.84,1865,2544,3319,2544,2319,0,3204,3611,0,47,0,0,0,18,0,0,0.453,4.013,9.244,0.071,0.056,-0.021,0.728,-19.613,19.613,0.264,1.601,4.72,angry
4.85,1975,2662,3431,2734,2389,125,3244,3583,0,0,0,0,0,0,0,0,0.232,3.725,9.67,0.033,0.089,-0.019,6.503,1.353,19.613,-0.015,-1.841,3.146,angry
4.86,2091,2720,3505,2829,2527,0,3216,3483,0,0,0,0,0,0,0,0,0.362,3.654,9.385,0.082,0.069,-0.026,11.116,3.053,9.471,2.092,-0.142,2.625,angry
4.87,2114,2764,3541,2874,2608,0,3143,3392,0,0,0,0,0,0,0,0,0.548,3.721,9.409,0.086,0.088,-0.032,10.367,2.509,7.578,2.441,0.283,1.696,angry
4.88,2178,2821,3582,2918,2627,0,3056,3294,0,0,0,0,0,0,39,0,0.493,3.531,9.306,0.104,0.101,-0.03,9.462,1.748,7.453,2.828,-0.244,0.573,angry
4.89,2192,2858,3537,2946,2547,0,2867,3138,0,0,0,0,0,0,0,0,0.144,3.622,9.256,0.104,0.1,-0.026,8.65,1.453,6.627,3.184,-0.676,-0.438,angry
4.9,2139,2801,3617,2935,2353,0,2727,2893,0,0,0,0,0,0,0,0,0.189,3.61,9.263,0.114,0.108,-0.035,7.317,1.154,6.393,3.485,-0.912,-1.27,angry
4.91,2313,2945,3647,3023,2463,0,2519,2750,0,0,0,0,0,0,0,0,0.074,3.589,9.347,0.112,0.113,-0.033,5.444,-0.038,7.547,3.847,-0.992,-1.87,angry
4.92,2394,3006,3667,3061,2411,0,2160,2128,0,0,0,0,0,31,0,0,0.17,3.632,9.225,0.136,0.104,-0.036,1.305,-1.848,9.565,4.889,-0.892,-2.165,angry
4.93,2510,3087,3715,3120,2384,0,1996,1440,0,0,0,28,0,0,59,0,0.275,3.802,9.254,0.124,0.128,-0.017,-0.093,-2.296,9.685,5.241,-0.956,-2.029,angry
4.94,2590,3141,3743,3197,2386,0,1845,862,0,0,0,0,0,0,0,0,0.189,3.864,9.256,0.147,0.125,0.011,-1.484,-3.725,11.638,5.575,-1.533,-1.445,angry
4.95,2691,3193,3788,3279,2471,0,1716,507,0,0,0,0,0,0,0,0,0.144,3.594,9.136,0.155,0.154,-0.006,-0.412,-6.132,16.226,5.872,-2.29,-1.102,angry
4.96,2781,3241,3806,3376,2557,0,1530,0,0,0,0,0,0,0,0,0,0.072,3.534,9.495,0.187,0.113,-0.005,1.796,-8.274,19.02,5.921,-2.482,-1.176,angry
4.97,2801,3281,3824,3439,2559,0,1395,0,0,0,0,0,0,0,1,0,0.184,3.867,9.493,0.188,0.151,-0.016,4.305,-12.864,19.613,5.965,-2.461,-1.597,angry
4.98,2863,3330,3843,3477,2586,0,1184,0,0,0,71,0,0,0,0,0,0.01,3.716,9.469,0.206,0.066,0.004,3.575,-18.634,19.613,5.823,-2.3,-2.507,angry
4.99,2918,3386,3853,3536,2499,0,985,0,0,47,0,0,0,0,0,0,0.041,3.531,8.77,0.277,0.043,0.024,1.233,-19.613,19.613,5.33,-2.004,-3.028,angry
5,2992,3451,3878,3583,2421,0,688,0,0,0,0,0,41,0,0,0,-0.053,3.527,9.323,0.323,0.081,0.06,-0.23,-19.613,16.101,4.619,-1.398,-2.889,angry
5.01,3136,3558,3901,3653,2064,0,579,0,0,0,0,0,0,0,0,0,-0.136,2.473,9.354,0.731,0.081,0.267,-7.642,-19.613,-6.658,2.152,-2.232,-1.717,angry
5.02,3232,3603,3917,3740,1807,0,528,0,0,0,0,0,0,0,0,0,0.019,3.455,9.22,0.945,0.102,0.391,-4.922,-19.613,-14.186,-0.574,-3.32,-1.958,angry
5.03,3423,3648,3944,3725,1043,0,326,0,0,0,0,0,0,0,0,0,0.144,2.892,8.926,1.463,-0.049,0.683,-4.286,-19.613,-10.479,-4.356,0.536,-2.374,angry
5.04,3547,3516,3953,3716,541,0,289,0,0,0,0,0,0,0,275,693,1.211,1.717,9.467,2.406,-0.245,0.899,-8.195,9.828,18.443,-2.599,3.786,0.652,angry
5.05,3582,3277,3931,3695,215,0,228,0,0,0,0,0,0,0,789,2599,2.686,3.184,10.669,3.156,0.14,1.085,-19.613,6.34,19.613,-5.594,-0.997,0.412,angry
5.06,3583,2929,3888,3425,0,0,0,0,0,0,0,0,0,0,2386,3813,2.677,3.668,6.201,5.276,1.565,0.765,-2.255,-19.613,19.613,1.545,8.731,6.469,angry
5.07,3483,2547,3777,3038,0,0,0,0,0,367,0,0,73,0,2764,3911,5.502,14.329,9.594,7.134,1.232,0.475,5.423,-4.585,18.873,1.677,2.951,0.006,angry
5.08,3211,1968,3325,2610,0,0,0,0,0,1389,0,3,5,1,2856,3967,-0.103,5.851,19.613,8.731,-1.991,-1.033,3.745,-12.471,19.613,-0.335,2.239,0.866,angry
5.09,1263,0,1083,327,0,0,0,0,0,1964,2009,47,59,5,3032,4027,-2.696,7.951,18.38,8.731,-1.869,-4.691,-0.862,-1.908,9.184,0.003,0.684,0.303,angry
5.1,0,0,0,0,0,0,0,0,3,2063,2152,763,523,3,3131,4040,7.286,8.947,19.613,5.347,-0.497,-4.137,0.522,-4.685,11.873,-0.024,0.292,0.179,angry
5.11,0,0,0,0,0,0,0,0,23,2255,2357,1023,911,7,3325,4043,-1.585,16.951,19.613,1.24,0.008,-3.083,1.188,-2.382,9.713,-0.073,0.178,0.142,angry
5.12,0,0,0,0,0,0,0,0,25,2445,2677,1398,1249,3,3403,4043,7.817,-1.305,19.613,-0.133,-0.61,-1.936,1.089,-2.571,9.591,-0.118,0.105,0.155,angry
5.13,0,0,0,0,0,0,0,0,82,2636,2966,2123,1645,21,3468,3995,6.404,-1.432,10.142,-1.995,0.599,-1.656,0.718,-2.756,9.675,-0.103,0.105,0.098,angry
5.14,0,0,0,0,0,0,0,0,90,2744,2976,2585,1865,24,3388,3861,4.336,-1.647,6.179,-2.47,-0.068,-1.095,0.814,-2.677,9.747,-0.09,0.132,0.06,angry
5.15,0,0,0,0,0,0,0,0,201,2776,2986,2731,1901,41,3298,3694,5.313,-0.998,5.097,-2.713,-0.865,-0.414,0.929,-2.643,9.594,-0.085,0.123,0.057,angry
5.16,0,0,0,0,0,0,0,0,265,2905,3053,3015,1883,45,2875,3108,5.722,0.663,6.768,-3.367,-0.837,0.279,0.728,-2.78,9.685,-0.079,0.088,0.05,angry
5.17,0,0,0,0,0,0,0,0,425,2922,3096,2963,1811,47,2373,2750,3.256,1.765,7.436,-4.038,-1.004,0.836,0.702,-2.792,9.651,-0.1,0.052,0.052,angry
5.18,0,0,0,0,0,0,0,0,415,2913,3109,3043,1737,47,2187,2578,1.793,3.364,8.566,-4.568,-1.432,1.132,0.651,-2.751,9.723,-0.108,0.056,0.051,angry
5.19,0,0,0,0,0,0,0,0,775,2963,3140,3127,1799,45,2169,2193,0.543,4.53,9.467,-4.911,-1.56,1.167,0.634,-2.868,9.627,-0.097,0.064,0.03,angry
5.2,0,0,0,0,0,0,0,0,1071,3051,3107,3261,1870,47,2133,1956,-1.202,6.764,12.61,-5.031,-2.138,1.142,0.601,-2.919,9.342,-0.011,0.067,0.035,angry
5.21,0,0,0,0,0,0,0,0,1272,3077,3260,3355,1981,45,2173,1835,-0.9,9.12,15.328,-5.18,-2.651,1.111,0.472,-2.54,10.003,-0.055,0.075,0.031,angry
5.22,0,0,0,0,0,0,0,0,1461,3123,3196,3492,2231,47,2169,1544,0.122,14.133,19.453,-4.73,-2.86,1.076,0.524,-2.557,9.62,-0.004,0.016,0.046,angry
5.23,0,0,0,0,0,0,0,0,1599,3157,3214,3645,2323,50,2093,763,-5.207,19.613,14.401,-3.876,-3.375,1.797,0.596,-2.844,9.749,-0.048,-0.012,0.068,angry
5.24,0,0,0,0,0,0,0,0,1583,3191,3217,3702,2391,41,1801,165,-6.821,19.613,4.24,-0.976,-2.623,2.166,0.773,-2.749,9.522,-0.06,-0.045,0.064,angry
5.25,0,0,0,0,0,0,0,0,2019,3225,3232,3853,2341,13,1115,55,-14.439,19.613,-3.467,-1.438,0.414,0.733,0.666,-2.662,9.627,-0.088,0.003,0.04,angry
5.26,0,0,0,0,0,0,0,243,2415,3359,3214,3963,1636,3,155,11,-6.891,19.613,-19.613,0.958,0.256,0.463,0.208,-2.004,9.584,-0.421,0.038,-0.085,angry
5.27,0,0,0,0,0,0,962,2789,2553,3326,3258,4095,1055,2,45,0,-10.446,-6.297,7.202,3.165,3.988,-0.861,0.953,-3.211,9.469,-0.713,0.144,-0.226,angry
5.28,0,0,0,0,0,0,1618,3345,2853,3359,3268,4005,59,0,3,0,-11.344,7.228,5.167,4.229,0.51,-0.755,0.498,-1.271,9.572,-1.109,-0.119,-0.358,angry
5.29,1139,0,0,0,434,0,2337,3386,3087,3179,3296,3883,0,0,0,0,-4.104,8.358,2.555,-1.833,0.571,0.832,2.866,-3.723,8.789,-2.347,-1.119,-0.537,angry
5.3,1424,1317,2374,926,240,0,2511,3408,3003,2617,3334,3799,17,0,1,0,4.544,7.731,12.488,0.586,0.354,-0.079,-0.45,0.419,11.648,-4.145,-0.023,-0.474,angry
5.31,1512,1927,3107,2282,836,0,2591,3296,2029,725,3078,2473,0,0,0,0,-0.484,5.586,9.634,0.237,0.205,0.008,2.55,2.093,19.613,-7.786,0.224,0.951,angry
5.32,1802,2253,3362,2688,1630,0,2796,3408,1114,0,0,159,0,0,0,0,0,3.879,9.342,0.071,0.142,-0.036,-3.768,-2.849,19.613,-8.731,-1.532,3.149,angry
5.33,2006,2433,3420,2823,2017,0,2799,3395,246,0,0,0,0,4,0,0,0.215,3.915,9.653,0.062,0.15,-0.027,0.196,-8.516,19.613,-8.473,-1.313,3.19,angry
5.34,2256,2671,3600,2974,2353,0,2963,3349,0,0,0,0,0,0,0,0,0.187,3.661,9.383,0.088,0.025,-0.003,-3.081,-18.138,17.645,-0.537,1.014,3.674,angry
5.35,2363,2871,3649,3081,2477,0,2928,3184,0,0,0,0,0,0,0,0,0.527,3.754,9.586,0.105,0.057,-0.035,6.943,0.433,11.521,1.402,0.091,2.605,angry
5.36,2479,3008,3698,3137,2518,0,2839,3029,0,0,0,0,0,0,0,0,0.429,3.843,9.407,0.115,0.052,-0.024,8.552,1.992,9.795,2.065,0.202,1.838,angry
5.37,2533,3101,3728,3187,2619,0,2688,2796,0,0,0,54,0,0,17,0,0.366,3.567,9.33,0.113,0.066,-0.012,10.733,1.322,7.523,2.496,0.58,0.657,angry
5.38,2618,3202,3762,3266,2690,0,2357,1995,0,0,0,6,0,0,0,0,0.352,3.809,9.421,0.12,0.07,0.012,10.767,1.465,5.734,2.838,0.792,-0.709,angry
5.39,2649,3268,3791,3298,2689,0,2162,1125,0,0,0,0,0,0,0,0,0.22,3.737,9.275,0.134,0.054,0.02,8.751,1.362,4.31,3.102,0.899,-1.913,angry
5.4,2686,3205,3782,3120,2620,0,1888,361,0,0,0,0,0,0,57,0,0.239,3.807,9.337,0.124,0.072,0.007,6.773,0.464,4.853,3.234,0.801,-2.886,angry
5.41,2698,3334,3790,3329,2582,0,1673,0,0,0,0,0,0,0,0,0,0.292,3.639,9.285,0.142,0.066,0.011,5.746,-0.721,6.05,3.454,0.703,-3.635,angry
5.42,2733,3393,3809,3349,2538,0,1408,0,0,0,0,0,0,0,0,0,0.395,4.005,9.536,0.132,0.058,0.015,4.774,-2.399,7.719,3.773,0.731,-4.215,angry
5.43,2741,3431,3811,3364,2462,0,1175,0,0,11,0,0,17,0,0,0,0.326,3.95,9.064,0.138,0.079,0.003,4.439,-3.699,8.878,4.164,0.893,-4.706,angry
5.44,2764,3440,3813,3385,2368,0,1022,0,0,0,0,0,0,0,0,0,0.314,3.469,9.141,0.164,0.058,0.012,4.312,-4.322,7.848,4.374,1.19,-5.102,angry
5.45,2785,3481,3822,3391,2214,0,784,0,0,0,0,0,0,0,0,0,0.426,4.02,9.258,0.131,0.062,-0.019,4.19,-5.203,6.493,4.408,1.569,-5.321,angry
5.46,2809,3493,3823,3384,2176,0,602,0,0,0,0,0,0,0,0,0,0.321,3.926,9.354,0.143,0.005,-0.015,3.938,-5.229,6.886,4.188,1.734,-5.466,angry
5.47,2758,3492,3787,3292,2032,0,423,0,0,0,0,0,0,0,0,0,0.244,3.859,9.304,0.132,0.037,-0.025,9.689,-6.833,8.351,3.884,1.835,-5.739,angry
5.48,2832,3562,3854,3361,2081,0,462,0,0,0,0,0,8,0,0,0,0.385,3.663,9.203,0.183,0.009,-0.019,18.186,-10.709,8.435,3.529,2.866,-6.767,angry
5.49,2862,3573,3858,3344,2086,0,352,0,0,0,0,69,0,0,0,0,0.163,4.247,9.234,0.171,0.048,-0.03,19.613,-16.46,5.224,2.859,3.996,-8.437,angry
5.5,2886,3571,3845,3351,2101,0,430,0,0,0,0,0,0,19,0,0,0.158,3.819,9.311,0.148,0.049,-0.035,14.559,-19.613,3.728,1.986,5.099,-8.731,angry
5.51,2918,3600,3856,3382,2192,0,541,0,0,0,0,0,0,0,0,20,0.12,3.996,9.268,0.107,0.056,-0.049,12.431,-19.613,-1.537,0.799,5.445,-8.731,angry
5.52,2944,3632,3863,3406,2293,0,579,0,0,0,0,0,0,0,0,0,0.321,3.986,9.574,0.109,-0.006,-0.061,14.068,-19.613,-5.291,-0.254,6.077,-8.623,angry
5.53,2690,3330,3615,3088,2192,0,531,0,0,0,0,302,0,72,0,0,0.268,4.463,9.682,-0.011,-0.101,-0.092,19.613,-19.613,17.638,-0.762,0.513,-8.731,angry
5.54,2903,3519,3822,3237,2431,0,961,0,41,345,2889,1589,0,0,0,0,-0.007,3.953,8.993,-0.203,-0.186,-0.14,-6.653,-19.613,1.614,1.822,0.583,-2.29,angry
5.55,2738,3280,3701,3024,2397,0,1605,0,243,1912,2994,1881,51,0,0,0,-1.786,2.677,9.862,-0.168,-0.279,-0.456,12.1,-7.147,11.454,2.571,0.445,-0.481,angry
5.56,2321,3113,3522,2711,1971,0,1651,386,233,2927,3109,1975,1688,0,809,0,-4.149,1.496,10.372,-0.064,-0.776,-1.856,3.967,-3.51,9.692,1.022,-0.754,0.355,angry
5.57,1557,2819,3310,2243,1059,0,1091,0,461,3068,3160,2484,2791,2,2966,0,-4.7,2.188,10.362,0.007,-1.812,-4.639,0.299,-4.216,11.825,0.019,0.272,0.156,angry
5.58,961,2100,2800,997,74,0,176,0,699,2983,3214,2701,2636,880,3191,694,-1.334,5.935,8.995,0.042,-2.775,-7.276,0.551,-2.947,8.892,0.068,0.547,0.183,angry
5.59,273,0,599,0,0,0,0,0,959,2840,3258,2861,2687,1498,3311,2785,4.702,15.251,8.215,-0.489,-3.024,-8.731,0.247,-2.538,9.713,0.109,0.027,0.078,angry
5.6,0,0,0,0,0,0,0,0,969,2757,3130,2776,2760,45,3436,3049,6.658,18.644,5.816,-0.24,-3.75,-8.655,0.807,-2.37,9.155,0.017,-0.221,0.042,angry
5.61,0,0,0,0,0,0,0,0,856,2935,3155,2663,2766,47,3443,3087,10.355,14.152,2.756,-1.345,-2.562,-6.501,0.678,-2.746,9.12,0.038,-0.17,0.042,angry
5.62,0,0,0,0,0,0,0,0,712,2927,3089,2601,2712,23,3465,3112,-0.237,9.474,1.827,0.094,-2.591,-5.271,1.216,-2.523,9.723,0.016,0.031,0.018,angry
5.63,0,0,0,0,0,0,0,0,781,2931,3068,2729,2495,73,3430,3146,0.91,8.617,6.124,0.35,-1.984,-4.63,0.747,-2.65,9.685,-0.01,0.095,0.024,angry
5.64,0,0,0,0,0,0,0,0,777,2821,3068,2793,2268,0,3420,3165,-3.464,5.435,7.084,0.474,-1.548,-4.402,0.682,-2.83,9.527,0.019,0.096,0.021,angry
5.65,0,0,0,0,0,0,0,0,728,2797,3084,2826,2301,47,3389,3183,-3.357,4.482,6.922,0.571,-1.66,-4.513,0.599,-2.77,9.864,0.048,0.106,-0.003,angry
5.66,0,0,0,0,0,0,0,0,531,2551,3037,2861,2107,48,3319,3241,-3.299,3.668,8.08,0.62,-1.544,-4.882,0.505,-2.591,9.776,0.037,0.071,-0.014,angry
5.67,0,0,0,0,0,0,0,0,531,2377,3007,2872,2142,52,3299,3279,-2.655,3.302,8.361,0.499,-1.532,-5.25,0.627,-2.789,9.67,0.024,0.08,0,angry
5.68,0,0,0,0,0,0,0,0,484,2187,3012,2887,2087,48,3259,3303,-2.796,3.357,9.364,0.267,-1.361,-5.784,0.567,-2.83,9.531,0.052,0.079,-0.008,angry
5.69,0,0,0,0,0,0,0,0,419,1981,3007,2917,1949,47,3251,3373,-0.876,3.697,9.237,0.005,-1.136,-6.269,0.575,-2.65,9.73,0.059,0.073,-0.027,angry
5.7,0,0,0,0,0,0,0,0,262,2012,2938,2842,2137,33,3211,3447,0.364,4.597,9.524,-0.175,-1.063,-6.589,0.582,-2.636,9.735,0.058,0.075,-0.018,angry
5.71,0,0,0,0,0,0,0,0,252,1989,2966,2843,2123,45,3219,3476,2.002,5.217,8.59,-0.188,-1.045,-6.718,0.644,-2.626,9.795,0.055,0.079,-0.013,angry
5.72,0,0,0,0,0,0,0,0,226,1747,2945,2848,2125,12,3151,3509,5.274,5.461,9.345,-0.039,-1.12,-6.257,0.335,-2.253,9.653,0.013,0.104,0.013,angry
5.73,0,0,0,0,0,0,0,0,223,1823,2948,2987,2083,42,3102,3517,16.106,6.4,8.066,0.378,-2.067,-3.848,0.498,-2.684,9.833,-0.031,0.137,0.026,angry
5.74,0,0,0,0,0,0,0,96,281,1773,2971,3055,2059,45,3051,3519,19.613,13.022,9.282,0.414,-3.113,-0.318,0.536,-2.538,9.852,-0.021,0.141,0.023,angry
5.75,0,0,0,57,0,0,7,1659,376,1711,2976,3143,1839,47,2908,3441,-2.344,1.113,12.273,0.249,-1.483,0.484,0.457,-2.638,9.816,-0.083,0.153,0.013,angry
5.76,533,0,207,791,0,0,471,2258,579,1647,3084,3189,1563,53,2553,3247,0.685,5.061,11.351,0.067,-0.702,0.271,0.491,-2.531,9.747,-0.148,0.138,-0.033,angry
5.77,942,0,1334,1647,0,0,848,2431,531,1553,2979,3211,1299,38,2340,3015,-0.031,4.688,9.33,0.018,-0.435,0.224,0.52,-2.684,9.785,-0.174,0.14,-0.063,angry
5.78,871,0,1999,1722,44,0,1456,2446,520,1285,3025,3103,311,47,1372,1774,0.227,4.195,9.287,-0.147,-0.139,0.102,0.57,-2.646,9.792,-0.212,0.141,-0.071,angry
5.79,838,131,2487,2079,340,0,2196,3106,623,894,2930,3206,12,75,252,384,0.189,3.06,9.96,-0.204,0.068,0.016,1.137,-2.538,9.953,-0.495,0.093,-0.108,angry
5.8,868,410,2670,2229,827,320,2593,3293,711,655,2915,3119,0,0,0,135,-0.254,3.168,9.598,-0.063,0.12,-0.049,1.358,-2.409,9.572,-1,0.028,-0.251,angry
5.81,910,549,2815,2368,1213,485,2878,3440,551,0,2671,2357,0,2,0,0,-0.096,3.247,9.436,-0.024,0.114,-0.042,0.845,-5.25,12.134,-1.65,0.097,0.055,angry
5.82,890,772,2761,2357,1582,598,2906,3444,92,0,0,805,0,0,0,0,-0.156,3.22,9.421,0.019,0.078,-0.034,7.029,-3.014,10.918,-2.378,1.673,0.688,angry
5.83,1054,1165,3136,2583,1898,853,3131,3536,0,0,0,133,73,0,0,0,-0.081,3.01,9.122,0.118,0.013,-0.028,11.155,-5.282,15.581,-1.366,3.564,2.054,angry
5.84,1142,1447,3263,2671,2114,821,3098,3510,0,0,0,0,0,0,0,0,0.249,3.553,9.503,0.149,0.014,-0.031,9.05,-12.61,15.062,-0.909,4.297,-1.804,angry
5.85,1195,1746,3362,2800,2287,722,3166,3490,0,0,0,0,0,0,0,0,0.012,3.531,9.313,0.105,0.024,-0.025,11.236,-5.1,6.249,-0.622,1.888,-3.966,angry
5.86,1246,2029,3432,2866,2454,643,3180,3461,0,0,0,0,0,0,0,0,-0.067,3.438,9.5,0.088,0.038,-0.034,8.655,-4.621,7.317,-0.58,2.298,-4.159,angry
5.87,1328,2128,3472,2910,2548,605,3145,3399,0,0,0,2,0,0,0,0,-0.103,3.531,9.376,0.073,0.026,-0.033,4.539,-0.651,8.198,-0.278,1.092,-4.284,angry
5.88,1422,2279,3521,2951,2626,30,3126,3327,0,0,0,0,0,0,0,0,0.136,3.517,9.527,0.07,0.024,-0.03,4.571,0.05,7.93,-0.001,0.554,-4.009,angry
5.89,1509,2401,3560,2994,2704,0,3066,3257,0,0,0,0,0,0,0,0,-0.062,3.376,9.34,0.095,0.035,-0.043,4.096,0.105,9.057,0.33,0.58,-3.781,angry
5.9,1612,2444,3578,3014,2735,0,3007,3195,0,22,0,0,0,0,0,0,-0.007,3.498,9.354,0.112,0.04,-0.04,3.436,0.304,9.357,0.754,0.521,-3.458,angry
5.91,1744,2521,3622,3022,2781,0,2894,3085,0,0,0,0,0,0,0,53,-0.019,3.484,9.316,0.1,0.049,-0.046,4.503,0.081,8.715,1.535,0.396,-2.741,angry
5.92,1895,2627,3650,3085,2838,0,2766,2999,0,0,0,0,0,0,19,0,0.01,3.486,9.194,0.115,0.047,-0.045,6,-1.221,8.078,2.013,0.21,-2.263,angry
5.93,1964,2624,3583,3088,2851,0,2670,2811,0,0,0,0,0,0,0,0,-0.026,3.618,9.606,0.11,0.079,-0.058,7.436,-2.523,8.643,2.13,-0.021,-2.279,angry
5.94,2099,2747,3701,3151,2960,0,2638,2716,0,0,0,43,0,0,0,0,-0.053,3.596,9.421,0.133,0.108,-0.056,9.962,-4.805,8.147,2.23,-0.181,-2.916,angry
5.95,2230,2733,3713,3179,2992,0,2559,2464,0,0,0,0,0,0,0,0,-0.074,3.484,9.06,0.143,0.083,-0.041,9.625,-8.011,11.401,2.215,-0.232,-3.756,angry
5.96,2345,2841,3750,3222,3062,0,2544,2094,0,0,0,0,0,0,0,0,-0.048,3.527,9.086,0.141,0.062,-0.03,10.214,-10.379,13.254,2.162,-0.544,-4.263,angry
5.97,2380,2889,3760,3271,3085,0,2432,1428,0,0,0,0,0,0,0,0,0.022,3.472,9.246,0.111,0.058,-0.021,9.713,-18.909,9.522,1.916,-0.573,-6.255,angry
5.98,2509,3032,3801,3343,3088,0,2144,566,0,0,0,0,0,0,0,0,-0.005,3.685,9.297,0.106,0.01,-0.006,1.18,-19.613,4.48,0.617,-0.843,-7.056,angry
5.99,2627,3147,3794,3402,2967,0,1879,0,0,0,0,0,0,12,0,0,0.029,3.29,9.438,0.2,-0.011,0.005,-2.921,-19.613,4.35,-0.035,-0.762,-6.63,angry
6,2810,3281,3827,3471,2582,0,1296,0,0,0,0,0,0,0,0,0,0.117,3.235,9.538,0.344,-0.039,0.002,-8.432,-19.613,2.342,-0.143,-0.396,-4.109,angry
6.01,2978,3430,3885,3540,2138,0,793,0,0,0,0,18,0,19,59,0,0.168,2.82,10.029,0.832,-0.041,0.192,-2.504,-19.613,-4.489,-2.284,1.698,-1.687,angry
6.02,3198,3486,3897,3581,1475,0,869,0,0,0,63,0,0,0,0,0,0.002,2.77,8.899,1.17,0.059,0.358,-10.451,-19.613,-1.664,-2.667,3.693,-0.661,angry
6.03,3088,3187,3611,3296,826,0,639,0,0,0,0,0,0,0,887,2632,0.788,2.715,9.187,1.706,-0.198,0.72,-19.613,0.998,19.034,-2.435,1.734,0.686,angry
6.04,3472,3311,3886,3537,631,0,368,0,0,0,0,0,0,0,1327,3539,0.156,2.761,8.792,2.422,-0.13,0.831,6.381,-19.613,17.509,2.58,1.872,-0.052,angry
6.05,3346,2896,3741,3056,284,0,0,0,0,0,145,0,0,0,1834,3607,1.966,3.658,10.039,3.78,0.366,0.522,-3.354,1.556,7.661,0.304,1.735,0.774,angry
6.06,3481,2527,3751,2723,0,0,0,0,0,0,0,0,0,0,2252,3635,-0.172,3.491,9.309,4.689,-0.091,0.071,0.072,-3.661,9.27,-0.315,0.51,0.264,angry
6.07,3408,2092,3367,2220,0,0,0,0,0,201,0,42,55,0,2487,3635,0.606,4.688,17.667,5.772,-1.942,-0.742,2.665,-3.584,10.472,0.042,0.277,0.177,angry
6.08,2635,829,1903,237,0,0,0,0,2,1293,2272,687,43,0,2903,3695,1.472,9.622,19.613,8.731,-3.279,-1.662,1.037,-2.119,9.922,-0.126,0.226,0.223,angry
6.09,1602,0,0,0,0,0,0,0,0,1849,2735,1662,315,5,3149,3795,-2.052,15.476,19.41,8.646,-2.571,-1.674,0.649,-3.067,9.783,-0.062,0.173,0.099,angry
6.1,0,0,0,0,0,0,0,0,4,1879,2904,2143,499,59,3224,3785,1.779,6.5,19.613,2.316,-1.984,-3.876,0.539,-2.619,10.092,-0.058,0.15,0.056,angry
6.11,0,0,0,0,0,0,0,0,17,1899,2940,2492,825,5,3281,3801,2.828,7.049,19.613,0.321,-1.19,-2.749,0.364,-2.538,9.579,-0.03,0.089,0.045,angry
6.12,0,0,0,0,0,0,0,0,88,1996,2973,2661,1060,23,3337,3783,4.063,0.622,15.392,-0.859,-0.616,-3.209,0.551,-2.672,9.979,-0.015,0.091,0.034,angry
6.13,0,0,0,0,0,0,0,0,107,2261,3027,2957,1567,30,3410,3737,2.442,-2.265,11.061,-1.743,-0.558,-2.918,0.747,-2.653,9.804,0.003,0.094,0.025,angry
6.14,0,0,0,0,0,0,0,0,163,2401,3142,2986,1747,37,3385,3615,3.512,-2.447,7.738,-2.314,-1.083,-2.297,0.524,-2.612,9.802,-0.033,0.05,0.026,angry
6.15,0,0,0,0,0,0,0,0,171,2413,3101,3089,1770,39,3290,3529,3.931,-1.42,7.156,-2.725,-1.164,-1.467,0.634,-2.813,9.859,-0.025,0.061,0.03,angry
6.16,0,0,0,0,0,0,0,0,262,2476,3094,3115,1693,44,3109,3308,2.84,0.323,8.171,-3.329,-1.324,-0.559,0.565,-2.667,9.615,-0.017,0.06,0.026,angry
6.17,0,0,0,0,0,0,0,0,360,2540,3014,3191,1642,51,2915,3039,0.84,2.014,8.466,-3.882,-1.359,-0.018,0.718,-2.641,9.718,0.009,0.059,0.034,angry
6.18,0,0,0,0,0,0,0,0,343,2509,3130,3221,1497,45,2711,2845,-0.797,3.235,8.952,-4.178,-1.564,0.308,0.567,-2.899,9.553,0.018,0.024,0.016,angry
6.19,0,0,0,0,0,0,0,0,395,2595,3516,3253,1563,46,2525,2367,-1.477,4.159,8.906,-4.197,-1.848,0.682,0.321,-2.509,9.869,0.003,0.008,0.01,angry
6.2,0,0,0,0,0,0,0,0,447,2649,3181,3378,1787,47,2517,2189,-2.447,5.569,12.184,-4.167,-1.912,0.909,0.134,-2.239,9.804,-0.049,0.041,0.017,angry
6.21,0,0,0,0,0,0,0,0,520,2723,2930,3439,2007,52,2275,1999,-1.755,8.593,15.596,-4.456,-2.169,1.015,0.496,-2.595,9.924,0.009,0.038,0.025,angry
6.22,0,0,0,0,0,0,0,0,630,2825,3212,3563,2168,45,2379,1571,3.541,15.354,12.21,-4.356,-1.557,1.48,0.299,-2.543,9.649,-0.009,0.021,0.052,angry
6.23,0,0,0,0,0,0,0,0,743,2997,3227,3688,2423,46,2411,975,0.287,19.613,7.63,-3.535,-0.707,2.662,0.5,-2.595,9.728,-0.037,0.03,0.056,angry
6.24,0,0,0,0,0,0,0,0,792,2921,3309,3741,2441,35,2359,621,-6.091,19.613,3.373,-2.515,-0.222,3.202,0.496,-2.612,9.855,-0.076,0.014,0.058,angry
6.25,0,0,0,0,0,0,0,0,1290,3043,3252,3828,2373,21,1675,53,-9.151,19.613,-6.601,-1.738,0.213,2.257,0.474,-3.002,9.687,-0.124,-0.027,0.057,angry
6.26,0,0,0,0,0,0,0,0,1819,3242,3265,3942,1902,4,507,10,-6.148,17.221,-16.652,2.355,-0.023,0.861,0.615,-1.683,9.967,-0.367,0.031,-0.02,angry
6.27,0,0,0,0,0,0,900,2866,2039,3148,3247,3977,1069,3,460,0,-11.751,10.874,19.613,2.418,2.526,-1.985,-0.22,-2.047,9.414,-1.066,0.224,-0.339,angry
6.28,0,0,0,0,0,0,1698,3398,2423,3144,3293,3987,2,0,187,0,0.575,3.598,2.732,3.642,0.983,-1.339,1.08,-0.306,9.783,-1.52,-0.137,-0.431,angry
6.29,308,0,0,0,232,0,2137,3408,2611,2913,3322,3927,23,0,148,0,-6.22,4.231,2.856,-0.989,0.673,-0.282,5.174,-2.016,11.195,-2.917,-1.269,-0.742,angry
6.3,1217,733,1165,332,376,0,2423,3447,2339,2422,3373,3926,0,0,0,0,0.668,5.325,10.417,1.185,-0.357,-0.262,3.591,-2.301,9.562,-4.159,-0.608,-0.986,angry
6.31,1527,1584,2610,1845,863,0,2784,3504,1619,467,3150,3059,0,0,0,0,-0.194,3.536,9.352,0.205,-0.023,-0.094,-2.191,3.132,19.613,-8.731,0.828,0.849,angry
6.32,1648,2087,3003,2311,1731,0,2998,3566,593,0,0,248,0,0,0,0,0.558,5.373,11.406,-0.107,0.207,-0.082,-0.634,-5.813,19.613,-8.731,-0.262,3.482,angry
6.33,1831,2337,3236,2549,2017,228,3149,3605,13,0,0,0,0,0,7,0,0.651,4.379,9.893,0.047,0.08,-0.03,0.532,-11.878,19.613,-8.731,-0.03,3.374,angry
6.34,1974,2375,3289,2613,2160,314,3119,3503,0,0,0,0,0,0,0,0,0.165,3.879,9.364,0.057,0.101,-0.017,-7.875,-19.613,19.613,0.043,0.99,4.031,angry
6.35,2059,2474,3389,2797,2324,140,3136,3533,3,0,0,0,0,0,0,0,0.168,3.749,9.373,0.076,0.075,-0.008,8.167,1.626,12.39,1.219,-0.63,3.58,angry
6.36,1935,2302,3195,2608,2118,0,2800,3179,0,0,0,0,0,0,0,0,0.378,3.745,9.273,0.074,0.08,0.002,10.487,2.516,11.583,1.934,-0.416,2.899,angry
6.37,2256,2659,3490,2922,2395,0,2953,3363,0,0,0,0,0,0,0,0,0.366,3.819,9.337,0.081,0.09,-0.003,11.176,2.284,8.492,2.545,-0.281,1.908,angry
6.38,2254,2698,3504,2960,2278,0,2816,3280,0,0,0,0,0,0,0,0,0.235,3.759,9.328,0.094,0.086,-0.005,10.106,2.133,7.865,2.986,-0.519,0.738,angry
6.39,2302,2731,3542,2960,2220,0,2640,3174,0,0,0,0,0,0,0,0,0.084,3.749,9.352,0.101,0.096,-0.011,9.029,1.863,6.323,3.292,-0.813,-0.27,angry
6.4,2343,2753,3554,3021,2133,0,2432,3019,0,0,0,27,0,0,0,0,0.024,3.598,9.242,0.099,0.092,-0.017,7.281,0.95,6.5,3.534,-1.121,-1.067,angry
6.41,2361,2802,3583,3053,2055,0,2219,2685,0,0,0,0,5,0,0,0,0.132,3.752,9.177,0.099,0.089,-0.019,3.646,-1.276,8.655,4.244,-1.489,-1.891,angry
6.42,2401,2768,3624,3092,2085,0,2013,2189,0,0,0,0,0,0,0,0,0.093,3.745,9.177,0.088,0.092,-0.019,1.063,-2.993,10.489,5.002,-1.384,-2,angry
6.43,2448,2784,3658,2996,2132,0,1872,1713,0,0,0,0,0,0,0,0,0.113,3.843,9.268,0.078,0.114,-0.012,-0.572,-3.685,11.418,5.227,-1.584,-1.867,angry
6.44,2511,2890,3712,3234,2293,0,1873,1521,0,0,0,0,0,0,0,0,0.129,3.864,9.359,0.095,0.171,-0.013,-1.578,-5.25,13.479,5.424,-2.275,-1.464,angry
6.45,2611,2944,3731,3319,2481,0,1833,966,0,0,0,0,0,0,0,0,-0.014,3.713,9.194,0.139,0.169,-0.011,2.167,-8.856,19.613,5.499,-2.592,-1.525,angry
6.46,2721,3106,3801,3412,2512,0,1564,0,0,27,0,0,26,0,0,0,0.18,3.847,9.438,0.195,0.174,-0.011,1.748,-14.269,19.613,5.595,-2.388,-2.017,angry
6.47,2827,3184,3786,3482,2397,0,1196,0,0,0,0,0,0,0,0,0,-0.017,3.62,9.167,0.294,0.088,0.025,-3.5,-19.613,17.049,4.703,-1.568,-2.478,angry
6.48,2977,3334,3855,3582,2271,0,618,0,0,0,0,0,0,0,0,0,0.081,3.297,9.33,0.455,0.05,0.122,-6.421,-19.613,8.813,3.932,-0.909,-1.887,angry
6.49,3069,3395,3873,3632,1961,0,457,0,0,0,5,0,0,0,0,0,0.261,3.685,9.041,0.621,0.005,0.17,-10.305,-19.613,-6.179,1.448,-1.579,-0.049,angry
6.5,3187,3444,3888,3661,1666,0,421,0,0,0,0,0,0,0,0,0,0.314,4.353,8.653,0.969,0.126,0.366,-8.203,-19.613,-11.004,-1.98,-2.628,-0.532,angry
6.51,3395,3481,3904,3689,731,0,325,0,0,0,0,0,0,0,0,0,0.464,3.373,8.815,1.39,-0.019,0.656,-0.347,-19.613,-12.948,-3.373,0.519,-0.725,angry
6.52,3440,3383,3899,3647,381,0,240,0,19,0,0,0,0,0,45,9,1.013,3.27,9.929,1.798,0.018,0.815,2.308,-12.414,16.582,-1.764,4.129,1.351,angry
6.53,3568,3197,3933,3705,503,0,128,0,89,0,0,0,0,0,671,1741,1.566,2.751,10.874,2.635,0.033,0.985,-13.106,9.012,19.613,-3.839,1.547,0.837,angry
6.54,3639,2873,3875,3664,0,0,0,0,0,0,0,0,0,0,1255,3355,2.011,4.003,9.857,4.021,1.196,1.083,3.795,-13.556,10.934,-4.715,-0.012,2.049,angry
6.55,3649,2651,3824,3507,0,0,0,0,0,0,0,0,0,0,2236,3625,0.196,4.322,6.675,4.773,1.52,0.902,8.411,-19.613,19.613,-0.739,5.651,1.575,angry
6.56,3606,2480,3735,3057,0,0,0,0,0,119,0,0,10,3,2652,3721,0.283,5.488,5.509,6.372,1.489,0.444,0.472,-4.441,11.349,0.833,3.424,0.717,angry
6.57,3403,2076,3372,2617,0,0,0,0,0,822,0,0,29,0,2826,3800,-2.43,5.657,19.613,7.955,-0.706,-0.46,1.997,-4.42,13.762,-0.343,0.813,0.327,angry
6.58,1894,9,1639,784,0,0,0,0,1,1854,2055,441,83,0,3125,3883,-4.92,13.987,19.613,8.731,-2.721,-4.074,0.9,-3.61,10.702,-0.161,0.388,0.205,angry
6.59,158,0,0,0,0,0,0,0,1,2076,2280,838,319,0,3135,3787,-1.065,14.284,19.613,7.858,-1.803,-3.855,0.56,-2.411,9.864,-0.02,0.257,0.138,angry
6.6,0,0,0,0,0,0,0,0,1,2316,2838,1741,1049,2,3388,3941,-0.618,16.877,19.613,1.227,-0.72,-2.647,0.922,-2.734,10.151,-0.052,0.093,0.084,angry
6.61,0,0,0,0,0,0,0,0,9,2438,2956,2040,1611,2,3383,3921,11.389,0.977,11.602,-1.64,0.508,-2.081,0.584,-2.564,10.226,-0.027,0.094,0.057,angry
6.62,0,0,0,0,0,0,0,0,25,2581,2986,2281,1723,37,3471,3859,5.562,-1.662,8.08,-2.108,0.075,-1.273,0.718,-2.512,9.653,-0.053,0.071,0.05,angry
6.63,0,0,0,0,0,0,0,0,12,2631,3020,2488,1917,5,3384,3717,6.031,-1.75,6.788,-2.472,-1.059,-0.357,0.802,-2.614,9.728,-0.047,0.107,0.03,angry
6.64,0,0,0,0,0,0,0,0,33,2707,3040,2767,1904,9,3219,3307,6.752,0.012,7.403,-3.035,-1.086,0.615,0.611,-2.471,9.773,-0.049,0.047,0.033,angry
6.65,0,0,0,0,0,0,0,0,43,2718,3053,2781,1884,10,3049,3099,5.519,1.389,8.159,-3.583,-0.964,1.126,0.582,-2.564,9.641,-0.052,0.044,0.044,angry
6.66,0,0,0,0,0,0,0,0,18,2769,3063,2868,1897,6,2824,2958,3.666,2.198,8.195,-4.003,-0.996,1.493,0.543,-2.497,9.689,-0.068,0.042,0.055,angry
6.67,0,0,0,0,0,0,0,0,37,2799,3068,2807,1907,9,2741,2841,1.939,3.029,8.169,-4.361,-1.082,1.675,0.579,-2.528,9.675,-0.082,0.045,0.064,angry
6.68,0,0,0,0,0,0,0,0,55,2809,3101,2805,1989,9,2711,2733,0.532,3.668,8.918,-4.631,-1.166,1.665,0.661,-2.761,9.85,-0.061,0.056,0.062,angry
6.69,0,0,0,0,0,0,0,0,123,2857,3027,2905,2078,29,2617,2619,-0.941,4.59,10.048,-4.885,-1.44,1.581,0.579,-2.658,9.637,-0.057,0.039,0.06,angry
6.7,0,0,0,0,0,0,0,0,203,2890,3158,2985,2204,41,2677,2535,-1.779,5.523,9.852,-5.027,-1.98,1.404,0.577,-2.693,9.744,-0.039,0.042,0.049,angry
6.71,0,0,0,0,0,0,0,0,379,2983,3048,3092,2397,47,2636,2275,-2.052,7.101,12.986,-5.031,-2.186,1.248,0.594,-2.796,9.579,-0.023,0.065,0.052,angry
6.72,0,0,0,0,0,0,0,0,679,3096,3206,3246,2664,47,2666,1877,-0.927,9.486,18.21,-4.88,-2.5,1.251,0.242,-2.533,9.993,0.061,-0.026,0.056,angry
6.73,0,0,0,0,0,0,0,0,555,3101,3214,3355,2745,47,2621,1627,0.91,19.154,18.794,-4.945,-2.104,1.818,0.347,-2.485,9.986,-0.036,0.018,0.051,angry
6.74,0,0,0,0,0,0,0,0,1065,3235,3232,3613,2822,47,2523,381,-3.859,19.613,11.995,-3.941,-0.978,2.047,0.79,-2.679,9.766,-0.08,-0.026,0.066,angry
6.75,0,0,0,0,0,0,0,0,1306,3246,3247,3704,2731,23,2249,83,-3.287,19.613,4.82,-3.518,-0.361,2.229,0.541,-2.634,9.562,-0.058,-0.055,0.102,angry
6.76,0,0,0,0,0,0,0,0,1317,3342,3255,3784,2635,13,1390,27,-9.127,19.613,-15.476,-1.403,1.463,1.539,0.79,-2.624,9.718,-0.074,-0.057,0.126,angry
6.77,0,0,0,0,0,0,0,790,1932,3412,3273,3916,1775,3,380,0,-5.765,19.613,-19.613,3.001,0.106,2.06,0.8,-3.632,9.05,-0.749,0.203,-0.199,angry
6.78,0,0,0,0,0,0,912,2992,2309,3469,3273,3932,742,0,445,0,-19.613,-9.797,19.613,3.963,2.267,-1.343,0.124,-1.75,9.328,-1.113,0.152,-0.28,angry
6.79,0,0,0,0,0,0,1472,3389,2456,3473,3309,3855,37,1,631,0,-2.507,9.847,4.788,4.246,0.741,-1.324,1.398,-0.778,10.8,-1.455,-0.16,-0.347,angry
6.8,363,0,0,0,418,0,2398,3459,2591,3340,3350,3759,184,3,274,0,4.164,19.613,19.613,-0.244,3.926,-1.433,2.672,-1.379,11.631,-3.265,-0.927,-0.844,angry
6.81,1392,1088,1184,183,407,0,2657,3465,1624,2003,3488,3413,471,0,0,0,3.201,4.432,6.381,0.026,0.736,-0.234,-0.764,-3.448,7.894,-8.193,0.044,0.133,angry
6.82,1535,1503,2622,1776,972,0,2805,3538,1655,459,2930,1927,0,0,0,8,0.56,3.74,9.498,0.079,0.299,-0.091,0.974,3.986,19.613,-8.731,0.167,1.52,angry
6.83,1735,1833,2973,2317,1455,90,2951,3575,537,0,0,119,0,5,0,0,-0.002,3.886,9.653,0.029,0.163,-0.066,1.348,-13.204,19.613,-8.731,-0.426,4.258,angry
6.84,1859,2208,3221,2559,1830,294,3088,3619,0,0,156,0,0,0,0,0,0.555,3.836,9.61,0.067,0.038,0.006,9.074,1.867,19.613,-1.248,1.389,5.679,angry
6.85,2027,2346,3315,2729,2112,538,3126,3583,0,0,0,0,0,0,0,0,0.294,3.881,9.694,0.052,0.078,-0.003,-5.138,-2.033,19.613,-1.335,-0.394,2.985,angry
6.86,2096,2477,3373,2817,2211,50,3090,3506,0,0,0,0,0,0,0,0,0.215,3.649,9.452,0.064,0.071,-0.017,13.673,2.526,10.932,1.804,-0.288,2.582,angry
6.87,2191,2582,3458,2882,2313,0,2962,3378,0,0,0,63,0,0,0,0,0.453,3.723,9.404,0.074,0.083,-0.026,9.653,3.112,7.915,2.812,0.1,0.748,angry
6.88,2238,2622,3483,2933,2256,0,2832,3294,0,0,0,0,0,25,0,0,0.271,3.735,9.416,0.075,0.092,-0.029,8.765,2.667,7.355,3.178,-0.368,-0.191,angry
6.89,2236,2695,3518,3002,2124,0,2559,3088,0,0,0,0,0,0,0,0,0.084,3.543,9.16,0.11,0.068,-0.026,7.575,1.901,6.495,3.491,-0.861,-1.013,angry
6.9,2256,2721,3541,3033,2111,0,2353,2930,0,0,0,0,0,0,0,0,0.069,3.742,9.301,0.099,0.093,-0.034,5.986,1.087,7.281,3.809,-1.14,-1.635,angry
6.91,2298,2721,3568,3051,2114,0,2165,2748,0,0,61,0,0,0,0,0,0.096,3.594,9.278,0.109,0.108,-0.048,4.01,-0.148,8.478,4.209,-1.292,-2.036,angry
6.92,2334,2758,3613,3058,1958,0,1891,2298,0,0,0,0,6,0,0,0,0.208,3.689,9.194,0.136,0.108,-0.039,0.783,-2.069,10.489,5.166,-1.197,-2.101,angry
6.93,2465,2804,3663,3146,2069,0,1661,1520,0,0,0,0,0,0,0,0,-0.034,3.697,9.325,0.152,0.152,-0.025,-2.037,-3.591,12.23,5.661,-1.516,-1.626,angry
6.94,2608,2897,3711,3227,2127,0,1535,944,0,0,0,5,0,0,0,0,0.108,3.764,9.627,0.143,0.2,-0.027,-2.519,-4.597,14.056,5.798,-1.96,-1.333,angry
6.95,2731,2957,3741,3325,2225,0,1395,274,0,0,0,0,0,0,0,0,0.048,3.627,9.268,0.202,0.178,-0.021,0.316,-6.333,17.461,5.734,-2.647,-1.216,angry
6.96,2882,3099,3792,3424,2261,0,1101,0,0,0,0,0,0,0,0,0,0,3.563,9.328,0.276,0.11,0.006,4.022,-15.253,19.613,5.48,-2.321,-2.304,angry
6.97,2857,3170,3802,3465,2245,0,816,0,0,0,0,0,0,0,0,0,0.213,3.857,9.323,0.309,0.041,0.031,1.786,-19.613,19.613,5.042,-1.987,-2.96,angry
6.98,2929,3229,3827,3511,2203,0,619,0,0,0,0,0,0,0,0,0,0.242,3.757,9.175,0.384,-0.021,0.056,1.336,-19.613,19.613,4.539,-1.11,-3.042,angry
6.99,3016,3297,3837,3566,2054,0,525,0,83,0,0,0,0,0,0,0,0.335,3.661,9.438,0.488,0.002,0.094,-1.322,-19.613,9.852,3.698,-0.302,-2.666,angry
7,3141,3342,3856,3621,1872,0,400,0,0,0,0,0,0,0,0,0,0.29,2.102,9.946,0.75,-0.02,0.234,-7.807,-19.613,-0.318,3.114,-0.242,-1.921,angry
7.01,3225,3362,3874,3659,1518,0,262,0,0,0,0,0,29,0,33,0,0.041,3.27,9.285,0.954,-0.021,0.328,-10.185,-19.613,-7.23,1.749,-1.338,-1.586,angry
7.02,3434,3335,3895,3713,901,0,149,0,0,0,0,0,37,0,0,0,0.108,3.488,8.863,1.463,-0.05,0.672,-9.574,-19.613,-10.245,0.202,-1.484,-1.408,angry
7.03,3570,3135,3880,3709,301,0,65,0,0,1,0,0,0,0,0,0,1.731,3.649,10.932,2.056,0.215,0.872,3.043,-2.875,-4.745,-2.027,2.111,0.423,angry
7.04,3568,2930,3827,3626,476,0,109,0,0,0,12,69,0,0,255,1183,0.946,2.784,9.608,2.961,0.335,1.002,-4.745,19.613,19.613,-3.218,2.457,1.07,angry
7.05,3667,2653,3854,3568,0,0,0,0,0,0,0,0,0,0,1227,3597,1.228,3.565,7.345,4.35,1.682,1.149,-10.022,-16.254,14.641,-5.247,1.427,2.892,angry
7.06,3622,2503,3810,3339,0,0,0,0,0,0,0,0,0,0,2543,3881,1.188,9.9,5.092,5.875,2.011,0.542,-5.95,-19.613,19.613,-3.417,5.83,4.412,angry
7.07,3427,2236,3583,3005,0,0,0,0,0,0,0,0,0,0,2798,3990,3.472,15.534,8.835,8.036,1.245,0.394,2.861,7.262,13.329,-0.052,1.94,-0.586,angry
7.08,2864,897,2878,2384,0,0,0,0,0,0,0,0,31,0,2955,4029,-2.112,11.66,19.613,8.731,-3.13,-2.925,2.406,-9.888,19.613,-0.379,0.918,0.317,angry
7.09,1091,0,242,112,0,0,0,0,0,212,1389,0,74,31,3047,4059,-2.085,19.613,19.613,8.731,-2.502,-4.86,1.587,-3.393,12.134,-0.068,0.68,0.155,angry
7.1,0,0,0,0,0,0,0,0,20,745,2119,233,915,1,3276,4079,17.444,8.842,17.456,3.102,1.693,-5.191,1.24,-2.89,10.139,0.085,0.241,0.04,angry
7.11,0,0,0,0,0,0,0,0,0,1173,2180,331,1147,1,3323,4088,5.607,11.085,19.613,0.691,0.42,-2.011,1.465,-2.155,9.606,0.02,0.175,0.086,angry
7.12,0,0,0,0,0,0,0,0,1,1253,2152,630,1447,2,3439,4074,12.1,3.29,18.49,-0.766,0.07,-1.183,1.554,-2.028,10.06,-0.052,0.124,0.099,angry
7.13,0,0,0,0,0,0,0,0,1,1575,2362,683,1533,2,3487,4059,9.637,-1.168,10.341,-1.96,0.731,-0.857,0.85,-2.435,9.742,-0.031,0.114,0.091,angry
7.14,0,0,0,0,0,0,0,0,0,1675,2515,957,1653,2,3497,4032,5.437,-1.628,6.934,-2.008,0.69,-0.486,0.656,-2.567,9.615,-0.043,0.026,0.057,angry
7.15,0,0,0,0,0,0,0,0,42,1737,2613,984,1843,1,3471,3955,3.852,-2.114,7.233,-2.386,-0.045,-0.082,1.037,-2.557,9.859,-0.017,0.034,0.015,angry
7.16,0,0,0,0,0,0,0,0,0,1827,2723,959,1949,2,3405,3835,3.656,-1.271,5.859,-2.664,-0.649,0.18,1.159,-2.368,9.524,-0.044,0.05,0.014,angry
7.17,0,0,0,0,0,0,0,0,0,1849,2751,969,2019,119,3321,3621,4.046,-1.027,5.406,-2.934,-0.879,0.397,1.097,-2.392,9.78,-0.061,0.081,0.043,angry
7.18,0,0,0,0,0,0,0,0,0,1881,2797,1117,2092,1,3159,3291,3.852,-0.436,6.428,-3.292,-0.907,0.595,0.848,-2.251,9.716,-0.093,0.094,0.08,angry
7.19,0,0,0,0,0,0,0,0,0,1898,2838,1205,2163,7,2964,3165,3.086,1.171,7.626,-3.74,-1.047,0.827,0.836,-2.38,9.579,-0.139,0.078,0.124,angry
7.2,0,0,0,0,0,0,0,0,2,2083,2902,1389,2246,0,2861,3144,2.215,2.124,8.033,-4.173,-1.256,1.029,0.898,-2.488,9.515,-0.141,0.088,0.146,angry
7.21,0,0,0,0,0,0,0,0,5,2183,2971,1707,2345,3,2805,3114,1.633,3.091,7.714,-4.552,-1.358,1.148,0.778,-2.588,9.85,-0.129,0.126,0.162,angry
7.22,0,0,0,0,0,0,0,0,0,2319,3017,1929,2454,6,2726,3103,0.802,3.826,7.884,-4.812,-1.394,1.168,0.907,-2.665,9.725,-0.11,0.134,0.168,angry
7.23,0,0,0,0,0,0,0,0,21,2413,3061,2141,2543,56,2799,3090,-0.522,5.013,9.625,-5.001,-1.544,1.117,0.855,-2.646,9.816,-0.099,0.145,0.144,angry
7.24,0,0,0,0,0,0,0,0,109,2623,3145,2669,2746,27,2885,2999,-1.221,6.881,10.235,-5.178,-2.041,1.016,0.852,-2.667,9.608,-0.131,0.131,0.082,angry
7.25,0,0,0,0,0,0,0,0,233,2648,3176,2836,2807,44,2861,2991,-0.596,8.624,12.069,-5.133,-2.377,1.085,0.745,-2.77,9.744,-0.112,0.113,0.071,angry
7.26,0,0,0,0,0,0,0,0,303,2830,3196,3059,2937,47,2861,2749,0.785,10.582,16.953,-4.923,-2.502,1.297,0.661,-2.729,9.871,-0.105,0.09,0.043,angry
7.27,0,0,0,0,0,0,0,0,495,2935,3206,3231,3080,46,2735,2202,4.013,19.613,19.498,-4.752,-2.31,1.855,0.776,-2.672,9.582,-0.123,0.109,0.032,angry
7.28,0,0,0,0,0,0,0,0,636,3013,3222,3343,3157,47,2671,1695,-2.682,19.613,13.798,-3.854,-1.998,2.459,0.464,-2.799,9.986,-0.123,0.124,0.031,angry
7.29,0,0,0,0,0,0,0,0,1261,3223,3232,3518,3155,87,2403,316,-1.049,19.613,7.432,-3.327,-1.003,2.858,0.781,-2.689,9.565,-0.076,0.024,0.074,angry
7.3,0,0,0,0,0,0,0,0,1431,3273,3252,3701,2759,17,1479,51,-14.736,19.613,-13.388,-1.925,-0.527,2.121,0.486,-2.938,9.455,-0.062,-0.055,0.119,angry
7.31,0,0,0,0,0,0,0,0,1785,3355,3299,3897,2507,0,461,107,-6.943,19.613,-19.613,3.015,-0.419,1.86,0.599,-1.824,9.517,-0.198,-0.016,0.021,angry
7.32,0,0,0,0,0,0,1013,2559,2277,3501,3293,3797,1685,5,479,8,-11.779,-4.319,19.613,3.221,4.807,-1.786,-0.294,-2.16,10.027,-0.744,0.207,-0.135,angry
7.33,0,0,0,0,0,0,1428,3307,2429,3555,3291,3703,1079,2,338,0,-14.581,12.469,5.521,5.453,0.205,-1.304,1.614,-2.006,9.627,-1.476,-0.07,-0.229,angry
7.34,499,0,0,0,157,0,2378,3477,2601,3561,3314,3189,28,0,156,0,19.613,19.613,19.613,-0.377,6.461,-2.372,1.908,-0.69,9.732,-2.316,-0.51,-0.425,angry
7.35,1408,881,564,0,250,0,2666,3326,2413,3247,3263,3208,447,0,0,0,-0.192,3.522,15.541,0.16,0.877,-0.363,0.086,-2.215,8.133,-5.838,-0.019,-0.583,angry
7.36,1494,1459,2384,1328,765,0,2725,3455,1195,553,2930,1211,18,0,3,0,1.077,4.374,9.747,0.08,0.351,-0.069,4.365,-1.954,19.613,-8.731,-1.753,0.891,angry
7.37,1664,1877,2890,2187,1168,0,2880,3526,1111,45,1517,365,0,0,0,0,-0.134,3.998,9.455,0.022,0.203,-0.061,4.774,1.702,19.613,-8.731,-2.82,2.277,angry
7.38,1813,2135,3126,2466,1648,0,2993,3563,0,0,0,0,0,0,0,0,0.251,3.182,9.108,0.106,0.055,0.012,1.978,-11.679,19.613,-8.363,-1.167,3.167,angry
7.39,1921,2311,3269,2672,2066,192,3057,3551,0,0,0,0,0,0,0,0,0.165,3.917,9.498,0.01,0.08,-0.004,-8.32,-3.141,19.613,-0.994,0.242,2.947,angry
7.4,2027,2480,3338,2640,2147,0,3055,3373,0,0,0,0,0,0,0,0,0.168,3.67,9.34,0.012,0.084,-0.012,6.33,3.847,19.613,0.653,-1.962,2.626,angry
7.41,2094,2547,3408,2860,2228,0,3044,3442,0,0,0,0,0,0,0,0,0.46,3.694,9.426,0.05,0.08,-0.026,7.482,1.925,10.7,1.686,-0.729,2.72,angry
7.42,2060,2509,3400,2851,2208,0,2928,3281,0,0,0,0,0,0,0,0,0.438,3.771,9.309,0.047,0.095,-0.03,7.276,3.589,8.835,2.204,-0.633,2.318,angry
7.43,2166,2631,3483,2947,2284,0,2861,3272,0,0,0,0,0,0,0,0,0.242,3.701,9.426,0.052,0.109,-0.033,8.346,2.33,7.111,2.718,-0.345,1.648,angry
7.44,2205,2671,3515,2993,2236,0,2730,3171,0,0,0,0,0,0,0,0,0.204,3.642,9.325,0.082,0.103,-0.03,8.119,1.762,7.14,3.207,-0.255,0.908,angry
7.45,2247,2715,3536,3024,2217,0,2559,3026,0,0,0,0,0,0,0,0,0.057,3.503,9.115,0.131,0.048,-0.019,7.309,0.965,7.278,3.633,-0.405,0.169,angry
7.46,2320,2755,3562,3055,2162,0,2358,2858,0,0,0,0,0,0,0,0,0.067,3.543,9.234,0.109,0.103,-0.039,6.416,0.062,7.539,4.037,-0.721,-0.5,angry
7.47,2352,2788,3583,3091,2160,0,2122,2604,0,0,0,0,0,0,0,0,0.117,3.701,9.299,0.124,0.104,-0.041,5.231,-0.663,7.647,4.392,-1.026,-1.084,angry
7.48,2445,2832,3635,3124,2128,0,1821,2032,0,0,0,0,0,0,0,0,0.127,3.812,9.17,0.125,0.106,-0.033,3.091,-2.215,7.918,4.955,-1.192,-1.699,angry
7.49,2549,2916,3682,3185,2037,0,1630,1350,0,0,0,0,0,0,0,0,0.098,3.812,9.443,0.157,0.133,0.009,0.86,-4.573,12.227,5.396,-1.494,-1.754,angry
7.5,2651,2965,3729,3254,2096,0,1449,770,0,0,0,0,0,0,0,0,-0.007,3.61,9.263,0.176,0.148,0.008,-0.041,-5.646,13.74,5.583,-1.878,-1.718,angry
7.51,2726,3035,3728,3334,2128,0,1067,0,0,0,0,0,0,0,0,0,-0.057,3.9,9.213,0.207,0.116,0.011,0.625,-7.159,15.476,5.518,-2.54,-1.581,angry
7.52,2809,3071,3761,3386,2103,0,976,0,0,0,0,0,0,0,0,0,0.067,3.776,9.254,0.246,0.1,0.012,2.823,-11.066,18.725,5.415,-2.505,-1.623,angry
7.53,2879,3162,3782,3435,2089,0,662,0,0,0,76,0,0,0,0,0,0.158,3.838,9.445,0.268,0.121,0.023,2.871,-16.345,19.613,5.544,-2.284,-2.027,angry
7.54,2956,3203,3795,3474,2037,0,562,0,0,0,0,0,0,0,0,0,0.105,3.907,9.266,0.33,0.09,0.025,0.431,-19.613,19.613,5.494,-2.077,-2.682,angry
7.55,3065,3268,3824,3516,2062,0,543,0,0,0,0,0,0,0,0,0,0.081,3.972,9.357,0.313,0.041,0.033,-0.651,-19.613,19.613,5.146,-1.379,-3.087,angry
7.56,3146,3335,3839,3566,1927,0,466,0,0,0,0,0,0,0,0,0,0.036,3.898,9.378,0.391,0.019,0.07,-2.523,-19.613,8.983,4.161,-0.561,-2.647,angry
7.57,3021,3312,3759,3554,1739,0,305,0,0,0,0,0,0,0,0,0,0.017,2.761,8.681,0.726,0.006,0.222,-6.565,-19.613,-1.903,2.733,0.3,-1.101,angry
7.58,3286,3410,3815,3454,1427,0,260,0,0,0,0,0,0,0,37,5,0.213,3.622,9.139,0.783,0.025,0.281,-8.468,-19.613,-5.689,2.027,-0.694,-0.453,angry
7.59,3407,3444,3867,3663,1098,0,189,0,0,0,0,0,0,0,0,0,0.081,3.247,8.952,1.008,0.017,0.425,-1.113,-19.613,-16.573,-0.544,-1.864,-1.398,angry
7.6,3547,3422,3875,3678,702,0,0,0,0,0,0,45,0,0,0,0,0.007,3.721,9.479,1.434,-0.029,0.683,-2.289,-7.863,-12.553,-2.416,2.072,-0.996,angry
7.61,3599,3297,3877,3680,331,0,0,0,0,19,0,0,0,0,759,1977,0.912,2.382,9.093,1.959,-0.051,0.823,-6.812,19.613,19.613,-4.315,2.384,1.453,angry
7.62,3654,2990,3877,3648,0,0,0,0,0,0,0,0,0,6,927,3231,1.171,2.421,9.311,3.486,0.548,1.033,-19.613,-4.673,12.895,-7.111,-3.008,0.367,angry
7.63,3633,2768,3792,3568,64,0,0,0,0,0,0,0,0,0,2135,3708,2.243,5.555,8.593,4.02,1.371,0.979,19.613,-19.613,18.768,-6.298,3.358,1.616,angry
7.64,3616,2643,3773,3233,0,0,0,0,0,141,0,19,30,26,2569,3868,1.829,8.993,5.681,5.288,1.391,0.511,9.675,-19.613,19.613,0.644,2.755,-0.77,angry
7.65,3263,1971,3245,2433,0,0,0,0,0,1309,952,0,3,0,2731,3956,2.713,6.076,19.613,7.79,-2.274,-0.824,6.68,-3.991,9.184,-0.273,0.729,0.449,angry
7.66,1562,0,1259,238,0,0,0,0,27,1834,2203,574,191,1,2876,3987,-3.1,7.678,18.115,8.731,-2.834,-4.702,0.589,-3.503,10.434,-0.065,0.271,0.226,angry
7.67,0,0,0,0,0,0,0,0,1,2018,2305,872,645,1,3049,3991,5.844,8.856,19.613,5.682,-1.175,-4.238,1.101,-2.959,10.101,-0.011,0.221,0.115,angry
7.68,0,0,0,0,0,0,0,0,7,2200,2518,1494,807,3,3164,3989,1.092,18.61,19.613,1.285,-0.217,-3.635,1.178,-2.523,9.74,-0.119,0.112,0.139,angry
7.69,0,0,0,0,0,0,0,0,23,2265,2577,1618,1112,7,3251,3981,8.135,-0.357,19.613,-0.128,-1.207,-2.317,0.989,-2.763,10.135,-0.098,0.153,0.135,angry
7.7,0,0,0,0,0,0,0,0,26,2463,2879,2054,1394,1,3327,3949,7.664,-1.901,10.305,-1.714,0.076,-1.938,0.594,-2.677,10.046,-0.07,0.117,0.086,angry
7.71,0,0,0,0,0,0,0,0,91,2610,2963,2527,1641,25,3277,3854,4.882,-1.858,7.075,-2.271,-0.569,-1.077,0.802,-2.691,9.859,-0.079,0.123,0.061,angry
7.72,0,0,0,0,0,0,0,0,169,2668,2986,2711,1745,37,3213,3763,4.946,-1.468,5.997,-2.556,-1.116,-0.274,0.694,-2.722,9.893,-0.075,0.12,0.055,angry
7.73,0,0,0,0,0,0,0,0,219,2729,3035,2983,1789,41,2940,3547,4.276,-0.067,7.688,-3.197,-1.028,0.487,0.675,-2.449,9.675,-0.102,0.133,0.05,angry
7.74,0,0,0,0,0,0,0,0,365,2809,3094,3045,1883,49,2556,3144,1.425,1.281,8.995,-4.009,-1.172,1.042,0.685,-2.813,9.603,-0.058,0.104,0.05,angry
7.75,0,0,0,0,0,0,0,0,582,2863,3112,3115,1873,43,2332,2861,-0.687,2.382,9.062,-4.604,-1.225,1.141,0.627,-2.782,9.67,-0.07,0.114,0.035,angry
7.76,0,0,0,0,0,0,0,0,668,2969,3145,3221,1926,103,1989,2258,-2.282,4.075,9.871,-4.839,-1.659,1.021,0.84,-2.976,9.086,0.013,0.086,0.031,angry
7.77,0,0,0,0,0,0,0,0,1055,3016,3173,3391,2020,46,2059,2011,-1.573,5.859,11.727,-4.873,-2.054,0.957,0.52,-2.725,9.689,-0.05,0.065,0.029,angry
7.78,0,0,0,0,0,0,0,0,1221,3045,2871,3512,2066,117,1780,1775,-0.438,6.189,13.319,-4.773,-2.16,1.147,0.383,-2.782,10.149,-0.073,0.038,0.026,angry
7.79,0,0,0,0,0,0,0,0,1417,3091,3191,3623,2133,46,1463,1039,1.705,13.7,19.613,-4.6,-2.548,1.365,0.429,-2.732,9.735,-0.097,0.015,0.015,angry
7.8,0,0,0,0,0,0,0,0,1607,3149,3214,3753,2063,47,1086,391,3.855,19.613,17.775,-5.273,-1.272,2.469,0.543,-2.823,9.634,-0.066,0.016,0.029,angry
7.81,0,0,0,0,0,0,0,0,1753,3170,3217,3823,2024,26,951,81,3.297,19.613,4.599,-3.845,0.122,3.235,0.62,-2.935,9.649,-0.058,-0.011,0.035,angry
7.82,0,0,0,0,0,0,0,0,1875,3162,3227,3795,1971,0,821,24,-0.208,19.613,-3.254,-2.356,0.911,3.556,0.364,-2.835,9.562,-0.08,0.014,0.032,angry
7.83,0,0,0,0,0,0,0,0,1951,3180,3227,3948,1901,7,391,59,-15.818,19.613,-8.93,-1.324,0.312,3.292,0.644,-2.691,9.835,-0.126,0.022,0.019,angry
7.84,17,0,0,0,0,0,0,0,2152,3224,3247,4019,951,0,4,0,-10.898,19.613,-19.613,2.177,-1.668,2.346,0.007,-1.918,9.924,-0.594,0.148,-0.206,angry
7.85,0,0,0,0,0,0,119,906,2336,3251,3252,4053,339,0,0,0,-4.319,19.613,-19.01,3.812,1.447,1.743,0.268,-3.488,10.087,-0.5,0.067,-0.191,angry
7.86,0,0,0,0,0,0,1280,3139,2643,3255,3270,4075,17,0,0,57,-19.613,-7.53,19.613,4.794,0.645,-0.496,1.408,-2.126,9.694,-1.086,-0.112,-0.427,angry
7.87,0,0,0,0,315,0,2128,3337,2749,3215,3232,4060,0,0,1,0,19.613,15.696,7.393,3.848,1.832,-1.909,2.6,-1.961,9.421,-1.601,-0.72,-0.465,angry
7.88,1389,688,543,0,154,0,2535,3412,2723,2483,3329,4015,0,6,0,0,-12.742,-5.969,19.613,1.49,0.219,-0.875,-0.486,-2.909,8.935,-3.134,-0.63,-0.592,angry
7.89,1585,1664,2352,934,603,0,2679,3341,2069,1469,3437,3789,0,0,0,0,-0.893,5.827,11.291,0.106,0.12,-0.042,1.788,-0.014,10.733,-6.914,0.97,0.747,angry
7.9,1664,2141,2862,1975,993,0,2775,3428,1635,41,2943,3101,0,0,0,0,0.405,4.319,10.056,0.073,0.11,-0.091,3.97,-1.846,19.613,-8.731,0.135,2.378,angry
7.91,1775,2320,3088,2294,1643,0,2896,3431,553,0,0,233,0,0,0,0,0.326,3.584,9.304,0.07,0.046,-0.031,-0.998,-3.024,19.613,-8.731,-0.507,4.951,angry
7.92,1935,2549,3307,2513,2021,0,3030,3497,25,0,0,0,0,0,0,0,0.5,3.785,9.27,0.083,-0.007,0.003,9.002,-0.613,15.634,-2.67,1.225,5.36,angry
7.93,2035,2646,3397,2644,2290,18,3094,3473,0,0,0,0,0,0,0,0,0.393,3.721,9.304,0.067,0.034,-0.029,-10.654,-3.847,19.613,-0.685,-0.063,3.538,angry
7.94,1819,2449,3231,2459,2138,0,2847,3136,0,0,0,0,0,0,0,0,0.357,3.515,9.579,0.093,0.076,-0.04,12.878,-0.405,8.09,1.423,-1.15,2.591,angry
7.95,2155,2807,3517,2817,2494,0,3006,3296,0,0,217,0,0,0,0,0,0.397,3.778,9.294,0.074,0.068,-0.042,9.201,1.041,4.903,2.227,-0.012,0.592,angry
7.96,2197,2849,3542,2879,2513,0,2829,3136,0,0,0,0,0,0,0,0,0.318,3.632,9.297,0.104,0.061,-0.038,7.372,1.702,4.278,2.399,-0.323,-0.374,angry
7.97,2214,2783,3498,2862,2461,0,2642,2954,0,0,0,0,0,0,0,0,0.316,3.747,9.4,0.118,0.062,-0.04,5.899,1.786,4.094,2.476,-0.914,-1.169,angry
7.98,2322,2907,3583,2918,2470,0,2555,2877,0,0,0,0,0,0,0,0,0.311,3.706,9.258,0.122,0.062,-0.042,4.717,0.982,5.921,2.719,-1.211,-1.742,angry
7.99,2352,2944,3610,2950,2481,0,2391,2675,0,0,0,0,0,0,0,0,0.22,3.757,9.208,0.118,0.076,-0.048,3.5,0.177,7.64,3.207,-1.202,-2.08,angry
8,2390,2961,3631,2966,2470,0,2247,2414,0,0,0,55,1,0,0,0,0.242,3.778,9.244,0.106,0.086,-0.047,1.709,-0.783,9.146,3.785,-1.148,-2.162,angry
8.01,2242,2704,3380,2827,2230,0,1927,1881,0,13,0,0,0,0,0,0,0.378,3.649,9.256,0.102,0.082,-0.03,-1.805,-1.951,10.075,4.751,-1.302,-1.785,angry
8.02,2559,3014,3695,3071,2544,0,2114,1920,0,0,0,0,0,0,0,0,0.144,3.761,9.34,0.107,0.099,-0.028,-3.5,-3.029,11.392,5.043,-1.89,-0.94,angry
8.03,2683,3024,3725,3152,2553,0,1983,1710,0,0,0,0,0,0,30,0,0.153,4.008,9.333,0.076,0.11,0.01,-4.017,-3.773,11.775,4.911,-2.249,-0.533,angry
8.04,2559,2999,3510,3157,2433,0,1753,1381,0,0,0,0,0,0,0,0,0.172,3.797,9.273,0.084,0.141,0.01,-3.893,-10.786,19.613,4.755,-3.13,0.212,angry
8.05,2834,3135,3779,3301,2517,0,1729,995,0,0,0,0,0,0,0,0,0.376,3.814,9.579,0.118,0.15,0.03,-7.317,-19.613,15.311,3.834,-3.336,-0.142,angry
8.06,2944,3177,3802,3378,2454,0,1565,117,0,0,0,0,0,0,0,0,0.062,3.481,9.122,0.177,0.168,0.042,-15.002,-19.613,10.958,3.002,-3.024,0.561,angry
8.07,3040,3264,3808,3408,2281,0,985,0,0,0,94,0,0,0,0,13,0.172,3.306,9.38,0.359,0.145,0.096,-17.248,-19.613,-0.12,1.528,-4.079,2.448,angry
8.08,3131,3371,3823,3532,1915,0,395,0,0,0,0,0,1,0,0,0,0.656,4.283,9.984,0.563,0.197,0.181,2.006,-19.613,-6.22,-1.316,1.002,1.253,angry
8.09,3218,3397,3839,3570,1655,0,272,0,0,0,0,0,0,0,0,0,0.093,2.873,9.85,0.678,0.103,0.281,1.317,-7.477,5.921,-0.147,5.284,0.826,angry
8.1,3200,3344,3730,3463,1318,0,183,0,0,0,0,0,0,0,1429,701,0.069,3.615,9.237,0.926,0.088,0.407,-1.111,12.17,14.782,-0.286,4.145,-0.361,angry
8.11,3359,3280,3852,3605,550,0,0,0,0,0,0,0,0,0,1378,2792,0.678,3.349,9.512,1.624,-0.014,0.77,-13.19,5.478,1.051,-0.951,2.447,-0.203,angry
8.12,3417,2734,3817,3519,197,0,0,0,0,199,314,0,0,0,2411,3691,1.166,2.179,8.863,2.781,0.389,0.909,14.779,-5.332,4.604,-0.012,0.86,0.629,angry
8.13,3407,2321,3699,3009,0,0,0,0,0,1377,2454,793,37,0,2651,3772,1.671,2.775,9.313,4.131,1.198,0.559,2.782,-4.266,10.786,-0.294,0.241,0.122,angry
8.14,3191,922,2923,2261,0,0,0,0,0,1755,2812,1258,16,0,2685,3801,-2.255,4.571,19.182,5.932,-0.264,-0.636,0.764,-3.986,9.778,-0.053,0.244,0.014,angry
8.15,2026,0,1280,184,0,0,0,0,0,2099,2894,1845,75,0,2855,4060,-1.35,12.414,19.154,7.392,-1.441,-1.821,0.773,-2.823,10.281,-0.041,0.118,0.006,angry
8.16,0,0,0,0,0,0,0,0,1,2317,3004,2487,227,1,3067,3849,8.478,2.83,18.146,2.563,1.847,-1.605,0.814,-2.713,10.001,-0.007,0.082,0.056,angry
8.17,0,0,0,0,0,0,0,0,0,2405,3022,2555,403,0,3135,3882,4.901,7.36,13.424,1.076,2.442,-0.65,0.742,-2.729,9.754,0.02,0.066,0.062,angry
8.18,0,0,0,0,0,0,0,0,1,2485,3145,2685,851,2,3246,3711,4.791,-0.764,19.24,-0.265,1.976,0.386,0.742,-2.605,9.917,0.043,0.036,0.041,angry
8.19,0,0,0,0,0,0,0,0,1,2485,3145,2685,851,2,3246,3711,6.764,-1.875,8.435,-1.078,1.973,0.762,0.886,-2.574,9.787,0.023,0.016,0.031,angry
8.2,0,0,0,0,0,0,0,0,3,2652,3140,2879,1322,2,3347,3877,4.116,-2.002,7.513,-1.333,2.033,1.062,0.831,-2.442,9.957,0.015,0.029,0.028,angry
8.21,0,0,0,0,0,0,0,0,1,2729,3099,2987,1433,2,3375,3821,2.837,-1.087,6.27,-1.584,1.779,1.285,0.895,-2.545,9.833,0.028,0.034,0.032,angry
8.22,0,0,0,0,0,0,0,0,1,2803,3107,3029,1645,1,3411,3794,2.306,-1.396,6.474,-1.801,1.493,1.424,0.79,-2.485,9.823,0.021,0.034,0.031,angry
8.23,0,0,0,0,0,0,0,0,1,2773,3130,3047,1762,7,3415,3755,3.086,-0.266,6.203,-2.139,1.54,1.486,0.845,-2.612,9.737,0.023,0.02,0.023,angry
8.24,0,0,0,0,0,0,0,0,2,2828,3135,3053,1949,37,3445,3695,3.184,0.512,6.965,-2.501,1.663,1.583,0.828,-2.406,9.694,0.006,0.013,0.026,angry
8.25,0,0,0,0,0,0,0,0,0,2855,3140,3123,2065,1,3401,3643,2.981,1.729,7.752,-2.891,1.7,1.741,0.828,-2.557,9.787,0.021,0.022,0.032,angry
8.26,0,0,0,0,0,0,0,0,1,2911,3145,3109,2158,2,3463,3580,2.902,2.717,7.166,-3.215,1.69,1.86,0.74,-2.401,9.843,0.002,0.012,0.035,angry
8.27,0,0,0,0,0,0,0,0,0,2940,3155,3123,2257,3,3341,3516,3.338,3.428,6.472,-3.363,1.728,1.929,0.809,-2.416,9.852,-0.01,0.022,0.043,angry
8.28,0,0,0,0,0,0,0,0,9,2973,3150,3119,2379,4,3351,3466,3.977,4.228,7.087,-3.4,1.702,2.027,0.946,-2.471,9.764,-0.025,0.028,0.064,angry
8.29,0,0,0,0,0,0,0,0,0,2990,3160,3124,2452,0,3351,3303,4.812,5.748,8.49,-3.489,1.682,2.195,0.905,-2.538,9.776,-0.024,0.041,0.071,angry
8.3,0,0,0,0,0,0,0,0,0,3135,3160,3108,2617,2,3341,3416,5.756,6.182,8.717,-3.52,1.734,2.395,0.867,-2.581,9.768,-0.029,0.051,0.072,angry
8.31,0,0,0,0,0,0,0,0,1,3094,3327,3128,2606,39,3352,3416,7.501,8.016,9.584,-3.52,1.772,2.678,0.73,-2.478,9.747,-0.017,0.056,0.074,angry
8.32,0,0,0,0,0,0,0,0,1,3123,3165,3101,2705,2,3325,3432,10.92,10.218,10.223,-3.547,1.962,3.164,0.749,-2.574,9.711,-0.028,0.039,0.078,angry
8.33,0,0,0,0,0,0,0,0,2,3158,3171,3087,2735,1,3400,3453,16.901,14.449,11.102,-3.611,2.39,4.115,0.764,-2.468,9.898,-0.031,0.047,0.073,angry
8.34,0,0,0,0,0,0,0,0,0,3171,3168,3069,2769,3,3367,3439,19.613,19.544,10.874,-3.822,3.158,5.663,0.792,-2.555,9.68,-0.033,0.051,0.075,angry
8.35,0,0,0,0,0,0,0,0,1,3183,3165,3032,2804,3,3358,3400,19.613,19.613,5.768,-3.808,3.685,7.519,0.783,-2.569,9.792,-0.034,0.081,0.07,angry
8.36,0,0,0,0,0,0,0,0,11,3192,3165,3047,2766,2,3402,3483,18.538,19.613,-1.544,-3.297,3.862,8.731,0.678,-2.49,9.833,-0.026,0.086,0.064,angry
8.37,0,0,0,0,0,0,0,0,5,3210,3299,3037,2872,4,3477,3493,9.1,19.613,-2.37,-0.909,2.654,8.731,0.73,-2.526,9.845,-0.027,0.084,0.066,angry
8.38,0,0,0,0,0,0,0,0,29,3215,3163,2987,2913,10,3427,3483,3.682,19.613,-0.527,-0.282,3.019,8.731,0.716,-2.574,9.766,-0.035,0.068,0.067,angry
8.39,0,0,0,0,0,0,0,0,108,3271,3165,2931,2976,25,3369,3409,-10.661,13.692,-1.717,1.06,1.161,6.422,0.694,-2.617,9.637,-0.053,0.009,0.072,angry
8.4,0,0,378,0,0,0,0,0,60,3322,3160,2776,3003,19,3210,3133,6.108,19.613,19.613,0.696,-3.439,1.88,0.661,-2.641,9.735,-0.056,-0.046,0.069,angry
8.41,1264,1677,2832,997,623,0,55,0,63,3347,3150,2635,2959,19,3028,3144,-0.019,8.689,9.254,-0.862,-0.574,0.127,0.733,-2.722,9.974,-0.04,-0.078,0.058,angry
8.42,1657,2358,3296,2084,1218,0,1118,0,19,3257,3089,1813,2239,7,2853,3151,0.52,8.638,8.995,0.004,-0.166,-0.207,0.342,-3.22,10.108,0.054,-0.155,-0.057,angry
8.43,1861,2438,3349,2446,2043,0,2201,1527,0,2847,2863,313,1577,3,2555,3164,0.237,3.905,9.632,-0.177,0.062,-0.069,-3.397,-1.563,11.839,0.148,-0.455,0.223,angry
8.44,2033,2559,3467,2593,2501,240,2643,2225,0,2205,2485,41,867,0,2217,3047,-0.254,3.168,8.686,-0.03,-0.055,0.004,-11.717,0.637,12.34,0.344,-0.758,1.256,angry
8.45,2118,2690,3494,2529,2650,25,2911,2498,0,0,0,0,55,0,695,2356,0.594,3.663,9.491,-0.002,-0.108,0.029,-19.113,-5.997,11.739,0.873,-1.873,6.87,angry
8.46,2061,2766,3475,2412,2704,0,3014,2639,0,0,0,0,0,0,20,712,0.857,4.013,8.94,0.005,-0.107,0.011,-6.357,-19.613,11.042,1.82,-3.191,8.731,angry
8.47,2085,2883,3536,2480,2765,0,3168,2815,0,0,0,0,2,0,0,360,0.67,3.555,9.287,-0.011,0.026,-0.006,1.173,-19.613,11.183,2.118,-3.047,8.731,angry
8.48,2091,2921,3539,2525,2842,0,3212,2921,0,0,0,0,0,4,0,91,0.342,3.699,9.519,0.041,0.042,-0.013,10.702,-18.644,0.575,1.592,-0.978,8.731,angry
8.49,2101,2965,3549,2592,2828,0,3227,2966,0,0,0,0,0,0,0,0,0.395,3.694,9.452,0.019,0.073,-0.018,4.843,-14.832,6.661,0.312,-0.492,6.784,angry
8.5,2096,2976,3521,2624,2825,0,3226,2997,0,0,0,0,0,0,2,0,0.294,3.701,9.325,0.009,0.085,-0.004,5.614,-11.595,5.763,-0.18,-0.9,6.008,angry
8.51,2077,2979,3564,2654,2763,0,3222,3015,0,0,0,0,0,0,0,0,0.395,3.4,9.175,0.037,0.066,0.015,5.756,-8.851,9.273,-0.706,-0.225,4.858,angry
8.52,2075,2995,3570,2683,2770,0,3206,3008,0,0,0,0,0,0,0,18,0.299,3.555,9.299,0.051,0.058,0.002,5.284,-6.517,9.888,-0.799,-0.155,4.396,angry
8.53,2150,3028,3601,2767,2777,0,3184,2998,0,0,0,0,0,0,27,0,0.204,3.555,9.404,0.084,0.069,-0.026,2.564,-3.417,9.225,-0.838,-0.388,3.988,angry
