timestamp,L1,L2,L3,L4,L5,L6,L7,L8,R1,R2,R3,R4,R5,R6,R7,R8,acc_x_left,acc_y_left,acc_z_left,gyro_x_left,gyro_y_left,gyro_z_left,acc_x_right,acc_y_right,acc_z_right,gyro_x_right,gyro_y_right,gyro_z_right,mood
0,2530,2461,3237,2768,743,0,0,303,1487,2329,2728,3499,295,47,3546,3608,0.247,3.795,9.27,0.035,0.019,-0.011,0.57,-2.792,9.716,0,0.028,0.019,angry
0.01,2522,2481,3245,2769,738,0,0,545,1459,2333,2723,3502,312,47,3347,3603,0.266,3.792,9.266,0.034,0.021,-0.003,0.582,-2.758,9.72,0.001,0.028,0.02,angry
0.02,2547,2500,3248,2783,762,0,0,643,1499,2332,2725,3509,325,45,3346,3615,0.23,3.8,9.242,0.035,0.029,-0.009,0.553,-2.801,9.713,-0.001,0.033,0.017,angry
0.03,2559,2513,3255,2784,805,0,0,746,1607,2339,2720,3507,308,49,3336,3603,0.247,3.79,9.256,0.037,0.026,-0.011,0.599,-2.832,9.706,0.002,0.026,0.018,angry
0.04,2635,2532,3266,2794,809,0,0,830,1529,2343,2812,3512,311,47,3342,3611,0.213,3.802,9.287,0.042,0.023,-0.01,0.591,-2.787,9.675,-0.002,0.027,0.022,angry
0.05,2627,2557,3279,2816,877,0,0,897,1559,2367,2728,3492,295,47,3337,3597,0.213,3.802,9.321,0.046,0.024,-0.01,0.587,-2.799,9.687,-0.003,0.025,0.021,angry
0.06,2643,2593,3286,2825,896,0,0,927,1578,2389,2723,3455,315,49,3326,3539,0.256,3.804,9.163,0.052,0.02,-0.011,0.558,-2.808,9.663,0,0.028,0.02,angry
0.07,2670,2627,3310,2832,913,0,0,957,1575,2393,2725,3591,325,47,3319,3575,0.242,3.764,9.246,0.049,0.019,-0.01,0.57,-2.801,9.694,-0.005,0.02,0.02,angry
0.08,2692,2651,3323,2849,943,0,0,975,1624,2420,2725,3484,327,47,3303,3557,0.256,3.788,9.258,0.047,0.027,-0.007,0.591,-2.808,9.653,-0.005,0.024,0.022,angry
0.09,2706,2683,3334,2851,976,0,0,1019,1611,2411,2720,3499,308,47,3288,3530,0.275,3.836,9.321,0.043,0.026,-0.01,0.558,-2.832,9.704,-0.009,0.029,0.021,angry
0.1,2729,2703,3344,2863,1017,0,0,1054,1597,2415,2738,3400,287,45,3275,3519,0.227,3.79,9.251,0.047,0.023,-0.009,0.584,-2.825,9.699,-0.003,0.025,0.019,angry
0.11,2749,2723,3356,2866,1061,0,0,1107,1705,2419,2728,3485,287,47,3253,3503,0.206,3.79,9.251,0.042,0.026,-0.011,0.505,-2.837,9.704,-0.002,0.025,0.018,angry
0.12,2762,2736,3364,2865,1099,0,0,1201,1683,2425,2720,3495,261,44,3230,3479,0.254,3.792,9.282,0.042,0.025,-0.005,0.512,-2.787,9.637,0.001,0.026,0.019,angry
0.13,2778,2752,3375,2864,1134,0,1,1286,1670,2423,2720,3487,239,0,3230,3471,0.275,3.764,9.256,0.041,0.028,-0.009,0.577,-2.816,9.737,0,0.027,0.024,angry
0.14,2794,2757,3382,2849,1125,0,35,1405,1575,2427,2730,3499,210,40,3230,3519,0.273,3.802,9.261,0.045,0.022,-0.009,0.548,-2.818,9.723,-0.003,0.029,0.017,angry
0.15,2800,2774,3391,2832,1222,0,45,1473,1661,2437,2674,3491,211,41,3192,3349,0.261,3.761,9.28,0.046,0.025,-0.006,0.56,-2.823,9.706,-0.001,0.025,0.016,angry
0.16,2803,2791,3398,2837,1218,0,85,1535,1691,2425,2725,3495,117,42,3189,3433,0.268,3.816,9.242,0.046,0.029,-0.011,0.541,-2.811,9.725,0.001,0.03,0.018,angry
0.17,2817,2797,3397,2838,1227,0,129,1617,1641,2389,2725,3500,173,58,3165,3412,0.227,3.771,9.261,0.041,0.028,-0.013,0.548,-2.871,9.641,0.003,0.028,0.016,angry
0.18,2827,2798,3400,2827,1249,0,115,1683,1694,2440,2725,3496,135,33,3160,3391,0.247,3.788,9.237,0.042,0.026,-0.007,0.536,-2.849,9.73,0.003,0.026,0.014,angry
0.19,2838,2800,3405,2801,1233,0,157,1756,1660,2442,2723,3497,139,35,3147,3400,0.213,3.804,9.237,0.044,0.026,-0.01,0.575,-2.825,9.682,-0.003,0.027,0.021,angry
0.2,2847,2802,3413,2800,1318,0,198,1789,1703,2427,2710,3500,115,27,3131,3347,0.244,3.826,9.29,0.044,0.024,-0.003,0.551,-2.818,9.682,0.002,0.027,0.017,angry
0.21,2851,2805,3414,2775,1308,0,243,1835,1749,2395,2715,3496,133,35,3123,3381,0.213,3.785,9.242,0.039,0.027,-0.007,0.563,-2.849,9.749,0.005,0.026,0.021,angry
0.22,2879,2813,3417,2768,1295,0,243,1887,1753,2395,2700,3501,8,60,3125,3374,0.235,3.773,9.309,0.044,0.027,-0.009,0.584,-2.825,9.711,0.002,0.03,0.017,angry
0.23,2873,2815,3415,2768,1306,0,292,1952,1741,2391,2695,3497,95,25,3125,3367,0.268,3.778,9.256,0.042,0.027,-0.005,0.555,-2.859,9.632,0.008,0.024,0.019,angry
0.24,2880,2816,3419,2765,1287,0,315,1987,1703,2389,2508,3529,107,27,3087,3368,0.239,3.807,9.237,0.046,0.026,-0.01,0.543,-2.873,9.72,0.005,0.021,0.019,angry
0.25,2882,2817,3421,2770,1264,0,326,2035,1847,2379,2695,3532,105,26,3109,3364,0.299,3.773,9.244,0.042,0.025,-0.006,0.512,-2.849,9.716,0.007,0.022,0.017,angry
0.26,2895,2821,3415,2773,1249,0,417,2077,1707,2376,2689,3531,51,26,3098,3365,0.29,3.78,9.349,0.039,0.023,-0.005,0.52,-2.847,9.728,0.005,0.021,0.014,angry
0.27,2898,2822,3422,2785,1281,0,432,2107,1711,2363,2669,3543,107,28,3094,3372,0.244,3.773,9.244,0.044,0.026,-0.006,0.505,-2.861,9.704,0.006,0.026,0.018,angry
0.28,2896,2831,3420,2795,1280,0,469,2157,1783,2347,2664,3547,142,31,3087,3379,0.294,3.79,9.232,0.043,0.025,-0.007,0.508,-2.856,9.694,0.01,0.021,0.018,angry
0.29,2905,2832,3412,2794,1328,0,528,2213,1722,2319,2646,3577,138,47,3087,3371,0.251,3.757,9.273,0.04,0.028,-0.008,0.567,-2.811,9.68,0.007,0.026,0.015,angry
0.3,2903,2832,3408,2798,1335,0,561,2255,1711,2299,2638,3541,134,31,3092,3387,0.259,3.773,9.251,0.038,0.026,-0.003,0.558,-2.866,9.737,0.006,0.022,0.014,angry
0.31,2909,2821,3413,2804,1334,0,622,2299,1725,2281,2613,3549,136,33,3093,3381,0.259,3.735,9.246,0.037,0.025,-0.001,0.56,-2.844,9.668,0.007,0.021,0.018,angry
0.32,2896,2820,3411,2803,1320,0,622,2384,1739,2261,2544,3548,137,31,3095,3382,0.196,3.792,9.287,0.045,0.025,-0.006,0.546,-2.825,9.682,0.01,0.021,0.014,angry
0.33,2918,2813,3409,2803,1311,0,658,2419,1737,2251,2531,3549,132,29,3096,3455,0.273,3.74,9.275,0.043,0.021,-0.007,0.546,-2.828,9.725,0.014,0.026,0.013,angry
0.34,2919,2811,3399,2800,1395,0,695,2450,1736,2227,2528,3549,145,37,3093,3405,0.242,3.737,9.294,0.039,0.025,-0.003,0.524,-2.823,9.708,0.013,0.023,0.014,angry
0.35,2913,2805,3395,2805,1343,0,741,2494,1635,2203,2526,3528,135,31,3102,3423,0.206,3.757,9.33,0.04,0.025,-0.005,0.5,-2.84,9.756,0.013,0.022,0.015,angry
0.36,2907,2797,3387,2801,1373,0,736,2542,1583,2135,2505,3538,150,35,2999,3503,0.275,3.802,9.28,0.037,0.025,-0.011,0.534,-2.844,9.665,0.016,0.026,0.013,angry
0.37,2897,2765,3370,2800,1290,0,823,2608,1565,2129,2487,3529,119,24,3111,3448,0.263,3.795,9.29,0.039,0.027,-0.009,0.503,-2.851,9.629,0.018,0.029,0.009,angry
0.38,2893,2762,3349,2781,1280,0,890,2657,1499,2121,2454,3568,121,30,3119,3483,0.294,3.773,9.306,0.041,0.026,-0.007,0.5,-2.863,9.689,0.014,0.027,0.012,angry
0.39,2869,2740,3335,2752,1360,0,995,2710,1435,2101,2549,3509,109,29,3133,3487,0.235,3.754,9.299,0.039,0.024,-0.009,0.565,-2.842,9.74,0.015,0.023,0.011,angry
0.4,2853,2715,3312,2734,1347,0,1042,2743,1395,2076,2410,3723,105,27,3178,3503,0.242,3.773,9.256,0.037,0.026,-0.001,0.57,-2.851,9.673,0.018,0.023,0.014,angry
0.41,2842,2709,3291,2717,1351,0,1062,2789,1215,2019,2305,3487,94,25,3143,3515,0.247,3.735,9.263,0.034,0.029,-0.004,0.558,-2.816,9.675,0.012,0.03,0.011,angry
0.42,2817,2689,3271,2706,1344,0,1104,2821,1127,1903,2259,3463,85,23,3143,3541,0.283,3.735,9.34,0.039,0.022,-0.005,0.584,-2.835,9.749,0.015,0.025,0.016,angry
0.43,2791,2678,3263,2693,1322,0,1156,2861,1122,1881,2180,3445,75,22,3225,3547,0.294,3.752,9.27,0.035,0.026,-0.005,0.579,-2.875,9.73,0.02,0.025,0.015,angry
0.44,2765,2674,3247,2682,1328,0,1173,2893,1077,1799,2065,3433,58,19,3141,3560,0.199,3.757,9.282,0.043,0.027,-0.003,0.558,-2.842,9.73,0.013,0.029,0.014,angry
0.45,2736,2675,3237,2673,1296,0,1200,2927,1067,1829,2019,3284,82,23,3131,3571,0.278,3.757,9.258,0.038,0.025,-0.008,0.508,-2.775,9.716,0.009,0.022,0.012,angry
0.46,2672,2665,3223,2669,1293,0,1278,2943,1043,1835,2034,3417,71,0,3153,3575,0.271,3.78,9.268,0.036,0.026,-0.008,0.51,-2.792,9.752,0.012,0.023,0.016,angry
0.47,2587,2656,3216,2663,1296,0,1324,2962,1051,1807,1922,3411,71,21,3145,3588,0.271,3.785,9.285,0.038,0.028,-0.01,0.529,-2.796,9.687,0.007,0.025,0.013,angry
0.48,2465,2651,3214,2658,1354,0,1407,2983,1007,1791,2024,3407,77,18,3147,3599,0.268,3.721,9.306,0.041,0.026,-0.009,0.536,-2.796,9.682,0.005,0.027,0.017,angry
0.49,2369,2643,3204,2665,1397,0,1441,3003,1019,1778,2001,3400,29,6,3140,3601,0.263,3.721,9.263,0.038,0.027,-0.007,0.539,-2.832,9.73,0.007,0.019,0.014,angry
0.5,2285,2629,3196,2653,1364,0,1458,3019,1003,1743,1919,3389,40,0,3129,3605,0.306,3.721,9.285,0.04,0.027,-0.009,0.527,-2.823,9.728,0.009,0.027,0.009,angry
0.51,2211,2619,3183,2661,1377,0,1467,3043,951,1691,1922,3509,0,10,3125,3612,0.259,3.749,9.309,0.042,0.027,-0.006,0.52,-2.82,9.744,0.011,0.024,0.013,angry
0.52,2173,2603,3178,2655,1296,0,1533,3066,815,1619,1932,3368,53,13,3113,3609,0.22,3.759,9.261,0.043,0.027,-0.008,0.512,-2.825,9.665,0.009,0.021,0.016,angry
0.53,2135,2582,3170,2648,1296,0,1589,3089,743,1623,1916,3357,59,18,3111,3819,0.254,3.711,9.263,0.041,0.023,-0.003,0.505,-2.77,9.673,0.009,0.026,0.014,angry
0.54,2099,2559,3169,2643,1319,0,1561,3107,743,1593,1840,3355,73,0,3101,3621,0.254,3.73,9.27,0.041,0.027,-0.005,0.541,-2.854,9.732,0.007,0.021,0.017,angry
0.55,2125,2559,3162,2641,1339,0,1587,3123,743,1611,1814,3349,58,21,3077,3643,0.237,3.73,9.318,0.045,0.025,-0.006,0.536,-2.804,9.735,0.007,0.023,0.016,angry
0.56,2102,2544,3157,2630,1361,0,1574,3130,687,1627,1865,3355,45,13,3093,3605,0.247,3.711,9.337,0.046,0.025,-0.007,0.546,-2.782,9.732,0.006,0.021,0.015,angry
0.57,2106,2540,3150,2631,1359,0,1569,3141,651,1627,1709,3347,67,19,3101,3629,0.249,3.733,9.246,0.046,0.026,-0.005,0.584,-2.823,9.723,0.006,0.021,0.014,angry
0.58,2128,2537,3149,2633,1380,0,1591,3143,620,1639,1824,3297,41,17,3093,3637,0.235,3.745,9.297,0.044,0.028,-0.009,0.522,-2.806,9.728,0.005,0.021,0.009,angry
0.59,2124,2533,3151,2640,1399,0,1623,3155,573,1699,1742,3346,45,4,3087,3635,0.261,3.742,9.29,0.042,0.028,-0.009,0.56,-2.823,9.689,0.006,0.021,0.014,angry
0.6,2099,2537,3143,2637,1414,0,1671,3178,596,1619,1699,3347,61,16,3087,3642,0.256,3.728,9.292,0.038,0.03,-0.007,0.524,-2.828,9.723,0.001,0.021,0.017,angry
0.61,2087,2532,3142,2637,1402,0,1680,3201,623,1577,1673,3350,47,16,3081,3641,0.256,3.754,9.328,0.038,0.033,-0.009,0.536,-2.796,9.742,0.004,0.023,0.015,angry
0.62,2096,2535,3146,2641,1371,0,1682,3231,627,1799,1650,3355,97,13,3087,3641,0.275,3.713,9.237,0.038,0.029,-0.006,0.534,-2.758,9.778,0.005,0.021,0.016,angry
0.63,2114,2535,3136,2637,1369,0,1685,3242,647,1639,1655,3364,25,9,3089,3645,0.249,3.709,9.246,0.037,0.03,-0.011,0.522,-2.796,9.79,0.004,0.023,0.019,angry
0.64,2119,2551,3145,2655,1392,0,1729,3268,598,1691,1666,3365,26,10,3081,3689,0.249,3.766,9.246,0.037,0.03,-0.007,0.534,-2.82,9.725,0.004,0.024,0.02,angry
0.65,2109,2549,3136,2646,1357,0,1745,3294,633,1562,1374,3369,48,13,3080,3677,0.235,3.685,9.268,0.029,0.028,-0.004,0.524,-2.789,9.692,0.007,0.029,0.016,angry
0.66,2107,2544,3135,2647,1311,0,1771,3327,629,1507,1568,3363,19,6,3081,3564,0.232,3.694,9.261,0.027,0.031,-0.002,0.52,-2.808,9.795,0.009,0.027,0.018,angry
0.67,2124,2556,3131,2657,1328,0,1840,3373,620,1514,1292,3352,13,6,3069,3656,0.263,3.757,9.306,0.013,0.026,0.001,0.515,-2.83,9.754,0.01,0.028,0.019,angry
0.68,1991,2554,3121,2640,1248,0,1834,3441,602,1462,1097,3263,36,4,3018,3667,0.294,3.713,9.278,0.006,0.033,0.006,0.524,-2.825,9.771,0.011,0.033,0.015,angry
0.69,1767,2523,3094,2596,1260,0,1925,3503,573,1305,601,3031,8,6,2943,3643,0.268,3.694,9.301,-0.001,0.035,0.007,0.486,-2.863,9.773,0.009,0.024,0.01,angry
0.7,1605,2468,3040,2494,1266,0,2103,3553,493,1266,488,3003,11,4,2907,3636,0.357,3.666,9.347,-0.01,0.034,0.01,0.474,-2.854,9.771,0.012,0.022,-0.001,angry
0.71,1487,2350,2982,2389,1231,0,2224,3611,311,1123,0,2635,5,0,2803,3735,0.345,3.675,9.294,0.015,0.034,0.005,0.534,-2.818,9.646,0.015,-0.005,-0.015,angry
0.72,1517,2255,2926,2320,1367,0,2290,3636,121,908,151,2361,0,0,2739,3605,0.261,3.67,9.273,0.027,0.041,-0.004,0.63,-2.619,9.627,-0.01,-0.014,-0.015,angry
0.73,1535,2172,2890,2256,1391,0,2320,3658,111,821,0,2228,0,0,2697,3591,0.271,3.692,9.294,0.028,0.045,-0.006,0.567,-2.729,9.613,-0.023,0.007,0.001,angry
0.74,1567,2096,2850,2223,1429,0,2337,3668,165,917,0,2195,0,0,2631,3595,0.249,3.706,9.366,0.03,0.026,0.001,0.553,-2.926,9.787,-0.01,0.017,0.009,angry
0.75,1535,2067,2800,2118,1408,0,2377,3668,151,611,2,1947,9,0,2614,3609,0.218,3.63,9.297,0.027,0.018,0.001,0.529,-2.986,9.689,0.01,0.003,-0.014,angry
0.76,1500,2078,2755,1992,1457,0,2394,3689,185,439,0,1823,61,0,2621,3621,0.242,3.627,9.345,0.036,0.011,0,0.558,-2.816,9.649,0.018,-0.003,-0.01,angry
0.77,1456,2000,2665,1815,1498,0,2442,3687,137,325,0,1758,0,0,2629,3652,0.297,3.543,9.357,0.022,-0.003,0.014,0.529,-2.933,9.718,0.048,0.004,-0.025,angry
0.78,1424,1963,2542,1569,1521,0,2450,3689,0,236,0,1507,0,0,2597,3765,0.275,3.546,9.318,0.041,0.005,0,0.601,-2.89,9.821,0.043,-0.029,-0.039,angry
0.79,1424,1876,2478,1531,1535,0,2448,3683,25,181,0,1273,0,0,2663,3689,0.333,3.661,9.304,0.046,0.009,-0.004,0.687,-2.887,9.771,0.042,-0.03,-0.051,angry
0.8,1396,1638,2333,1375,1460,0,2411,3672,13,117,0,716,0,0,2751,3701,0.342,3.656,9.392,0.045,0.013,-0.006,0.546,-2.682,9.627,0.062,-0.089,-0.066,angry
0.81,1435,1338,2130,1257,1373,0,2346,3664,0,212,0,345,0,0,2843,3721,0.294,3.646,9.321,0.06,0.026,-0.016,0.594,-2.744,9.682,0.074,-0.07,-0.045,angry
0.82,1413,975,1981,1283,1295,0,2287,3635,0,133,0,288,0,0,2804,3731,0.287,3.642,9.321,0.067,0.039,-0.019,0.73,-2.679,9.5,0.083,-0.054,-0.042,angry
0.83,1462,811,1859,1274,1114,0,2177,3601,7,135,0,242,1,21,2943,3763,0.263,3.615,9.292,0.074,0.047,-0.022,0.742,-2.65,9.73,0.089,-0.012,-0.021,angry
0.84,1470,819,1741,1342,957,0,2041,3568,0,215,40,253,26,0,3028,3789,0.249,3.656,9.345,0.072,0.043,-0.009,0.644,-2.655,9.682,0.096,-0.015,-0.007,angry
0.85,1411,530,1506,1212,827,0,1832,3503,0,246,0,337,6,0,3089,3817,0.345,3.618,9.347,0.073,0.05,-0.005,0.69,-2.701,9.651,0.101,0.006,0.002,angry
0.86,1392,533,1410,1145,397,0,1361,3362,0,237,0,477,31,0,3155,3839,0.28,3.663,9.301,0.101,0.046,-0.007,0.68,-2.725,9.783,0.094,0.022,0.011,angry
0.87,1348,367,1239,927,134,0,656,3067,0,248,0,713,28,0,3250,3881,0.306,3.61,9.357,0.124,0.044,0,0.766,-2.614,9.639,0.079,0.003,0.01,angry
0.88,1271,228,1169,703,0,0,0,2306,0,411,2,840,23,0,3293,3914,0.541,3.426,9.39,0.214,0.036,-0.005,0.838,-2.519,9.725,0.066,0.033,0.011,angry
0.89,1189,126,1225,654,0,0,0,0,0,883,601,1078,18,0,3369,3939,0.498,2.662,9.419,0.5,0.064,0.098,0.673,-2.507,9.512,0.034,0.003,0.034,angry
0.9,1150,223,1286,557,0,0,0,0,1,918,785,1525,117,1,3468,3967,1.039,2.823,11.119,0.935,-0.172,-0.587,0.718,-2.667,9.953,0.025,0.041,0.066,angry
0.91,1150,0,624,80,0,0,0,0,1,1043,785,1699,205,2,3519,3978,1.812,2.978,10.178,1.315,0.201,-0.778,0.733,-2.629,9.893,0.011,0.061,0.059,angry
0.92,1022,0,0,0,0,0,0,0,61,1291,1832,2057,481,25,3580,4007,2.701,3.579,12.431,1.612,0.265,-1.547,0.718,-2.473,9.677,-0.022,0.078,0.066,angry
0.93,0,0,0,0,0,0,0,0,57,1431,2490,2315,669,16,3607,3993,6.093,2.327,13.329,1.288,0.836,-2.364,0.663,-2.492,9.802,-0.044,0.073,0.059,angry
0.94,0,0,0,0,0,0,0,0,111,1557,2597,2425,775,29,3625,3987,5.765,4.717,15.972,0.905,0.996,-1.863,0.675,-2.612,9.673,-0.048,0.067,0.063,angry
0.95,0,0,0,0,0,0,0,0,171,1581,2608,2552,851,39,3593,3947,8.035,0.915,15.071,0.408,0.536,-1.082,0.591,-2.737,9.776,-0.049,0.072,0.058,angry
0.96,0,0,0,0,0,0,0,0,217,1647,2572,2679,1043,44,3671,3924,9.615,-1.75,11.205,0.13,0.238,-0.368,0.62,-2.703,9.783,-0.043,0.059,0.055,angry
0.97,0,0,0,0,0,0,0,0,203,1684,2618,2719,1203,43,3631,3892,6.632,-2.351,10.872,-0.151,-0.044,0.637,0.603,-2.665,9.78,-0.047,0.044,0.046,angry
0.98,0,0,0,0,0,0,0,0,267,1813,2710,2852,1349,45,3595,3749,4.424,-2.593,10.29,-0.497,-0.516,1.167,0.644,-2.576,9.677,-0.057,0.023,0.059,angry
0.99,0,0,0,0,0,0,0,0,349,2073,2830,2991,1597,47,3502,3411,2.82,-1.18,11.248,-0.834,-0.517,1.393,0.587,-2.67,9.644,-0.062,0.014,0.049,angry
1,0,0,0,0,0,0,0,0,411,2071,2879,3038,1717,51,3431,3271,1.104,0.297,11.887,-1.22,-0.591,1.487,0.687,-2.691,9.752,-0.045,0.016,0.048,angry
1.01,0,0,0,0,0,0,0,0,503,2253,2899,3145,1945,123,3263,3261,0.242,1.073,11.552,-1.483,-0.636,1.366,0.622,-2.679,9.74,-0.058,0.015,0.049,angry
1.02,0,0,0,0,0,0,0,0,679,2429,2935,3215,2155,58,3101,3223,-0.158,1.568,11.056,-1.63,-0.558,1.067,0.611,-2.705,9.725,-0.056,0.031,0.044,angry
1.03,0,0,0,0,0,0,0,0,887,2451,3025,3271,2247,48,3087,3205,-0.318,2.148,10.319,-1.656,-0.426,0.697,0.622,-2.768,9.725,-0.05,0.022,0.04,angry
1.04,0,0,0,0,0,0,0,0,887,2508,3063,3337,2447,48,3097,3112,-0.733,3.508,11.25,-1.533,-0.574,0.325,0.582,-2.67,9.694,-0.068,0.026,0.051,angry
1.05,0,0,0,0,0,0,0,0,1053,2653,3176,3419,2649,47,3039,2877,-0.807,5.296,12.158,-1.705,-0.985,0.046,0.589,-2.861,9.716,-0.068,0.066,0.051,angry
1.06,0,0,0,0,0,0,0,0,1371,2767,3206,3471,2811,47,2915,2765,-0.079,4.887,8.959,-1.741,-1.106,-0.196,0.086,-3.299,8.411,-0.022,0.143,0.072,angry
1.07,0,0,0,0,0,0,0,0,1657,2982,3293,3605,2999,47,2667,2387,2.969,6.574,6.51,-1.286,-1.006,-0.094,-0.656,0.201,8.99,0.078,0.136,0.088,angry
1.08,0,0,0,0,0,0,0,0,1989,3193,3337,3775,3053,45,2483,1157,-0.113,7.719,4.52,-0.413,-0.75,1.013,0.879,-3.766,9.488,0.014,0.19,0.087,angry
1.09,0,0,0,0,0,0,0,0,2151,3291,3350,3859,2937,38,2227,84,-0.735,17.006,6.795,-0.286,0.537,1.894,0.16,-2.859,10.314,-0.026,0.153,0.058,angry
1.1,0,0,0,0,0,0,0,0,2463,3448,3380,3955,2631,5,1499,0,-7.788,17.6,-5.811,0.387,2.2,1.575,0.68,-3.057,9.744,0.108,0.111,0.13,angry
1.11,0,0,0,0,0,0,0,894,2661,3475,3396,3993,2455,4,1203,0,-8.126,19.427,-7.683,1.649,1.939,1.225,0.596,-2.751,9.922,-0.081,0.073,0.112,angry
1.12,0,0,0,0,0,0,0,2753,2933,3563,3396,4051,1862,3,372,0,-9.941,-1.537,19.613,1.412,2.525,-0.177,0.864,-2.976,9.668,-0.634,0.068,-0.146,angry
1.13,0,0,0,0,0,0,0,3379,3118,3577,3393,4093,1445,1,419,0,-7.19,1.429,6.424,2.624,0.379,-0.799,0.687,-2.377,9.687,-0.669,0.004,-0.132,angry
1.14,0,0,0,0,0,0,334,3504,3407,3527,3432,3999,675,0,89,0,8.396,7.652,9.96,1.92,0.144,-0.136,1.211,-1.463,9.974,-1.548,-0.399,-0.363,angry
1.15,0,0,0,0,0,0,1161,3649,3577,2871,3380,3996,751,0,1,0,-19.506,6.203,18.565,1.473,-0.127,-1.887,1.113,-0.395,12.404,-3.071,-0.287,-0.501,angry
1.16,428,0,257,0,731,0,2082,3810,3564,2355,3470,3983,567,0,0,0,-0.812,10.25,17.183,0.712,-0.302,-0.197,1.803,-0.848,11.143,-4.272,0.216,-0.597,angry
1.17,944,430,938,662,900,0,2559,3882,3413,776,3434,3469,338,0,0,0,1.302,3.663,8.969,0.175,-0.029,-0.09,3.084,-2.069,17.229,-6.74,0.402,0.504,angry
1.18,1192,630,1439,1150,1046,0,2884,3919,2387,216,1725,1493,0,39,0,0,0.433,3.481,9.158,0.03,-0.007,-0.051,0.816,-14.624,19.613,-8.731,-0.847,2.224,angry
1.19,1399,940,1770,1501,1502,0,3083,3946,1783,0,0,42,0,7,0,0,0.505,3.742,9.268,0.058,0.002,-0.039,0.57,-9.953,19.613,-8.731,-1.516,3.159,angry
1.2,1469,1343,2185,1805,1921,0,3191,3956,0,19,0,0,39,0,0,0,0.316,3.895,9.558,0.06,-0.026,-0.014,6.955,-4.027,16.776,-4.721,-1.075,3.612,angry
1.21,1530,1584,2414,1915,2192,27,3270,3963,0,0,0,0,0,0,0,0,0.464,3.517,9.359,0.077,0.034,-0.029,11.214,3.62,19.613,1.155,0.177,2.297,angry
1.22,1631,1721,2624,2099,2352,0,3286,3949,0,0,0,0,0,0,0,0,0.39,3.591,9.335,0.098,0.074,-0.054,11.004,1.738,11.344,2.731,1.647,2.094,angry
1.23,1684,1853,2736,2198,2416,0,3269,3941,0,0,0,0,0,0,0,0,0.362,3.639,9.299,0.07,0.104,-0.046,8.844,4.978,8.377,2.512,1.154,1.413,angry
1.24,1741,1942,2838,2292,2453,0,3248,3927,0,0,0,0,0,0,0,0,0.261,3.587,9.361,0.075,0.074,-0.029,9.189,3.266,7.326,2.674,0.512,0.57,angry
1.25,1804,2026,2931,2394,2481,0,3223,3908,0,0,0,0,0,0,0,0,0.321,3.711,9.45,0.084,0.058,-0.017,9.697,2.887,6.63,2.889,0.063,-0.264,angry
1.26,1854,2181,3024,2471,2511,0,3178,3883,0,0,0,0,0,0,0,0,0.321,3.553,9.383,0.095,0.055,-0.016,9.78,1.322,6.747,3.101,-0.089,-1.041,angry
1.27,1968,2329,3089,2555,2549,0,3122,3856,0,0,0,0,0,0,0,0,0.187,3.639,9.369,0.082,0.045,-0.026,8.384,-0.893,8.686,3.51,-0.111,-1.678,angry
1.28,2112,2448,3205,2640,2619,0,3011,3807,0,0,0,0,39,0,0,0,0.211,3.737,9.364,0.063,0.046,-0.023,4.499,-3.385,9.663,4.533,-0.408,-2.378,angry
1.29,2255,2520,3297,2741,2687,0,2925,3765,0,0,0,0,0,0,0,0,0.385,3.855,9.371,0.084,0.019,-0.02,1.568,-4.824,10.111,5.055,-0.597,-2.227,angry
1.3,2384,2640,3393,2857,2778,0,2799,3710,0,0,0,0,1,0,0,0,0.113,3.632,9.309,0.092,0.041,-0.011,0.431,-5.725,10.843,5.205,-0.766,-1.979,angry
1.31,2547,2736,3481,2984,2866,0,2672,3632,0,0,46,0,0,0,0,0,0.211,3.613,9.232,0.091,0.037,-0.017,-0.139,-6.529,12.39,5.226,-1.253,-1.422,angry
1.32,2691,2819,3568,3105,2950,0,2527,3533,0,0,0,0,0,0,0,0,0.168,3.555,9.275,0.083,0.069,-0.017,0.843,-7.276,16.158,4.902,-1.642,-1.217,angry
1.33,2864,2933,3655,3234,3065,0,2354,3362,0,0,15,0,0,0,0,0,0.079,3.51,9.112,0.127,0.048,-0.009,1.99,-9.629,19.613,4.788,-1.769,-1.206,angry
1.34,2969,3038,3743,3358,3151,0,2061,2800,0,0,0,0,0,0,0,0,0.072,3.558,9.024,0.137,0.085,-0.017,3.704,-19.613,19.613,4.378,-2.251,-1.818,angry
1.35,3126,3183,3824,3470,3122,0,1573,1230,0,0,0,0,0,0,0,0,-0.012,4.197,9.347,0.186,0.144,-0.019,2.526,-19.613,8.806,4.01,-1.548,-2.131,angry
1.36,3293,3342,3888,3568,2883,0,897,0,0,0,0,0,11,0,0,0,-0.101,4.166,10.015,0.338,0.238,0.02,-3.132,-19.613,-0.029,3.135,-1.916,-2.465,angry
1.37,3447,3472,3923,3651,2478,0,48,0,0,0,0,0,0,0,0,0,0.158,3.132,9.687,0.668,0.311,0.148,-5.274,-19.613,-10.463,-0.302,-0.975,-3.011,angry
1.38,3597,3521,3975,3696,2199,0,0,0,0,0,0,0,0,0,0,0,-0.012,2.306,10.278,0.847,0.227,0.269,-12.206,-19.613,-11.839,-1.609,1.135,-2.195,angry
1.39,3769,3550,4002,3748,1170,0,0,0,0,0,0,0,0,0,10,1429,0.153,3.189,9.22,1.405,0.209,0.53,7.017,12.536,19.613,0.264,5.635,2.379,angry
1.4,3856,3467,4031,3767,998,0,0,0,0,0,0,0,0,0,168,2915,0.699,3.014,9.471,1.846,0.07,0.766,-19.613,-4.135,19.613,-6.22,-1.956,-0.189,angry
1.41,3931,3071,4075,3749,484,0,0,0,0,0,0,53,0,0,155,3401,1.027,2.272,8.32,3.283,0.345,0.958,-6.323,-8.717,11.128,-4.75,0.82,2.136,angry
1.42,3947,2787,3943,3779,303,0,0,0,0,0,0,0,0,0,1398,3644,2.564,3.754,10.716,3.911,0.925,0.881,12.811,-12.251,14.856,-3.106,0.626,1.502,angry
1.43,3935,2395,3701,3341,0,0,0,0,0,0,0,13,0,0,2200,3815,0.34,2.028,10.422,5.424,1.263,0.184,-8.183,-16.156,19.613,-0.596,1.976,0.705,angry
1.44,3678,1085,2788,1860,0,0,0,0,0,0,0,0,13,0,2775,3896,-3.606,10.623,19.613,8.346,-1.893,-1.244,-2.713,-1.051,12.594,-0.204,0.675,0.357,angry
1.45,2208,0,389,0,0,0,0,0,0,159,74,571,3,0,2937,3914,-5.583,7.367,16.932,8.731,-2.793,-3.347,2.246,-2.612,9.194,0.049,0.382,0.234,angry
1.46,1222,0,0,0,0,0,0,0,0,239,53,1191,24,0,3027,3891,-0.017,17.696,19.613,8.466,-2.738,-2.446,0.105,-2.753,10.633,0.031,0.241,0.175,angry
1.47,0,0,0,0,0,0,0,0,0,495,7,1629,54,0,3178,3960,12.479,3.792,19.613,3.671,-1.586,-3.986,1.523,-2.799,9.831,0.001,0.192,0.159,angry
1.48,0,0,0,0,0,0,0,0,0,861,1661,1989,23,0,3271,3976,9.249,7.977,19.613,0.921,-0.575,-2.026,0.941,-2.753,9.773,-0.077,0.104,0.166,angry
1.49,0,0,0,0,0,0,0,0,3,1043,2055,2239,137,2,3373,3987,12.186,-1.676,15.426,-0.261,0.264,-1.747,1.032,-2.909,9.898,-0.012,0.124,0.117,angry
1.5,0,0,0,0,0,0,0,0,39,1140,2341,2387,117,2,3449,3983,7.432,-4.618,17.131,-1.334,0.283,-1.281,0.587,-2.851,9.725,0.071,0.1,0.058,angry
1.51,0,0,0,0,0,0,0,0,3,1339,2364,2507,157,3,3495,3979,7.154,-2.559,13.403,-1.925,-0.388,-0.651,0.749,-2.435,9.469,0.025,0.021,0.027,angry
1.52,0,0,0,0,0,0,0,0,0,1449,2526,2573,263,25,3514,3951,7.357,-3.268,10.769,-2.522,-0.605,-0.196,0.934,-2.559,9.979,0.018,0.068,0.021,angry
1.53,0,0,0,0,0,0,0,0,2,1609,2646,2627,339,3,3527,3925,7.161,-3.026,9.031,-2.909,-0.448,0.258,0.934,-2.516,9.78,0.005,0.094,0.037,angry
1.54,0,0,0,0,0,0,0,0,26,1685,2556,2643,380,9,3507,3894,5.365,-1.089,9.584,-3.294,-0.449,0.645,0.939,-2.653,9.823,0.011,0.117,0.034,angry
1.55,0,0,0,0,0,0,0,0,17,1737,2602,2686,413,12,3479,3868,3.462,1.264,11.246,-3.81,-0.695,0.963,0.788,-2.354,9.596,-0.008,0.088,0.056,angry
1.56,0,0,0,0,0,0,0,0,47,1747,2638,2779,459,9,3467,3835,2.102,3.314,11.025,-4.394,-0.842,1.135,0.606,-2.32,9.711,-0.051,0.077,0.079,angry
1.57,0,0,0,0,0,0,0,0,29,1739,2782,2988,599,9,3423,3784,1.037,4.353,9.194,-4.826,-0.768,1.042,0.522,-2.38,9.754,-0.095,0.083,0.1,angry
1.58,0,0,0,0,0,0,0,0,54,1702,2700,2939,827,17,3374,3720,-0.618,5.246,8.564,-5.002,-0.904,0.857,0.625,-2.452,9.747,-0.134,0.057,0.117,angry
1.59,0,0,0,0,0,0,0,0,215,1829,2720,3133,1077,41,3245,3613,-1.003,6.457,9.076,-5.023,-1.221,0.72,0.845,-2.569,9.744,-0.136,0.075,0.119,angry
1.6,0,0,0,0,0,0,0,0,281,2133,2812,3253,1507,47,2956,3100,-0.192,8.169,9.766,-4.798,-1.83,0.796,0.668,-2.928,9.969,-0.132,0.092,0.097,angry
1.61,0,0,0,0,0,0,0,0,453,2356,2994,3463,1855,51,2781,2868,0.496,8.528,11.598,-4.595,-1.684,1.024,0.634,-2.667,9.673,-0.161,0.103,0.083,angry
1.62,0,0,0,0,0,0,0,0,655,2453,3053,3498,1995,47,2789,2779,-0.129,11.064,16.489,-4.561,-1.988,1.225,0.567,-2.868,9.819,-0.177,0.1,0.083,angry
1.63,0,0,0,0,0,0,0,0,1059,2744,3222,3619,2379,47,2659,2509,3.323,15.455,16.716,-4.842,-1.564,1.408,0.469,-2.923,9.847,-0.173,0.142,0.013,angry
1.64,0,0,0,0,0,0,0,0,1583,2838,3227,3785,2677,46,2309,1671,0.376,19.613,12.433,-4.333,-1.085,2.075,0.527,-2.947,10.144,-0.172,0.164,0.024,angry
1.65,0,0,0,0,0,0,0,0,1717,2925,3273,3851,2731,47,2173,984,-3.266,19.613,7.721,-3.451,-1.511,2.489,0.034,-1.784,9.759,-0.163,0.16,0.028,angry
1.66,0,0,0,0,0,0,0,0,2198,3164,3324,3976,2617,21,1498,88,-0.644,19.613,-2.679,-2.312,-0.461,2.479,0.68,-2.612,9.986,-0.044,0.033,0.052,angry
1.67,0,0,0,0,0,0,0,0,2675,3324,3373,4058,2189,2,153,0,-11.729,19.613,-8.097,-0.279,-0.219,2.16,0.575,-2.028,9.541,-0.421,0.029,-0.022,angry
1.68,0,0,0,0,0,0,0,1290,2906,3375,3386,3963,1647,0,187,0,-6.098,19.613,-19.613,3.228,2.045,1.803,0.69,-3.476,9.069,-0.623,0.181,-0.176,angry
1.69,0,0,0,0,0,0,557,3446,3311,3454,3396,4095,423,3,69,0,-19.613,-15.371,19.613,4.447,1.954,-1.277,0.783,-1.547,9.864,-0.986,-0.122,-0.235,angry
1.7,0,0,0,0,0,0,597,3767,3539,3309,3419,4025,441,0,0,0,2.219,15.708,7.992,4.36,0.963,-1.797,2.356,-2.131,9.254,-2.435,-0.492,-0.526,angry
1.71,0,0,0,0,0,0,1966,3855,3603,3042,3432,3977,315,0,0,0,-6.551,5.607,12.56,2.746,0.713,-0.52,2.926,0.247,13.113,-3.875,0.075,-0.714,angry
1.72,368,411,0,0,877,0,2954,3789,3360,1571,3542,3803,408,0,0,0,10.714,8.885,2.569,-0.625,1.647,-0.54,0.196,-0.096,10.367,-7.415,0.228,0.041,angry
1.73,1068,1523,1966,730,1630,0,3163,3813,1891,211,2505,2278,0,0,0,0,3.591,5.222,11.035,0.491,0.282,-0.313,1.836,-9.833,19.613,-8.731,-2.1,2.027,angry
1.74,1319,2013,2668,1713,2192,0,3309,3839,1076,91,0,821,0,0,0,0,0.862,3.519,9.017,0.144,0.2,-0.148,-2.073,-14.696,19.613,-8.731,-3.605,3.846,angry
1.75,1470,2287,2961,2098,2513,0,3391,3870,0,0,0,0,0,0,0,0,0.469,3.754,9.354,0.056,0.116,-0.092,14.092,-4.982,17.87,-5.872,-2.431,4.623,angry
1.76,1559,2512,3167,2366,2739,0,3441,3856,53,0,0,0,0,0,110,0,0.105,3.685,9.476,0.036,0.051,-0.008,14.427,4.515,19.613,0.321,-1.027,2.031,angry
1.77,1641,2706,3307,2480,2895,0,3446,3791,0,0,0,0,0,0,0,0,0.505,3.587,9.452,0.077,0.022,-0.009,14.15,1.595,12.658,1.937,1.253,1.474,angry
1.78,1711,2800,3376,2550,2997,0,3414,3728,0,0,0,0,0,0,0,0,0.819,3.747,9.088,0.082,0.038,-0.033,8.447,5.622,10.436,2.483,0.966,1.071,angry
1.79,1810,2876,3434,2637,3059,0,3362,3664,0,0,0,0,0,0,0,0,0.773,3.668,9.294,0.1,0.071,-0.045,6.891,3.342,8.217,2.736,0.454,0.357,angry
1.8,1889,2915,3473,2699,3071,0,3270,3583,0,0,0,0,21,0,0,0,0.412,3.582,9.301,0.108,0.091,-0.054,6.704,3.072,8.128,3.149,-0.086,-0.193,angry
1.81,2080,2973,3535,2819,3050,0,3059,3447,0,0,0,0,0,0,0,0,0.251,3.651,9.301,0.124,0.073,-0.044,6.548,0.263,8.361,4.045,-0.23,-1.158,angry
1.82,2235,3008,3577,2896,3024,0,2864,3345,0,0,0,35,20,0,0,0,0.347,3.716,9.347,0.122,0.082,-0.042,5.023,-1.563,9.436,4.547,-0.389,-1.552,angry
1.83,2449,3071,3627,3007,2976,0,2597,3129,0,0,0,0,0,0,0,0,0.359,3.785,9.294,0.11,0.077,-0.042,2.921,-3.419,8.71,5.339,-0.647,-1.95,angry
1.84,2549,3133,3690,3099,2881,0,2362,2827,0,0,0,0,0,0,0,0,0.333,3.771,9.261,0.114,0.088,-0.04,2.085,-3.855,8.665,5.466,-0.724,-1.933,angry
1.85,2747,3184,3729,3184,2800,0,2160,2176,0,0,0,0,0,0,0,0,0.309,3.783,9.179,0.12,0.093,-0.056,0.347,-6.043,12.117,5.603,-1.148,-1.642,angry
1.86,2887,3216,3780,3277,2783,0,1863,1489,0,0,0,0,0,0,44,0,0.177,3.687,9.187,0.092,0.109,-0.039,0.007,-7.585,15.986,5.883,-1.498,-1.232,angry
1.87,3025,3266,3825,3365,2873,0,1611,979,0,0,33,0,0,0,0,0,0.144,3.759,9.328,0.11,0.117,-0.03,0.311,-8.181,18.318,5.703,-1.797,-1.177,angry
1.88,3105,3321,3883,3452,2903,0,1156,51,0,0,0,0,0,0,0,0,0.357,3.958,9.61,0.161,0.179,-0.04,1.891,-19.613,19.613,5.519,-1.949,-1.665,angry
1.89,3238,3408,3925,3539,2909,0,630,0,0,0,0,0,0,0,0,0,0.196,3.634,8.77,0.251,0.238,0.003,-0.127,-19.613,13.774,4.805,-1.243,-2.149,angry
1.9,3343,3473,3959,3598,2837,0,207,0,0,0,0,0,0,0,0,0,0.448,3.919,9.349,0.35,0.211,0.094,-5.114,-19.613,-2.215,2.94,-1.107,-1.819,angry
1.91,3453,3531,3985,3651,2541,0,0,0,0,0,0,0,0,0,0,0,0.4,3.067,9.21,0.598,0.276,0.139,-8.543,-19.613,-5.612,2.011,-1,-1.661,angry
1.92,3574,3599,4011,3699,2283,0,0,0,0,0,0,0,0,0,0,0,-0.067,2.167,10.166,0.797,0.288,0.279,-6.431,-19.613,-9.855,-0.183,-0.865,-2.007,angry
1.93,3682,3633,4026,3728,1815,0,0,0,0,0,0,0,0,0,0,0,0.424,3.488,9.376,1.006,0.206,0.375,-10.137,-19.613,-19.613,-2.041,1.199,-2.06,angry
1.94,3787,3655,4032,3749,1225,0,0,0,0,0,0,0,0,0,0,1290,0.299,3.402,8.94,1.351,0.152,0.597,-4.044,-10.072,-13.733,-1.093,3.203,0.284,angry
1.95,3866,3627,4049,3770,880,0,0,0,0,0,0,0,0,0,200,3029,1.276,2.428,9.34,1.998,0.193,0.776,-19.613,18.421,19.613,-3.077,3.409,2.977,angry
1.96,3914,3375,4021,3749,644,0,0,0,0,0,0,0,0,0,332,3541,2.054,2.195,9.986,2.955,0.296,0.977,-7.065,-3.682,2.777,-6.387,-2.843,-0.367,angry
1.97,3937,3149,4030,3691,602,0,0,0,0,0,0,0,0,0,1007,3692,2.2,1.243,10.087,4.46,0.26,1.021,3.012,-13.178,7.089,-4.608,0.164,1.96,angry
1.98,3941,2955,3963,3568,333,0,0,0,0,0,0,0,0,0,2199,3799,2.088,2.349,9.886,5.213,1.097,0.828,11.236,-19.613,19.613,-0.923,4.562,2.395,angry
1.99,3719,2458,3440,2522,0,0,0,0,0,0,2,0,11,0,2631,3850,0.931,1.295,19.613,7.701,-0.89,-0.15,-12.847,15.131,4.001,-0.674,1.916,0.836,angry
2,2263,459,1965,373,0,0,0,0,0,499,0,1192,29,0,2873,3895,-9.021,12.991,19.613,8.731,-2.517,-2.512,-0.429,-2.974,10.738,-0.047,0.529,0.26,angry
2.01,0,0,0,0,0,0,0,0,1,1287,1533,2193,55,2,3223,3925,1.939,9.359,19.613,8.532,-2.258,-2.512,0.86,-3.132,10.183,-0.016,0.284,0.178,angry
2.02,0,0,0,0,0,0,0,0,0,1617,2410,2365,281,2,3359,3943,2.94,17.346,19.613,3.224,-1.089,-3.389,0.814,-2.339,9.957,-0.076,0.145,0.155,angry
2.03,0,0,0,0,0,0,0,0,33,1673,2398,2515,623,10,3448,3759,9.376,-5.77,19.613,0.223,-1.475,-2.293,1.231,-2.959,9.62,-0.083,0.042,0.139,angry
2.04,0,0,0,0,0,0,0,0,21,1895,2362,2751,920,7,3369,3928,7.195,-4.875,16.259,-1.601,-0.244,-2.212,0.97,-2.629,9.711,-0.07,0.048,0.104,angry
2.05,0,0,0,0,0,0,0,0,149,2111,2613,3007,1363,36,3503,3857,6.891,-2.643,12.428,-2.671,-0.957,-1.269,0.97,-2.514,9.503,-0.08,0.082,0.115,angry
2.06,0,0,0,0,0,0,0,0,199,2216,2753,3229,1479,40,3347,3647,7.879,-1.796,8.157,-3.446,-0.974,-0.135,0.934,-2.986,9.89,-0.102,0.18,0.095,angry
2.07,0,0,0,0,0,0,0,0,185,2301,2840,3333,1503,44,3231,3603,4.609,0.819,8.827,-4.124,-0.744,0.767,0.816,-2.78,9.73,-0.089,0.14,0.073,angry
2.08,0,0,0,0,0,0,0,0,375,2408,2991,3454,1511,47,2791,3176,1.81,3.326,8.43,-4.723,-1.062,1.196,0.754,-2.636,9.931,-0.121,0.118,0.065,angry
2.09,0,0,0,0,0,0,0,0,617,2509,3081,3615,1518,0,2425,2607,-0.467,5.092,8.94,-5.049,-1.211,1.027,0.606,-2.799,9.814,-0.13,0.104,0.053,angry
2.1,0,0,0,0,0,0,0,0,677,2518,3104,3592,1657,43,2360,2572,-1.161,7.688,10.951,-5.25,-1.735,0.691,0.591,-2.863,9.862,-0.118,0.09,0.037,angry
2.11,0,0,0,0,0,0,0,0,1059,2680,3135,3653,1723,54,1975,2167,0.958,8.418,11.341,-5.221,-2.073,0.747,0.702,-2.945,9.826,-0.134,0.12,0.028,angry
2.12,0,0,0,0,0,0,0,0,1486,2770,3199,3787,1786,46,1663,1179,3.012,10.106,15.189,-4.897,-2.09,1.24,0.532,-2.77,9.907,-0.121,0.171,0.037,angry
2.13,0,0,0,0,0,0,0,0,1553,2791,3247,3837,1811,51,1481,651,7.446,17.693,19.3,-4.8,-1.602,2.014,0.622,-3.045,9.419,-0.062,0.173,0.046,angry
2.14,0,0,0,0,0,0,0,0,1916,2873,3339,3943,2105,3,1183,0,1.824,19.613,15.921,-4.244,-0.654,3.07,0.871,-3.134,9.761,-0.013,0.093,0.089,angry
2.15,0,0,0,0,0,0,0,0,2072,2905,3299,3989,2153,5,582,0,-1.293,19.613,13.791,-4.054,-0.518,3.399,0.912,-2.78,9.199,0.035,0.051,0.097,angry
2.16,0,0,0,0,0,0,0,0,2279,3004,3314,4029,2123,4,446,0,-4.056,19.613,5.155,-3.975,-0.455,3.809,0.407,-2.83,9.799,-0.165,0.078,0.035,angry
2.17,0,0,0,0,0,0,0,0,2425,3083,3339,4076,2063,3,71,10,-4.954,19.613,-9.184,-2.859,0.362,3.621,1.243,-2.334,9.67,-0.161,0.025,0.038,angry
2.18,0,0,0,0,0,0,0,0,2651,3116,3350,4095,1704,19,0,0,-17.37,19.613,-13.405,-1.696,0.369,1.88,-0.105,-1.319,9.649,-0.666,0.091,-0.193,angry
2.19,0,0,0,0,0,0,0,511,3066,3270,3388,4095,436,1,0,0,-1.518,19.613,-19.613,2.761,-0.193,1.248,0.74,-2.859,9.402,-0.601,0.013,-0.257,angry
2.2,0,0,0,0,0,0,0,2465,3247,3205,3406,4095,229,0,0,0,-0.819,-10.721,-5.662,1.833,3.591,-0.48,0.773,-2.356,9.555,-0.882,-0.089,-0.37,angry
2.21,0,0,0,0,0,0,451,3728,3385,3048,3419,4095,125,0,0,0,-18.167,9.658,12.131,6.066,-2.191,0.693,1.559,-2.093,9.622,-1.286,-0.366,-0.388,angry
2.22,0,0,0,0,0,0,1930,3863,3591,2643,3380,4043,41,0,0,0,11.665,15.874,15.828,3.733,0.471,-0.911,2.571,-1.298,11.746,-3.358,-0.104,-0.6,angry
2.23,453,395,0,0,998,0,3014,3825,3346,1361,3493,3979,0,0,0,0,-8.009,7.171,19.613,1.063,1.509,-0.721,4.511,0.041,14.631,-7.228,1.364,-0.394,angry
2.24,1241,1679,1886,430,1804,0,3189,3790,2871,739,3519,3732,0,0,0,0,0.881,5.859,12.5,0.574,0.637,-0.294,1.003,2.567,17.6,-8.731,0.663,0.604,angry
2.25,1568,2237,2913,1927,2387,0,3293,3788,903,6,1794,1833,0,0,0,0,1.075,4.13,9.744,0.406,0.252,-0.312,-4.911,-12.124,19.613,-8.731,-2.485,4.28,angry
2.26,1843,2544,3251,2481,2705,0,3390,3808,0,0,0,0,0,0,0,0,0.558,4.322,9.701,0.171,0.081,-0.074,10.226,-2.009,19.115,-6.285,-2.094,4.504,angry
2.27,2119,2694,3421,2750,2928,218,3456,3793,0,0,0,0,16,0,0,0,0.287,3.943,9.321,0.067,0.102,-0.043,-2.181,-19.613,19.613,-0.859,0.302,4.092,angry
2.28,2287,2813,3530,2903,2981,0,3438,3785,0,0,0,0,0,0,0,0,0.412,3.555,9.287,0.107,0.016,0.01,15.56,-0.467,13.393,1.382,0.197,1.755,angry
2.29,2382,2865,3571,2974,3029,0,3380,3632,0,0,0,0,0,0,0,47,0.455,3.725,9.345,0.117,0.037,-0.01,9.802,4.463,8.851,2.234,0.675,1.333,angry
2.3,2468,2952,3626,3031,3090,0,3287,3526,0,0,0,0,0,0,0,0,0.627,3.74,9.251,0.105,0.029,-0.028,7.223,2.966,6.577,2.365,0.59,0.492,angry
2.31,2537,3023,3664,3091,3113,0,3156,3408,0,0,0,0,0,0,0,0,0.517,3.852,9.366,0.084,0.083,-0.044,6.194,2.27,7.235,2.751,-0.211,-0.188,angry
2.32,2610,3071,3696,3141,3101,0,2986,3270,17,0,0,0,0,4,0,0,0.493,3.797,9.222,0.113,0.08,-0.034,6.371,1.532,6.776,3.134,-0.722,-0.83,angry
2.33,2718,3167,3728,3216,2951,0,2512,2913,0,0,0,0,0,0,0,0,0.175,3.802,9.282,0.137,0.064,-0.044,5.131,-1.01,8.954,3.954,-0.858,-1.806,angry
2.34,2822,3243,3767,3276,2731,0,2131,2242,0,0,0,0,0,0,0,30,0.371,3.917,9.27,0.141,0.054,-0.042,3.946,-2.631,10.463,4.597,-0.723,-2.084,angry
2.35,2897,3269,3799,3334,2647,0,1837,1186,0,0,0,0,0,0,0,0,0.158,4.049,9.251,0.12,0.084,-0.041,0.651,-3.668,9.993,5.504,-0.718,-2.1,angry
2.36,2983,3314,3837,3392,2615,0,1488,753,0,0,0,0,0,0,0,0,0.357,3.919,9.201,0.107,0.094,-0.038,-1.142,-5.006,11.547,5.696,-1.315,-1.677,angry
2.37,3050,3326,3861,3450,2543,0,1094,253,0,0,0,0,0,0,50,0,0.218,3.984,9.155,0.089,0.12,-0.044,-0.907,-6.342,13.113,5.73,-1.673,-1.464,angry
2.38,3126,3311,3886,3510,2480,0,668,0,0,0,0,0,0,0,0,0,0.259,3.869,9.244,0.078,0.145,-0.028,0.577,-8.332,17.212,5.929,-2.04,-1.28,angry
2.39,3167,3315,3903,3553,2527,0,478,0,0,46,0,0,0,0,0,0,0.086,4.051,9.359,0.079,0.163,-0.016,1.566,-9.421,19.613,5.917,-2.139,-1.345,angry
2.4,3232,3317,3925,3583,2544,0,300,0,0,0,0,0,0,31,0,0,0.201,3.785,9.316,0.114,0.193,-0.014,4.286,-13.956,19.613,5.879,-2.08,-1.507,angry
2.41,3280,3346,3943,3626,2559,0,68,0,0,0,0,0,0,0,0,0,0.223,3.936,9.136,0.213,0.212,0.014,3.285,-19.613,19.613,5.92,-1.928,-1.964,angry
2.42,3359,3372,3963,3662,2517,0,57,0,0,0,0,0,0,0,0,0,0.11,2.787,9.129,0.279,0.251,0.053,3.39,-19.613,19.613,5.53,-1.585,-2.208,angry
2.43,3444,3408,3989,3703,2501,0,0,0,0,0,0,0,0,0,0,0,0.206,3.907,9.347,0.267,0.257,0.063,0.809,-19.613,11.281,4.771,-1.218,-2.026,angry
2.44,3539,3442,4010,3734,2317,0,0,0,0,0,0,0,0,10,0,0,0.364,3.895,9.234,0.395,0.232,0.116,-5.938,-19.613,-0.828,3.572,-1.959,-1.955,angry
2.45,3637,3504,4017,3765,2138,0,0,0,0,0,0,0,0,0,0,0,0.043,2.919,9.522,0.567,0.224,0.197,-4.997,-19.613,-5.71,1.996,-2.518,-2.484,angry
2.46,3743,3522,4031,3791,1775,0,0,0,0,3,0,0,0,0,0,0,0.096,3.314,9.194,0.708,0.188,0.247,-7.128,-19.613,-6.891,0.217,-1.482,-2.56,angry
2.47,3830,3557,4071,3808,1379,0,0,0,0,0,0,0,0,0,0,0,0.283,4.039,9.371,0.95,0.109,0.395,-12.079,-19.613,-11.684,-1.623,0.06,-2.145,angry
2.48,3890,3556,4048,3825,1137,0,0,0,0,0,0,0,0,0,0,0,0.146,3.493,8.851,1.259,0.075,0.54,-11.315,-19.613,-16.637,-3.411,1.06,-1.293,angry
2.49,3936,3472,4095,3825,873,0,0,0,0,51,0,0,0,0,0,1709,0.153,2.986,9.048,1.556,0.242,0.638,10.285,0.596,19.613,-0.398,5.006,1.988,angry
2.5,3969,3275,4063,3815,645,0,0,0,0,0,0,0,0,0,0,3116,1.477,2.895,10.089,2.658,0.187,0.805,-17.916,0.263,14.277,-6.834,-2.422,-0.733,angry
2.51,3985,3120,4037,3784,478,0,0,0,0,0,0,0,0,0,0,3544,1.451,2.294,8.59,3.657,0.358,0.883,-4.901,-7.664,6.306,-5.396,1.344,2.43,angry
2.52,4004,2929,4007,3719,407,0,0,0,0,0,0,0,0,0,1193,3783,1.535,3.39,9.706,4.194,1.014,0.786,7.551,-14.212,19.613,-3.709,0.451,1.512,angry
2.53,3979,2754,3888,3583,16,0,0,0,0,0,0,0,0,0,1656,3875,3.232,6.577,10.266,4.994,1.077,0.605,4.729,-7.621,16.345,-3.482,-0.009,0.513,angry
2.54,3840,2634,3681,3159,0,0,0,0,0,0,0,0,0,0,2547,3903,-0.397,2.818,14.315,6.16,-0.066,0.047,-14.461,-3,19.613,-2.655,3.973,2.462,angry
2.55,2799,1391,2749,1379,0,0,0,0,0,147,0,0,7,0,2944,3940,-3.512,7.851,19.613,8.731,-2.696,-1.824,-2.559,-6.139,19.613,-0.718,1.121,0.544,angry
2.56,677,14,145,0,0,0,0,0,0,540,0,0,101,0,3080,3956,-1.48,16.621,19.613,8.731,-2.733,-2.874,4.439,-2.167,8.052,-0.197,1.069,0.454,angry
2.57,0,0,0,0,0,0,0,0,0,1005,0,1162,75,0,3286,3963,5.102,9.529,13.941,7.021,-1.752,-3.38,-0.23,-2.023,10.293,-0.034,0.62,0.387,angry
2.58,0,0,0,0,0,0,0,0,1,1568,1384,1991,411,37,3254,3839,0.393,19.613,19.613,1.797,-0.258,-3.39,1.276,-2.863,10.161,-0.234,0.347,0.364,angry
2.59,0,0,0,0,0,0,0,0,41,1820,2439,2805,1127,12,3369,3959,7.853,2.435,14.921,-0.247,-0.532,-2.322,0.85,-3.484,10.343,-0.073,0.188,0.147,angry
2.6,0,0,0,0,0,0,0,0,75,1933,2510,3052,1353,22,3452,3935,5.538,-1.101,9.972,-1.367,-0.138,-1.838,0.567,-2.715,9.802,-0.018,0.095,0.061,angry
2.61,0,0,0,0,0,0,0,0,201,2164,2669,3255,1689,41,3478,3833,5.44,-0.984,7.547,-2.218,-0.725,-0.913,0.965,-2.844,9.811,-0.011,0.114,0.048,angry
2.62,0,0,0,0,0,0,0,0,311,2285,2802,3390,1869,47,3388,3605,6.031,-0.5,6.934,-2.735,-0.9,0.037,0.903,-2.816,9.859,-0.004,0.103,0.033,angry
2.63,0,0,0,0,0,0,0,0,365,2382,2843,3493,1915,59,3219,3083,4.494,2.428,9.029,-3.513,-0.681,0.721,0.816,-2.65,9.716,-0.015,0.08,0.037,angry
2.64,0,0,0,0,0,0,0,0,425,2467,2971,3519,1931,47,3066,2872,2.27,4.017,7.64,-4.434,-0.717,0.984,0.838,-2.638,9.649,-0.046,0.07,0.039,angry
2.65,0,0,0,0,0,0,0,0,609,2635,2981,3575,1984,50,2637,2674,0.757,5.859,7.738,-4.801,-1.083,0.989,0.79,-2.796,9.828,-0.084,0.065,0.041,angry
2.66,0,0,0,0,0,0,0,0,681,2735,3078,3623,2069,48,2407,2409,0.603,7.082,7.302,-4.883,-1.514,1.029,0.8,-2.765,9.831,-0.086,0.075,0.031,angry
2.67,0,0,0,0,0,0,0,0,922,2793,3124,3675,2141,0,2405,2269,2.081,9.184,9.495,-4.69,-1.726,1.265,0.927,-2.816,9.759,-0.082,0.085,0.035,angry
2.68,0,0,0,0,0,0,0,0,1080,2780,3168,3695,2193,51,2344,1975,3.242,10.087,11.746,-4.822,-1.63,1.565,0.871,-2.847,9.335,-0.097,0.1,0.029,angry
2.69,0,0,0,0,0,0,0,0,1240,2927,3201,3773,2323,46,2280,1779,2.933,10.424,13.194,-4.947,-1.317,2.087,0.783,-2.969,9.759,-0.111,0.125,0.014,angry
2.7,0,0,0,0,0,0,0,0,1463,2983,3227,3853,2422,46,2103,1261,1.645,12.117,15.984,-4.821,-1.353,2.246,0.646,-3.103,9.601,-0.086,0.129,0.033,angry
2.71,0,0,0,0,0,0,0,0,1668,3005,3232,3899,2429,49,1847,925,5.483,18.261,19.585,-4.604,-1.341,2.202,0.388,-2.734,9.797,-0.102,0.106,0.025,angry
2.72,0,0,0,0,0,0,0,0,1599,3103,3265,3975,2409,10,1589,7,3.1,19.613,13.848,-4.152,-1.059,2.713,0.335,-2.713,9.744,-0.067,0.11,0.031,angry
2.73,0,0,0,0,0,0,0,0,2085,3239,3296,4040,2478,4,995,2,-1.288,19.613,2.512,-2.995,-0.916,3.287,0.766,-4.058,9.407,-0.073,0.122,0.09,angry
2.74,0,0,0,0,0,0,0,0,2276,3293,3462,4095,2343,3,231,0,-10.108,19.613,-4.633,-2.018,-1.061,2.815,0.871,-2.935,9.802,0.029,0.064,0.1,angry
2.75,0,0,0,0,0,0,0,0,2355,3341,3332,4088,2173,5,152,8,-15.505,19.613,-12.074,-1.11,-1.846,2.143,0.338,-2.658,10.027,-0.205,0.054,0.029,angry
2.76,0,0,0,0,0,0,0,0,2597,3367,3217,4079,1835,0,0,0,1.477,19.613,-19.613,3.693,0.548,1.579,0.433,-2.734,9.979,-0.668,0.228,-0.197,angry
2.77,0,0,0,0,0,0,0,1593,2763,3391,3357,4095,1337,0,0,0,4.381,0.886,7.013,3.26,5.567,-0.588,0.486,-3.065,9.608,-0.49,0.122,-0.167,angry
2.78,0,0,0,0,0,0,443,3130,2907,3404,3378,4062,589,7,0,0,-19.613,-12.842,19.613,4.118,1.768,-0.223,0.946,-2.761,9.708,-0.542,0.161,-0.23,angry
2.79,0,0,0,0,0,0,272,3581,3166,3305,3406,4087,294,0,0,19,-12.835,11.631,6.364,5.471,1.374,-1.833,1.458,-1.999,10.238,-1.468,-0.313,-0.325,angry
2.8,0,0,0,0,0,0,1971,3712,3320,2648,3416,4049,173,7,0,0,2.643,8.892,14.097,3.594,0.229,-0.804,2.148,-0.433,11.054,-3.754,0.349,-0.614,angry
2.81,1299,1068,73,0,1051,0,2895,3685,3227,2233,3493,3939,240,0,0,0,-3.031,-1.123,9.984,0.541,1.805,-0.702,2.849,-1.58,13.12,-5.456,0.692,-0.358,angry
2.82,1653,1942,2416,1394,1535,0,3055,3728,1879,599,3462,3276,0,0,0,0,-0.79,5.55,12.28,0.414,0.399,-0.234,-0.148,-3.024,16.623,-8.731,-0.664,0.216,angry
2.83,1895,2075,2783,2243,2208,0,3217,3806,743,115,396,1267,0,0,0,0,0.244,3.752,9.491,0.039,0.227,-0.12,-3.589,-7.515,19.613,-8.731,-4.002,3.387,angry
2.84,2129,2289,2986,2410,2545,148,3323,3856,73,0,0,22,0,0,0,0,0.838,4.796,10.307,-0.089,0.188,-0.094,0.201,-19.613,19.613,-8.731,-3.852,3.244,angry
2.85,2288,2390,3121,2543,2779,332,3405,3870,0,0,0,0,0,0,0,0,0.567,3.098,8.461,0.156,0.035,-0.008,-1.925,-19.613,19.613,0.27,-0.064,4.43,angry
2.86,2421,2514,3237,2656,2875,122,3419,3844,0,0,0,0,0,0,0,0,0.309,3.776,9.17,0.058,0.041,0.001,9.543,-0.989,9.955,1.748,-0.942,2.945,angry
2.87,2512,2627,3325,2755,2928,0,3358,3769,0,0,0,0,0,0,0,0,0.536,3.831,9.383,0.054,0.058,-0.011,9.349,2.088,6.859,2.53,-0.422,2.555,angry
2.88,2543,2715,3363,2790,2898,0,3280,3701,0,0,0,0,0,0,0,0,0.687,3.838,9.232,0.047,0.068,-0.039,7.35,1.403,4.911,2.671,-0.104,1.638,angry
2.89,2542,2751,3402,2860,2785,0,3165,3619,0,0,0,0,0,0,0,0,0.579,3.788,9.254,0.049,0.08,-0.056,6.979,1.487,5.938,2.979,-0.513,0.656,angry
2.9,2559,2789,3435,2866,2699,0,3025,3563,0,19,0,0,0,0,0,0,0.302,3.797,9.189,0.083,0.04,-0.046,6.419,1.259,5.188,3.236,-0.913,-0.249,angry
2.91,2628,2813,3488,2913,2594,0,2763,3438,0,0,0,0,0,0,0,0,0.271,3.735,9.213,0.073,0.041,-0.036,3.491,0.215,7.049,3.847,-1.033,-1.51,angry
2.92,2640,2856,3506,2951,2593,0,2621,3351,0,0,0,0,0,0,0,0,0.417,3.898,9.23,0.075,0.04,-0.035,1.652,-1.178,9.088,4.312,-1.005,-1.745,angry
2.93,2690,2864,3555,3006,2637,0,2385,3210,0,5,0,0,0,0,0,0,0.369,3.852,9.23,0.07,0.058,-0.053,-1.844,-2.152,9.807,5.209,-0.967,-1.545,angry
2.94,2813,2853,3620,3066,2667,0,2320,3097,0,0,0,0,0,0,0,0,0.294,3.943,9.16,0.079,0.054,-0.042,-3.237,-2.586,10.044,5.401,-1.116,-1.178,angry
2.95,2951,2842,3664,3142,2714,0,2225,2928,0,0,0,0,40,0,0,0,0.299,3.869,9.199,0.067,0.084,-0.048,-3.85,-5.052,13.42,5.66,-1.803,-0.344,angry
2.96,3056,2911,3722,3238,2750,0,2127,2670,0,13,104,0,0,0,0,0,0.314,3.85,9.165,0.06,0.106,-0.022,-2.71,-7.544,16.826,5.834,-2.245,0.175,angry
2.97,3157,2956,3773,3356,2806,0,1883,2101,0,10,0,0,0,0,0,0,0.275,4.027,9.306,0.063,0.133,-0.015,-2.313,-8.861,19.386,5.755,-2.574,0.227,angry
2.98,3237,3041,3815,3455,2799,0,1520,1247,0,0,0,0,0,0,0,0,0.376,3.922,9.225,0.054,0.172,-0.005,-1.997,-18.378,19.613,5.594,-2.74,-0.073,angry
2.99,3344,3155,3778,3544,2764,0,991,0,0,0,0,0,0,0,0,0,0.323,3.668,9.287,0.109,0.174,0.013,-7.879,-19.613,13.671,4,-2.243,0.43,angry
3,3402,3192,3889,3611,2640,0,336,0,0,0,0,0,0,0,0,0,0.302,3.948,9.579,0.256,0.232,0.09,-10.427,-19.613,5.14,2.637,-2.812,0.437,angry
3.01,3456,3254,3926,3656,2391,0,0,0,10,0,0,13,0,0,0,0,0.515,5.399,10.805,0.487,0.264,0.231,-9.867,-19.613,-2.974,1.57,-2.634,-0.188,angry
3.02,3551,3287,3952,3712,2162,0,0,0,0,0,0,0,0,0,0,0,0.357,3.311,9.529,0.659,0.375,0.196,-10.288,-19.613,-6.208,0.576,-1.245,0.054,angry
3.03,3648,3263,3968,3754,1590,0,0,0,0,0,0,0,0,0,0,9,0.304,3.16,9.208,0.92,0.323,0.342,-4.719,-19.613,-16.652,-1.404,1.265,-0.249,angry
3.04,3728,3238,3984,3779,1232,0,0,0,0,0,0,0,0,0,0,37,0.34,2.452,10.156,1.161,0.331,0.438,2.84,4.554,-3.462,-0.743,4.881,0.868,angry
3.05,3815,3178,3997,3796,1089,0,0,0,53,0,0,0,0,0,167,2445,0.144,3.682,9.452,1.476,0.31,0.603,-9.613,19.613,19.613,-2.68,2.757,0.614,angry
3.06,3909,2999,4003,3830,464,0,0,0,7,0,0,0,0,0,0,3293,0.757,2.435,9.596,2.305,0.465,0.84,-19.613,6.728,-4.954,-5.981,-2.494,-0.882,angry
3.07,3950,2855,3986,3775,364,0,0,0,0,0,0,13,0,0,295,3464,1.81,4.269,8.787,3.084,0.46,0.775,-4.147,-16.465,12.218,-4.92,0.03,2.532,angry
3.08,3949,2531,3751,3520,211,0,0,0,0,39,0,0,0,5,2335,3801,4.278,5.09,10.171,4.481,0.988,0.467,0.759,-15.246,12.881,-0.774,3.762,0.544,angry
3.09,3709,2133,3395,2897,0,0,0,0,0,1045,76,792,0,0,2567,3839,-1.985,4.628,18.735,6.31,0.539,-0.033,1.64,-2.181,8.808,-0.574,1.07,0.543,angry
3.1,2273,390,2276,1132,0,0,0,0,0,1334,133,2183,47,1,2654,3821,-1.164,11.193,19.613,8.447,-2.295,-2.722,0.812,-4.3,8.964,-0.311,0.69,0.25,angry
3.11,399,0,70,0,0,0,0,0,41,1746,1991,2928,41,0,2911,3853,1.748,18.9,19.613,7.275,-1.309,-2.571,0.632,-2.746,10.029,0.019,0.36,0.13,angry
3.12,0,0,0,0,0,0,0,0,157,2139,2490,3161,86,18,3096,3879,4.156,10.937,19.613,0.9,1.465,-1.241,0.922,-3.168,9.735,-0.042,0.075,-0.002,angry
3.13,0,0,0,0,0,0,0,0,93,2229,2510,3287,117,0,3093,3751,7.98,2.703,12.44,-0.804,1.643,-0.518,0.553,-2.397,9.098,-0.028,-0.035,0.016,angry
3.14,0,0,0,0,0,0,0,0,222,2347,2574,3355,175,33,3134,3821,5.547,-1.027,10.625,-1.529,1.725,-0.119,1.08,-2.823,9.754,-0.041,0.015,0.027,angry
3.15,0,0,0,0,0,0,0,0,307,2651,2782,3427,360,41,3263,3744,4.75,-2.148,6.031,-2.353,1.632,0.627,1.073,-2.895,9.938,-0.007,0.158,0.022,angry
3.16,0,0,0,0,0,0,0,0,439,2661,2856,3499,381,50,3297,3709,3.326,-2.375,4.815,-2.503,1.481,1.005,0.778,-2.931,9.833,0.011,0.107,0.018,angry
3.17,0,0,0,0,0,0,0,0,529,2707,2886,3543,473,46,3256,3670,2.576,-1.298,4.65,-2.687,1.325,1.22,0.836,-2.772,9.677,0.011,0.058,0.021,angry
3.18,0,0,0,0,0,0,0,0,647,2778,2771,3590,529,51,3192,3579,1.616,0.146,6.613,-2.941,1.062,1.344,0.879,-2.775,9.689,-0.002,0.039,0.031,angry
3.19,0,0,0,0,0,0,0,0,711,2770,2961,3609,621,103,3119,3485,2.203,1.915,7.894,-3.415,0.896,1.416,0.888,-2.746,9.73,-0.037,0.035,0.036,angry
3.2,0,0,0,0,0,0,0,0,815,2861,2968,3647,659,47,3035,3403,3.065,3.484,8.365,-3.868,0.982,1.414,0.936,-2.904,9.668,-0.026,0.041,0.043,angry
3.21,0,0,0,0,0,0,0,0,931,3015,2973,3671,865,45,2935,3317,3.527,4.951,8.2,-4.251,1.128,1.46,0.953,-2.849,9.627,-0.03,0.033,0.045,angry
3.22,0,0,0,0,0,0,0,0,1007,2979,2979,3672,984,47,2813,3273,4.348,6.407,8.126,-4.507,1.227,1.636,0.915,-2.942,9.807,-0.015,0.047,0.039,angry
3.23,0,0,0,0,0,0,0,0,1061,3013,2984,3683,1172,47,2727,3236,5.71,7.587,7.25,-4.572,1.324,1.952,0.931,-2.904,9.663,-0.017,0.041,0.04,angry
3.24,0,0,0,0,0,0,0,0,1091,3080,3002,3690,1311,47,2605,3179,10.218,9.335,5.906,-4.346,1.814,2.964,0.96,-2.823,9.589,-0.036,0.033,0.048,angry
3.25,0,0,0,0,0,0,0,0,1121,3089,3020,3694,1405,49,2507,3160,17.818,14.109,7.298,-3.837,3.022,4.906,0.871,-2.952,9.639,-0.046,0.031,0.05,angry
3.26,0,0,0,0,0,0,0,0,1399,3175,3081,3682,1419,47,2483,3093,19.613,19.613,7.693,-4.058,4.764,7.936,0.721,-2.873,9.728,-0.045,0.034,0.056,angry
3.27,0,0,0,0,0,0,0,0,1357,3196,3068,3661,1533,78,2553,3149,19.613,19.613,-4.029,-3.029,5.645,8.731,0.826,-2.926,9.656,-0.036,0.022,0.062,angry
3.28,0,0,0,0,0,0,0,0,1402,3239,3063,3623,1605,47,2579,3115,12.34,19.613,-3.177,-1.579,5.936,8.731,0.843,-2.998,9.594,-0.03,0.012,0.064,angry
3.29,0,0,0,0,0,0,0,0,1546,3262,3063,3562,1678,45,2697,3112,-1.063,14.195,-1.166,-0.783,5.277,8.731,0.876,-2.995,9.9,0.023,0.027,0.067,angry
3.3,0,0,0,0,0,0,0,0,1481,3205,2997,3468,1705,85,2715,2988,-4.604,7.056,5.511,-0.205,0.89,6.671,0.785,-3.06,9.697,0.094,0.002,0.06,angry
3.31,577,390,2018,651,50,0,0,0,1387,3165,2943,3371,1461,47,2718,3044,-3.395,19.613,5.753,-1.318,-1.008,1.019,0.699,-3.182,9.776,0.161,-0.006,0.054,angry
3.32,1254,1868,2803,1380,901,0,0,0,787,2879,2723,2988,1351,47,2621,3141,11.691,17.121,3.043,-1.023,-0.757,-0.553,0.441,-2.626,9.491,0.19,-0.012,0.068,angry
3.33,1596,2308,3108,1866,1663,0,826,1475,532,2483,2684,2575,555,49,2383,3453,-0.663,0.223,9.766,-0.19,-0.146,-0.573,-2.037,-1.585,9.424,-0.233,-0.127,0.569,angry
3.34,1904,2286,3171,2130,2188,94,2033,3056,325,2185,2797,2055,187,41,2031,3256,-0.089,2.543,9.823,-0.15,0.2,-0.132,-10.867,3.464,12.462,-0.218,-0.399,1.243,angry
3.35,1964,2189,3095,2230,2416,7,2525,3386,165,910,248,739,45,9,749,2969,0.225,4.372,9.242,-0.106,0.038,-0.064,-19.613,-4.357,10.93,0.495,-1.294,5.265,angry
3.36,1732,2261,3027,2055,2655,18,3010,3600,0,0,0,0,0,0,0,2315,1.097,3.857,9.536,-0.199,0.027,-0.068,-11.056,-13.254,9.495,0.978,-2.402,8.731,angry
3.37,1535,2321,2992,1999,2832,0,3231,3721,3,0,0,0,0,0,0,1559,0.654,3.73,9.409,-0.109,0.033,-0.034,-0.539,-18.012,9.661,1.281,-2.235,8.731,angry
3.38,1456,2338,2992,1819,2911,0,3310,3802,0,0,0,0,0,0,0,103,1.046,3.505,9.325,-0.054,0.052,0.024,-7.032,-19.613,16.278,2.298,-2.416,8.731,angry
3.39,1471,2288,2952,1806,2945,0,3327,3846,0,0,0,37,0,0,0,0,0.148,3.565,9.436,-0.043,0.063,0.01,10.93,-15.119,2.354,1.538,-2.475,8.731,angry
3.4,1501,2235,2966,1842,2947,0,3329,3866,21,0,0,0,0,0,0,0,0.338,3.874,9.481,0.05,0.068,-0.043,11.284,-13.479,6.136,1.185,-1.123,8.245,angry
3.41,1499,2200,2990,1894,2960,0,3312,3869,0,0,0,0,0,0,0,0,0.055,3.34,9.151,0.073,0.04,-0.005,6.347,-6.883,4.568,0.366,-0.769,4.802,angry
3.42,1503,2267,3008,1904,2957,0,3313,3861,0,0,0,0,0,0,0,0,0.297,3.45,9.278,0.066,0.013,-0.011,4.848,-5.737,7.216,0.01,-0.553,3.661,angry
3.43,1572,2306,3071,1998,2958,0,3325,3863,0,0,0,0,0,7,0,0,0.436,3.615,9.246,0.091,0.013,-0.021,2.564,-4.472,9.05,-0.1,-0.451,2.842,angry
3.44,1573,2378,3168,2173,2925,0,3313,3857,0,0,0,0,0,0,0,0,0.369,3.529,9.316,0.107,0.047,-0.03,-2.188,-1.887,8.416,-0.352,-0.296,2.056,angry
3.45,1712,2437,3235,2326,2994,0,3351,3856,0,0,0,0,0,0,0,17,0.335,3.613,9.359,0.088,0.053,-0.023,-3.515,-1.413,9.285,-0.481,-0.375,2.131,angry
3.46,1819,2491,3310,2485,3025,0,3366,3861,0,0,0,0,0,0,40,0,0.242,3.68,9.371,0.056,0.067,-0.014,-1.681,-1.882,11.602,-0.193,-0.264,2.747,angry
3.47,1908,2543,3365,2583,3095,77,3381,3845,0,0,0,0,0,0,0,0,0.352,3.8,9.227,0.068,0.069,-0.025,1.29,-1.267,9.634,0.006,-0.083,2.883,angry
3.48,2034,2608,3424,2659,3136,193,3385,3826,16,0,0,0,0,0,0,0,0.204,3.61,9.345,0.084,0.064,-0.023,2.883,-1.197,9.646,0.026,-0.12,2.655,angry
3.49,2159,2686,3488,2769,3152,333,3358,3791,0,0,0,0,0,0,0,0,0.235,3.558,9.357,0.106,0.061,-0.013,4.968,-0.424,10.104,0.172,-0.054,1.747,angry
3.5,2259,2755,3537,2871,3131,144,3331,3716,0,2,0,0,0,0,0,0,0.192,3.62,9.301,0.102,0.065,-0.019,3.385,-0.218,10.297,0.466,0.013,1.02,angry
3.51,2383,2799,3600,2992,3126,0,3280,3579,0,0,0,0,0,0,0,0,0.206,3.62,9.294,0.107,0.059,-0.021,1.949,-0.187,9.802,0.555,-0.05,0.948,angry
3.52,2472,2833,3625,2993,3126,0,3256,3575,0,0,0,0,0,0,0,0,0.204,3.704,9.189,0.117,0.049,-0.009,0.553,-0.239,9.811,0.646,-0.191,1.038,angry
3.53,2559,2878,3650,3071,3120,0,3219,3513,0,0,0,0,0,0,0,0,0.117,3.639,9.249,0.103,0.054,-0.014,-0.694,-0.395,9.651,0.724,-0.369,1.262,angry
3.54,2681,2917,3687,3153,3120,0,3139,3297,0,0,0,0,0,0,0,0,0.22,3.644,9.256,0.117,0.051,-0.021,-1.322,-1.204,10.807,1.009,-0.698,1.877,angry
3.55,2766,2966,3725,3225,3101,0,3050,2869,0,0,0,0,0,0,0,0,0.172,3.795,9.268,0.11,0.066,-0.017,0.199,-0.596,9.455,1.344,-0.523,2.277,angry
3.56,2851,3010,3753,3261,3101,0,2993,2694,0,0,135,0,0,41,0,0,0.163,3.673,9.222,0.115,0.056,-0.004,0.019,-1.425,10.137,1.443,-0.613,2.382,angry
3.57,2931,3054,3779,3346,3069,0,2864,2382,0,0,0,35,0,0,0,0,-0.01,3.642,9.33,0.109,0.065,0.014,0.103,-2.971,10.865,1.566,-0.772,2.429,angry
3.58,3027,3061,3822,3414,3067,0,2638,1739,0,0,0,0,0,0,0,0,0.065,3.551,9.318,0.144,0.107,0.05,1.288,-3.572,6.651,1.446,-0.518,2.447,angry
3.59,3087,3062,3807,3455,3068,0,2473,984,0,3,0,0,0,0,0,0,0.225,3.627,9.45,0.174,0.119,0.065,2.258,-4.477,8.926,1.212,-0.577,2.463,angry
3.6,3137,3055,3860,3495,3063,0,2235,86,0,0,0,71,3,0,0,0,0.057,3.634,9.531,0.212,0.167,0.124,3.29,-5.974,9.919,1.237,-0.801,2.264,angry
3.61,3189,3025,3885,3527,3034,0,1790,0,0,0,0,0,0,0,0,0,0.091,3.656,9.342,0.242,0.192,0.176,5.262,-6.479,6.306,1.143,-0.653,1.966,angry
3.62,3244,3079,3906,3571,2974,0,1211,0,0,0,0,0,0,0,0,0,0.072,3.737,9.246,0.277,0.219,0.226,4.884,-6.833,3.809,0.807,-0.362,1.767,angry
3.63,3291,3171,3926,3606,2801,0,511,0,0,0,0,0,0,0,35,0,0.488,3.491,9.522,0.398,0.233,0.291,4.061,-8.076,5.349,0.46,-0.575,1.451,angry
3.64,3337,3197,3947,3628,2466,0,149,0,0,3,0,0,0,0,0,0,0.16,3.268,9.708,0.589,0.322,0.351,8.976,-3.108,9.618,0.147,0.58,0.839,angry
3.65,3347,3226,3970,3648,2230,0,0,0,0,0,33,0,5,0,0,749,0.414,2.667,9.093,0.759,0.265,0.388,2.863,2.842,12.89,-0.217,-0.145,-0.222,angry
3.66,3398,3276,3967,3617,1921,0,0,0,68,0,0,0,0,0,0,2569,0.158,3.663,9.218,0.993,0.313,0.393,3.026,5.775,4.195,-1.089,-0.445,-0.173,angry
3.67,3449,3232,3971,3565,1585,0,0,0,0,10,0,0,0,0,0,3083,0.261,3.414,9.538,1.321,0.358,0.449,2.162,1.563,9.476,-1.77,-0.106,0.308,angry
3.68,3487,3181,3983,3514,1478,0,0,0,0,0,0,0,0,0,0,3340,0.867,3.601,9.586,1.688,0.403,0.482,-0.048,-5.842,16.216,-1.65,-0.551,-0.06,angry
3.69,3543,3088,3957,3536,1061,0,0,0,0,0,0,0,0,0,7,3509,0.792,3.543,9.383,2.051,0.597,0.577,-0.201,-2.962,12.89,-1.086,-0.23,0.031,angry
3.7,3578,2905,3973,3567,633,0,0,0,0,0,0,0,0,0,0,3622,2.107,3.926,8.375,2.588,1.04,0.763,1.65,-0.189,9.51,-1.094,-0.3,0.062,angry
3.71,3600,2762,3763,3617,349,0,0,0,0,0,97,0,0,0,0,3708,3.282,5.746,9.816,2.781,1.229,0.748,0.445,-0.18,9.555,-1.251,-0.458,0.002,angry
3.72,3580,2464,3697,3655,0,0,0,0,47,0,0,0,0,0,309,3744,4.784,7.209,10.824,2.972,1.723,0.603,-0.582,-0.18,9.354,-1.414,-0.598,0.11,angry
3.73,3554,1949,3538,3659,0,0,0,0,0,11,0,0,0,0,1006,3811,4.7,6.512,11.782,2.79,2.817,0.299,1.003,-1.585,9.572,-1.559,-0.703,0.198,angry
3.74,3446,1242,3202,3535,0,0,0,0,0,0,0,0,4,0,1672,3879,4.985,5.325,11.856,3.446,3.618,-0.335,1.259,-2.042,9.922,-1.395,-0.601,0.309,angry
3.75,3287,671,2707,3152,0,0,0,0,0,0,0,0,0,0,2019,3947,3.017,5.962,13.285,4.152,4.179,-2.004,3.175,-1.583,7.922,-1.265,-0.545,0.359,angry
3.76,2926,67,1959,2362,0,0,0,0,0,0,0,0,0,0,2428,4009,2.49,11.351,17.408,5.111,3.435,-4.954,4.204,-3.675,10.683,-1.294,-0.452,0.365,angry
3.77,1807,0,393,528,0,0,0,0,0,5,0,0,5,0,2671,4060,10.065,12.198,13.441,3.668,4.119,-6.129,1.235,-3.364,11.753,-1.116,-0.451,0.322,angry
3.78,0,0,0,0,0,0,0,0,28,0,0,0,7,0,2925,4095,14.32,15.886,8.327,1.718,5.287,-4.401,0.986,-8.035,11.495,-0.172,0.334,0.176,angry
3.79,0,0,0,0,0,0,0,0,0,0,135,25,47,0,3083,4095,15.558,19.613,19.613,0.186,3.212,1.62,-0.941,-1.528,11.55,0.059,0.564,0.285,angry
3.8,0,0,0,0,0,0,0,0,0,0,0,0,0,87,3247,4095,18.15,6.991,12.931,-1.857,5.076,2.097,1.688,-2.801,10.724,-0.084,0.378,0.221,angry
3.81,0,0,0,0,0,0,0,0,0,0,0,0,70,0,3352,4095,8.796,7.666,6.424,-1.809,5.336,2.686,1.171,-2.612,10.635,-0.11,0.279,0.191,angry
3.82,0,0,0,0,0,0,0,0,0,0,0,70,105,0,3256,4095,0.747,5.164,6.898,-1.713,4.128,2.925,0.864,-2.772,10.757,-0.081,0.126,0.11,angry
3.83,0,0,0,0,0,0,0,0,0,0,0,0,37,0,3447,4095,0.934,1.544,4.712,-1.27,2.625,2.896,1.693,-2.54,10.151,-0.043,0.038,0.079,angry
3.84,0,0,0,0,0,0,0,0,0,0,0,0,85,0,3467,4095,1.425,-0.091,4.111,-0.647,1.549,2.71,1.362,-1.992,9.467,-0.053,0.046,0.09,angry
3.85,0,0,0,0,0,0,0,0,0,1,0,0,41,0,3464,4095,1.47,2.119,10.247,-0.499,0.773,2.516,2.191,-1.982,8.741,-0.077,0.174,0.153,angry
3.86,0,0,0,0,0,0,0,0,0,21,0,0,97,0,3462,4095,2.789,3.622,12.646,-1.254,0.395,2.256,1.817,-1.856,8.978,-0.114,0.36,0.229,angry
3.87,0,0,0,0,0,0,0,0,0,11,0,0,169,0,3535,4068,3.242,2.684,10.254,-2.039,0.536,2.028,1.688,-2.128,9.213,-0.13,0.502,0.286,angry
3.88,0,0,0,0,0,0,0,0,0,41,0,0,327,0,3413,4044,2.083,2.152,9.074,-2.542,0.517,1.836,1.477,-2.298,9.38,-0.148,0.638,0.325,angry
3.89,0,0,0,0,0,0,0,0,0,245,0,0,607,0,3356,3999,1.166,2.428,8.875,-2.962,0.114,1.634,1.326,-2.545,9.867,-0.209,0.703,0.321,angry
3.9,0,0,0,0,0,0,0,0,0,723,0,0,763,19,3355,3944,1.884,2.399,8.171,-3.3,-0.206,1.432,1.07,-2.715,10.187,-0.23,0.645,0.292,angry
3.91,0,0,0,0,0,0,0,0,0,979,40,0,907,0,3355,3851,2.354,2.868,8.238,-3.507,-0.493,1.326,0.792,-2.82,10.693,-0.261,0.449,0.262,angry
3.92,0,0,0,0,0,0,0,0,0,1291,1704,0,1161,0,3323,3644,2.895,4.257,10.077,-3.717,-0.936,1.387,0.915,-2.078,9.335,-0.29,0.383,0.273,angry
3.93,0,0,0,0,0,0,0,0,75,1367,2157,203,1499,11,3263,3445,4.448,5.076,10.276,-4.081,-1.096,1.635,0.893,-2.72,10.19,-0.267,0.333,0.27,angry
3.94,0,0,0,0,0,0,0,0,154,1764,2720,2072,1966,35,3129,3357,3.153,5.104,9.428,-4.291,-1.218,2.166,0.848,-3.184,10.07,-0.257,0.188,0.166,angry
3.95,0,0,0,0,0,0,0,0,185,1897,2797,2248,2105,40,3026,3290,1.762,6.675,11.765,-4.344,-1.711,2.531,0.469,-3.201,10.333,-0.249,0.145,0.163,angry
3.96,0,0,0,0,0,0,0,0,349,2211,2853,2979,2457,47,2909,3089,-0.005,6.637,12.093,-4.363,-1.682,2.512,0.797,-2.823,9.84,-0.152,0.157,0.095,angry
3.97,0,0,0,0,0,0,0,0,661,2373,2981,3252,2669,45,2743,2825,-1.465,9.651,18.064,-4.433,-2.142,2.249,0.529,-3.057,9.728,-0.103,0.129,0.094,angry
3.98,0,0,0,0,0,0,0,0,891,2491,3068,3326,2731,47,2583,2671,0.302,11.049,16.678,-4.777,-2.156,2.074,0.611,-2.95,9.797,-0.088,0.123,0.1,angry
3.99,0,0,0,0,0,0,0,0,1373,2630,3178,3504,2765,47,2189,2071,-2.344,15.627,14.394,-4.268,-2.057,2.271,0.551,-2.739,9.802,-0.099,0.14,0.09,angry
4,0,0,0,0,0,0,0,0,1695,2807,3227,3644,2619,45,1587,296,-2.411,19.613,10.24,-3.64,-1.345,2.32,0.496,-2.349,9.766,-0.077,0.111,0.088,angry
4.01,0,0,0,0,0,0,0,0,1811,2893,3273,3725,2557,7,1596,9,-3.91,19.613,-1.307,-1.942,-0.175,2.496,0.493,-2.942,9.462,-0.064,0.081,0.078,angry
4.02,0,0,0,0,0,0,0,0,2279,3098,3375,3895,2553,1,487,0,-11.011,19.613,-4.391,-0.4,-0.6,1.561,0.797,-3.323,9.354,0.112,-0.045,0.15,angry
4.03,0,0,0,0,0,0,0,0,2745,3165,3368,4007,1798,3,407,0,-8.423,19.613,-8.305,1.329,-0.632,0.69,1.039,-3.412,9.565,-0.573,0.152,-0.121,angry
4.04,0,0,0,0,0,0,0,1023,2955,3239,3380,4028,1145,3,363,0,3.869,9.206,0.666,2.255,2.939,-0.075,0.606,-2.84,9.546,-0.565,0.083,-0.175,angry
4.05,0,0,0,0,0,0,0,2651,3157,3209,3388,4054,809,3,267,0,-0.297,-13.374,19.613,2.057,2.676,0.435,0.651,-2.263,9.759,-0.772,-0.081,-0.213,angry
4.06,0,0,0,0,0,0,0,3661,3310,3277,3391,4037,715,3,239,20,-9.457,13.01,12.847,5.604,-0.027,0.123,1.405,-2.105,9.658,-1.123,-0.324,-0.236,angry
4.07,0,0,0,0,0,0,907,3962,3475,3028,3391,3981,971,0,0,0,-7.312,8.157,19.235,2.789,0.274,-0.796,1.575,-0.46,10.791,-2.868,-0.723,-0.483,angry
4.08,279,0,0,0,0,0,1921,3970,3417,1640,3427,3819,702,0,0,0,6.522,7.259,10.075,2.815,-0.261,-0.715,0.706,0.979,12.905,-6.377,0.684,-0.402,angry
4.09,451,0,0,0,0,0,2910,4006,3068,445,3406,3115,248,0,0,0,0.946,7.659,13.551,2.014,0.088,-0.621,2.191,-2.119,19.613,-8.282,-0.181,1.014,angry
4.1,925,0,0,0,878,0,3229,4019,1461,43,0,267,0,0,0,0,4.175,7.022,9.263,0.116,1.415,-0.644,-1.523,-7.326,19.613,-8.731,-3.534,3.306,angry
4.11,1279,0,0,0,926,0,3286,4025,429,0,0,0,0,0,0,0,-2.411,3.903,12.11,0.433,1.352,-0.66,-1.437,-13.046,19.613,-8.731,-3.413,3.344,angry
4.12,1392,0,0,0,1110,0,3319,4033,0,0,0,0,0,0,0,0,1.578,4.073,11.7,0.235,1.224,-0.544,8.078,-3.148,19.613,-6.379,-2.469,3.793,angry
4.13,1493,37,0,0,1497,0,3367,4030,0,0,0,0,0,0,0,0,-1.08,2.495,9.749,0.138,0.985,-0.333,-0.158,-19.613,19.613,-0.972,0.403,4.767,angry
4.14,1559,240,0,0,1680,0,3377,4026,0,0,0,16,0,0,0,35,-0.12,4.089,10.932,0.275,0.641,-0.268,8.583,1.721,19.613,0.5,-0.604,3.47,angry
4.15,1631,451,143,0,1864,0,3389,4007,0,0,0,0,0,0,5,0,-0.285,3.34,9.663,0.269,0.467,-0.2,10.968,0.285,13.087,2.523,0.714,3.499,angry
4.16,1626,590,720,174,1926,0,3381,3984,63,0,0,0,0,0,0,0,0.735,4.47,10.228,0.246,0.307,-0.105,9.538,4.518,7.961,2.856,0.414,3.008,angry
4.17,1594,849,1392,595,1993,0,3376,3939,0,0,0,0,0,0,0,0,0.591,3.97,9.627,0.149,0.251,-0.063,8.607,3.045,4.551,2.924,0.161,2.055,angry
4.18,1613,1094,1840,907,2014,0,3373,3907,0,0,0,0,35,0,0,0,0.438,3.84,9.536,0.124,0.19,-0.051,8.909,2.744,4.118,2.826,-0.407,1.091,angry
4.19,1535,1249,2173,1203,2000,0,3344,3871,0,0,33,0,0,0,0,0,0.371,3.627,9.364,0.112,0.159,-0.058,9.282,1.501,4.98,2.805,-0.774,0.113,angry
4.2,1587,1387,2403,1512,2066,0,3314,3838,0,0,0,0,0,0,0,0,0.12,3.448,9.273,0.124,0.155,-0.08,8.832,0.199,6.759,3.119,-0.951,-0.768,angry
4.21,1621,1535,2636,1746,2209,0,3285,3802,0,0,0,0,0,0,0,0,0.053,3.615,9.342,0.143,0.141,-0.088,7.475,-1.425,8.71,3.556,-1.097,-1.522,angry
4.22,1695,1909,2933,2094,2369,0,3246,3727,0,0,0,64,0,0,0,0,0.096,3.61,9.39,0.139,0.089,-0.054,4.003,-2.971,8.6,4.354,-0.937,-2.432,angry
4.23,1746,2305,3166,2330,2487,0,3182,3637,0,0,0,0,0,0,0,10,0.278,3.74,9.392,0.132,0.048,-0.049,1.372,-3.948,9.536,4.598,-0.965,-2.474,angry
4.24,1936,2480,3320,2512,2629,0,3134,3539,0,0,0,69,0,0,0,0,0.266,3.658,9.115,0.106,0.048,-0.04,-1.245,-6.067,11.779,4.957,-1.53,-2.232,angry
4.25,2156,2625,3438,2677,2768,0,3035,3466,0,0,0,0,0,0,0,0,-0.014,3.656,9.378,0.099,0.054,-0.04,-0.836,-6.922,13.015,5.12,-1.567,-1.884,angry
4.26,2327,2741,3520,2831,2927,0,2926,3378,0,0,0,0,0,0,0,0,0.079,3.56,9.268,0.136,0.004,-0.022,-1.331,-6.438,13.843,5.046,-1.489,-1.698,angry
4.27,2559,2864,3601,2975,3057,0,2846,3258,0,13,0,0,11,0,0,0,0.16,3.718,9.273,0.116,0.01,-0.021,-1.844,-9.687,19.613,5.248,-1.774,-0.966,angry
4.28,2725,2940,3667,3082,3166,0,2782,3088,0,0,0,0,0,0,0,0,0.366,3.812,9.354,0.098,0.023,-0.034,2.102,-14.947,19.613,5.536,-2.002,-0.432,angry
4.29,2871,3019,3749,3205,3259,0,2669,2631,0,5,0,0,19,0,0,0,-0.005,3.613,9.239,0.116,0.066,-0.048,4.288,-17.576,17.629,5.209,-2.011,-0.371,angry
4.3,3018,3119,3826,3312,3319,0,2342,1275,0,0,0,0,0,0,0,0,0.091,3.728,9.383,0.123,0.107,-0.037,5.301,-19.613,11.636,3.988,-2.624,-1.32,angry
4.31,3182,3267,3952,3419,3174,0,1798,0,0,0,0,0,0,0,0,0,-0.208,3.033,9.237,0.296,0.028,0.033,-0.134,-19.613,1.231,1.922,-1.53,-3.478,angry
4.32,3269,3363,3918,3487,3023,0,1178,0,88,0,0,0,16,0,0,0,0.227,3.486,9.187,0.288,0.202,0.036,-11.523,-19.613,-3.96,1.073,-0.496,-3.179,angry
4.33,3456,3516,3995,3583,2583,0,0,0,0,0,63,0,0,0,0,0,0.074,3.45,9.258,0.677,0.355,0.143,-16.709,-19.613,-9.632,-0.222,-0.626,-2.124,angry
4.34,3556,3575,4006,3637,2246,0,0,0,0,0,0,0,45,0,0,55,0.333,3.893,8.808,0.952,0.395,0.279,-11.392,-19.613,-7.233,-1.682,-0.529,-0.92,angry
4.35,3721,3623,4028,3690,1259,0,0,0,0,0,0,0,0,0,0,0,0.781,3.577,9.361,1.372,0.151,0.495,15.929,0.563,19.613,-2.001,2.545,-0.836,angry
4.36,3799,3549,4034,3696,1007,0,0,0,0,0,0,0,0,0,439,1077,0.788,2.538,9.225,1.782,0.158,0.678,-8.813,19.613,15.093,-3.16,0.558,-2.257,angry
4.37,3884,3049,4029,3653,598,0,0,0,0,0,0,0,0,73,0,3381,0.759,2.251,8.765,3.475,0.238,0.865,-15.076,-19.613,15.277,-5.061,1.486,2.297,angry
4.38,3885,2873,3975,3537,453,0,0,0,0,0,0,0,0,0,555,3799,2.325,4.365,11.392,4.373,0.496,0.804,-3.622,4.635,19.613,-3.676,0.996,1.572,angry
4.39,3870,2704,3890,3238,132,0,0,0,0,0,0,0,0,0,1527,3948,0.97,3.4,9.38,5.373,0.669,0.509,0.311,-4.434,13.118,-4.129,0.039,1.003,angry
4.4,3739,2407,3649,2479,0,0,0,0,0,0,0,0,0,0,2057,4005,-1.506,0.848,19.613,6.433,-1.119,-0.257,-3.065,-9.163,15.605,-3.797,-0.342,0.928,angry
4.41,2621,1045,2407,475,0,0,0,0,0,47,0,0,0,0,2719,4020,-4.884,11.952,19.613,8.731,-2.382,-2.146,-2.998,-9.735,19.613,0.585,2.688,0.238,angry
4.42,465,0,27,0,0,0,0,0,0,0,0,0,180,0,3155,4044,1.896,19.613,19.613,8.731,-2.461,-2.285,0.069,-5.291,17.93,-0.465,1.592,0.559,angry
4.43,0,0,0,0,0,0,0,0,0,89,0,0,123,0,3245,4056,11.894,5.605,19.613,4.234,-1.426,-3.62,2.243,-3.476,10.262,0.008,1.132,0.335,angry
4.44,0,0,0,0,0,0,0,0,0,370,0,0,229,0,3255,4067,5.643,10.183,19.613,1.502,-0.321,-2.446,-1.628,-1.317,12.438,-0.071,0.551,0.277,angry
4.45,0,0,0,0,0,0,0,0,0,647,0,229,216,0,3397,4073,9.136,0.297,16.132,0.563,-0.403,-2.215,1.53,-3.431,10.42,-0.066,0.323,0.214,angry
4.46,0,0,0,0,0,0,0,0,0,691,110,781,277,0,3619,3941,7.245,-1.963,15.016,-0.926,0.326,-1.875,0.369,-2.562,9.991,0.03,0.255,0.117,angry
4.47,0,0,0,0,0,0,0,0,2,949,284,1108,547,31,3563,4053,5.772,-0.45,11.03,-1.475,0.115,-1.271,0.69,-2.263,10.154,-0.06,0.14,0.091,angry
4.48,0,0,0,0,0,0,0,0,3,1065,1881,1378,821,3,3593,4013,5.353,-2.674,8.562,-2.135,-0.231,-0.624,1.051,-2.243,9.773,-0.064,0.077,0.092,angry
4.49,0,0,0,0,0,0,0,0,1,1242,2188,1695,1199,3,3605,3957,5.456,-2.088,6.586,-2.461,-0.241,-0.096,1.489,-2.428,9.682,-0.117,0.12,0.107,angry
4.5,0,0,0,0,0,0,0,0,1,1379,2441,2107,1388,2,3575,3876,4.456,-1.07,7.235,-2.783,-0.22,0.317,1.587,-2.406,9.596,-0.154,0.162,0.173,angry
4.51,0,0,0,0,0,0,0,0,9,1417,2495,2336,1481,20,3541,3852,3.383,1.295,9.457,-3.314,-0.185,0.633,1.053,-2.808,9.948,-0.184,0.177,0.196,angry
4.52,0,0,0,0,0,0,0,0,1,1528,2687,2549,1548,2,3493,3695,2.495,2.636,8.497,-4.072,-0.183,0.809,0.962,-2.808,9.855,-0.114,0.16,0.144,angry
4.53,0,0,0,0,0,0,0,0,11,1694,2505,2734,1733,6,3435,3515,1.164,2.607,5.545,-4.438,-0.203,0.792,0.931,-2.617,9.732,-0.129,0.126,0.137,angry
4.54,0,0,0,0,0,0,0,0,16,1911,2659,2909,1821,8,3357,3135,0.409,3.718,5.308,-4.477,-0.413,0.699,0.893,-2.389,9.457,-0.166,0.099,0.149,angry
4.55,0,0,0,0,0,0,0,0,59,1898,2643,2996,1955,17,3299,2907,0.445,5.449,7.671,-4.495,-0.838,0.67,0.927,-2.796,9.694,-0.191,0.098,0.161,angry
4.56,0,0,0,0,0,0,0,0,141,2023,2741,3120,2065,0,3141,2867,1.599,7.391,8.523,-4.754,-1.15,0.8,0.924,-3.175,10.104,-0.147,0.112,0.125,angry
4.57,0,0,0,0,0,0,0,0,185,2317,2899,3251,2293,39,2919,2699,2.804,8.631,8.203,-4.812,-1.137,1.209,1.039,-3.029,9.768,-0.085,0.135,0.076,angry
4.58,0,0,0,0,0,0,0,0,407,2457,2997,3439,2454,47,2811,2621,2.993,9.536,10.645,-4.867,-0.961,1.787,0.783,-2.713,9.517,-0.087,0.15,0.071,angry
4.59,0,0,0,0,0,0,0,0,404,2469,3199,3481,2487,47,2617,2553,0.594,9.311,12.538,-5.003,-0.904,1.967,0.766,-2.878,9.706,-0.089,0.129,0.071,angry
4.6,0,0,0,0,0,0,0,0,797,2555,3135,3579,2531,51,2693,2445,-0.651,9.984,14.973,-5.016,-1.25,1.611,0.824,-2.892,9.653,-0.079,0.111,0.042,angry
4.61,0,0,0,0,0,0,0,0,857,2700,3165,3659,2605,45,2533,1883,1.975,14.492,16.889,-4.869,-1.289,1.319,0.745,-2.859,9.682,-0.086,0.125,0.04,angry
4.62,0,0,0,0,0,0,0,0,1049,2699,3181,3683,2653,52,2445,1650,-0.9,19.613,17.229,-4.785,-1.462,1.389,0.771,-3.033,9.747,-0.085,0.128,0.035,angry
4.63,0,0,0,0,0,0,0,0,1430,2777,3204,3776,2583,51,2136,1071,-4.101,19.613,5.404,-3.888,-0.662,1.177,0.998,-3.089,9.634,-0.031,0.105,0.038,angry
4.64,0,0,0,0,0,0,0,0,1659,2828,3258,3848,2633,78,1719,30,-9.206,19.613,-7.491,-1.792,0.243,0.782,1.056,-3.002,9.61,-0.074,0.08,0.071,angry
4.65,0,0,0,0,0,0,0,0,1955,2863,3296,3924,2505,18,1386,0,-13.185,19.613,-16.554,1.477,-0.333,0.308,0.826,-3.12,9.594,-0.056,0.068,0.094,angry
4.66,0,0,0,0,0,0,0,2283,2355,2927,3329,4015,2157,1,143,0,7.757,4.82,19.613,0.916,2.794,-0.831,0.335,-2.243,9.981,-0.349,-0.029,0.021,angry
4.67,0,0,0,0,0,0,183,3597,2825,2869,3350,4087,411,0,0,0,7.535,-6.33,-10.484,6.087,-1.821,0.627,1.154,-1.889,9.704,-0.78,-0.015,-0.322,angry
4.68,0,0,0,0,0,0,635,3831,3029,2809,3357,4087,95,0,25,0,-6.067,7.305,18.507,3.757,0.362,-0.618,1.662,-0.795,10.326,-1.321,-0.341,-0.41,angry
4.69,0,0,0,0,0,0,2021,3897,3140,1781,3350,4053,143,45,0,0,1.652,2.878,4.87,3.925,-0.613,-0.774,1.314,-1.068,10.693,-3.778,-0.076,-0.301,angry
4.7,209,0,0,0,963,0,3088,3861,2331,591,3437,3669,0,37,0,12,19.613,19.613,19.613,2.013,5.879,-3.702,1.669,1.391,13.901,-7.901,-0.285,1.443,angry
4.71,1263,1283,887,0,1829,0,3279,3779,1689,235,2551,2924,0,0,0,0,-1.154,4.204,8.83,0.303,1.127,-0.535,2.907,-1.762,19.613,-8.731,-2.214,1.943,angry
4.72,1611,1821,2478,1494,2359,0,3382,3890,319,0,0,137,0,0,0,0,0.587,4.125,9.17,0.289,0.394,-0.307,-0.081,-8.492,19.613,-8.731,-2.893,3.952,angry
4.73,1888,2205,2893,2217,2595,208,3454,3885,0,0,0,0,0,0,0,0,0.136,4.197,9.069,0.15,0.088,-0.016,7.178,-4.855,19.613,-1.886,0.473,5.539,angry
4.74,2104,2341,3106,2483,2753,144,3487,3856,0,0,0,0,0,0,0,0,0.285,4.037,9.663,0.04,0.108,0.007,6.342,-2.356,19.613,-0.24,-0.658,3.023,angry
4.75,2202,2492,3238,2629,2791,0,3426,3790,0,0,0,0,0,0,0,0,0.455,3.812,9.5,0.083,0.063,-0.012,10.08,4.317,8.119,2.078,0.492,2.417,angry
4.76,2265,2543,3295,2658,2842,0,3361,3729,0,0,0,0,0,0,0,44,0.618,3.862,9.345,0.058,0.096,-0.051,8.88,3.347,7.532,2.259,0.254,1.333,angry
4.77,2304,2559,3334,2714,2801,0,3294,3687,0,0,110,0,0,0,0,0,0.294,3.814,9.234,0.032,0.121,-0.05,8.607,3.158,6.663,2.597,-0.372,0.269,angry
4.78,2359,2624,3364,2771,2614,0,3167,3617,0,0,0,0,0,0,0,0,0,3.749,9.33,0.038,0.091,-0.012,5.622,1.788,6.349,3.091,-0.761,-1.293,angry
4.79,2397,2672,3387,2799,2549,0,3120,3565,0,0,0,0,0,0,0,3,0.034,3.613,9.227,0.045,0.079,-0.015,3.706,0.534,7.776,3.438,-0.825,-1.666,angry
4.8,2438,2698,3424,2838,2579,0,3053,3515,0,0,0,0,0,0,0,0,0.208,3.596,9.273,0.061,0.068,-0.03,2.116,-0.905,9.665,3.888,-0.809,-1.828,angry
4.81,2499,2711,3472,2928,2539,0,2960,3458,0,0,0,0,0,0,0,1,0.302,3.814,9.333,0.066,0.079,-0.033,0.848,-1.911,10.977,4.41,-0.852,-1.807,angry
4.82,2559,2727,3511,3003,2646,0,2903,3429,0,0,0,0,0,0,0,0,0.182,3.845,9.347,0.043,0.086,-0.024,-0.989,-3.697,11.466,5.233,-0.992,-1.49,angry
4.83,2640,2755,3562,3067,2675,0,2854,3411,0,0,0,22,0,0,0,0,0.177,3.677,9.292,0.058,0.082,-0.027,-1.444,-4.81,11.779,5.325,-1.448,-1.062,angry
4.84,2736,2734,3583,3143,2691,0,2683,3335,0,0,0,0,0,63,0,0,0.141,3.728,9.263,0.055,0.086,-0.022,-0.996,-5.339,13.685,5.376,-1.656,-0.896,angry
4.85,2817,2783,3647,3203,2702,0,2512,3193,0,0,0,0,0,0,0,0,0.036,3.704,9.151,0.052,0.1,-0.022,-0.567,-6.776,18.22,5.247,-2.147,-0.836,angry
4.86,2915,2800,3706,3291,2853,0,2379,2928,0,0,0,0,0,0,0,0,-0.11,3.596,9.189,0.087,0.075,-0.018,2.789,-14.827,19.613,5.175,-2.294,-0.954,angry
4.87,3021,2895,3777,3387,2943,0,2130,2289,0,0,0,0,0,0,0,0,0.151,3.199,9.143,0.107,0.189,-0.004,4.01,-19.613,19.613,5.062,-2.082,-1.323,angry
4.88,3107,3005,3840,3521,3005,0,1840,1008,0,0,0,0,0,0,0,0,0.306,3.431,9.33,0.198,0.28,0.003,3.632,-19.613,7.75,3.967,-1.185,-2.136,angry
4.89,3270,3162,3909,3583,2864,0,1086,0,0,0,0,0,0,0,0,0,0.077,3.582,9.553,0.339,0.246,0.054,-1.712,-19.613,-5.239,1.428,-0.718,-3.505,angry
4.9,3367,3255,3949,3653,2671,0,86,0,0,0,0,0,0,0,0,0,0.316,3.749,9.615,0.559,0.259,0.135,-9.706,-19.613,-7.25,0.063,-0.124,-3.227,angry
4.91,3466,3347,3981,3701,2281,0,0,0,0,0,0,0,0,0,0,0,0.239,1.47,10.003,0.904,0.226,0.4,-13.733,-19.613,-7.274,-1.038,-0.217,-2.59,angry
4.92,3568,3376,4007,3754,1699,0,0,0,0,0,0,0,0,0,0,0,0.56,1.08,9.855,1.118,0.239,0.448,0.007,-11.961,-7.02,-2.765,1.661,-0.891,angry
4.93,3677,3360,4016,3782,1297,0,0,0,0,0,0,0,0,0,0,1374,0.438,3.146,8.904,1.54,-0.05,0.652,-1.448,10.922,19.613,-0.623,3.16,-0.047,angry
4.94,3763,3194,4026,3809,1145,0,0,0,0,0,0,0,0,0,0,3077,0.649,3.79,10.628,1.726,0.214,0.839,-19.12,10.161,-0.907,-5.757,-2.256,-1.032,angry
4.95,3866,2896,4028,3779,439,0,0,0,0,0,0,0,0,0,5,3485,0.73,3.338,8.645,3.366,0.6,1.096,-5.722,-9.491,6.321,-5.903,0.271,2.22,angry
4.96,3908,2620,3987,3712,190,0,0,0,0,0,0,0,0,0,380,3751,1.063,3.694,8.777,3.839,1.183,0.968,4.238,-12.622,17.64,-4.622,0.101,1.642,angry
4.97,3888,2512,3842,3489,0,0,0,0,0,0,0,0,0,0,1646,3911,2.552,4.638,10.618,4.713,1.474,0.4,-0.168,-6.462,13.611,-4.693,-0.635,0.743,angry
4.98,3792,2353,3622,3120,0,0,0,0,0,0,0,0,0,0,2342,3933,4.815,4.659,13.661,6.557,1.6,0.134,19.613,-19.613,19.613,-4.764,3.721,1.209,angry
4.99,3487,1317,3171,2398,0,0,0,0,0,0,0,0,90,0,2835,4040,0.419,2.449,19.613,7.91,0.311,-1.157,1.657,-12.052,19.613,0.642,1.54,-0.241,angry
5,1648,3,1344,495,0,0,0,0,5,301,0,0,43,0,3163,4045,-5.966,10.673,19.613,8.731,-1.439,-3.897,3.115,-1.944,7.099,0.063,1.104,0.319,angry
5.01,298,0,187,0,0,0,0,0,0,575,0,0,151,0,3259,4023,-2.423,16.539,19.613,8.731,-1.66,-4.129,-0.019,-3.565,12.086,0.148,0.572,0.106,angry
5.02,0,0,0,0,0,0,0,0,0,762,0,2,166,0,3373,4051,11.471,4.365,19.613,3.672,-0.367,-4.445,0.73,-2.749,11.116,-0.082,0.279,0.171,angry
5.03,0,0,0,0,0,0,0,0,0,984,0,351,179,0,3447,4059,4.374,8.997,19.613,1.053,-0.165,-2.054,1.592,-2.928,9.946,-0.003,0.193,0.141,angry
5.04,0,0,0,0,0,0,0,0,0,1105,0,723,243,0,3517,4076,8.349,0.608,13.53,0.244,-0.544,-1.866,1.161,-2.691,10.269,-0.009,0.161,0.11,angry
5.05,0,0,0,0,0,0,0,0,0,1133,0,939,361,0,3491,4072,7.302,-0.417,10.92,-0.904,0.011,-1.518,1.168,-2.636,9.448,0.021,0.065,0.068,angry
5.06,0,0,0,0,0,0,0,0,0,1151,0,936,309,0,3573,4083,5.207,-1.963,8.705,-1.236,-0.361,-1.062,1.01,-2.691,9.917,0.071,0.059,0.023,angry
5.07,0,0,0,0,0,0,0,0,0,1272,10,915,423,0,3575,4045,5.77,-1.437,8.497,-1.778,-0.891,-0.505,1.279,-2.322,9.627,0.037,0.128,0.024,angry
5.08,0,0,0,0,0,0,0,0,1,1205,575,791,375,2,3544,4020,6.179,-1.319,7.269,-2.1,-1.081,0.062,1.168,-2.444,9.579,0.002,0.137,0.055,angry
5.09,0,0,0,0,0,0,0,0,1,1261,1097,989,327,1,3493,3991,5.574,-0.721,7.685,-2.485,-0.996,0.601,1.185,-2.459,9.661,-0.029,0.16,0.083,angry
5.1,0,0,0,0,0,0,0,0,7,1233,1458,1249,285,0,3469,3957,3.606,0.716,8.796,-3.025,-0.975,1.041,0.924,-2.449,9.783,-0.037,0.16,0.1,angry
5.11,0,0,0,0,0,0,0,0,4,1245,2024,1636,309,23,3429,4011,1.686,1.597,9.249,-3.555,-1.157,1.296,0.855,-2.461,9.768,-0.045,0.155,0.112,angry
5.12,0,0,0,0,0,0,0,0,11,1385,2474,1964,411,1,3400,3917,0.484,2.138,8.93,-4.05,-1.189,1.346,0.867,-2.488,9.792,-0.063,0.127,0.115,angry
5.13,0,0,0,0,0,0,0,0,73,1444,2605,2136,495,21,3319,3877,-1.319,2.653,8.404,-4.384,-1.348,1.245,0.907,-2.49,9.706,-0.074,0.115,0.125,angry
5.14,0,0,0,0,0,0,0,0,61,1582,2684,2291,588,23,3300,3827,-2.998,3.555,9.373,-4.579,-1.634,1.064,0.967,-2.65,9.725,-0.089,0.139,0.135,angry
5.15,0,0,0,0,0,0,0,0,149,1605,2689,2473,762,35,3207,3799,-3.843,4.858,9.632,-4.795,-2.06,0.868,0.898,-2.516,9.618,-0.092,0.137,0.118,angry
5.16,0,0,0,0,0,0,0,0,205,1653,2741,2853,857,41,3080,3711,-2.088,5.385,9.036,-4.843,-2.257,0.647,0.797,-2.658,9.752,-0.128,0.159,0.137,angry
5.17,0,0,0,0,0,0,0,0,253,1711,2833,3015,1063,37,2984,3755,-1.307,6.771,12.625,-4.815,-2.356,0.811,1.077,-2.907,9.407,-0.147,0.205,0.164,angry
5.18,0,0,0,0,0,0,0,0,365,1881,2848,3287,1529,47,2781,3452,-0.481,8.871,15.574,-5.002,-2.544,1.121,0.795,-2.753,9.646,-0.1,0.132,0.104,angry
5.19,0,0,0,0,0,0,0,0,697,2140,3053,3479,1919,48,2712,2941,2.176,10.901,18.141,-4.885,-2.416,1.481,0.678,-2.672,9.665,-0.091,0.173,0.092,angry
5.2,0,0,0,0,0,0,0,0,873,2246,3304,3561,2152,46,2616,2665,1.705,19.613,19.613,-5.046,-2.032,2.543,0.654,-2.727,9.843,-0.102,0.173,0.072,angry
5.21,0,0,0,0,0,0,0,0,1291,2521,3206,3702,2521,49,2207,2169,0.979,19.613,9.878,-4.408,-0.74,3.209,0.565,-2.986,10.077,-0.21,0.196,0.044,angry
5.22,0,0,0,0,0,0,0,0,1707,2653,3247,3849,2540,47,1811,548,-6.225,19.613,-7.309,-2.135,1.045,2.984,0.804,-2.816,9.819,-0.128,0.133,0.052,angry
5.23,0,0,0,0,0,0,0,0,1723,2723,3263,3975,2401,3,1227,0,-18.299,19.613,-17.772,1.474,-1.312,1.543,0.728,-2.82,10.036,-0.137,0.068,0.03,angry
5.24,0,0,0,0,0,0,0,2398,2231,2963,3309,4019,2038,4,333,0,1.405,-4.125,2.636,2.345,2.98,-0.078,0.555,-3.105,9.395,-0.29,0.075,-0.026,angry
5.25,0,0,0,0,0,0,651,3714,2678,3099,3339,4016,649,0,3,0,-6.701,1.379,0.124,6.213,-1.621,0.592,1.906,-1.592,10.101,-0.729,0.062,-0.273,angry
5.26,0,0,0,0,0,0,1406,3860,2897,2905,3345,4051,137,0,0,0,7.582,18.34,19.613,3.744,1.292,-1.098,2.409,-1.216,9.438,-1.442,-0.216,-0.429,angry
5.27,0,0,0,0,0,0,2384,3862,3079,2203,3365,4011,0,0,0,0,-7.693,3.867,10.048,3.336,0.338,-0.634,3.266,-0.146,13.52,-3.722,-0.185,-0.681,angry
5.28,895,432,0,0,1135,0,3008,3773,2389,879,3506,3865,0,0,69,0,1.135,4.31,9.95,0,1.719,-0.649,2.698,-2.375,12.304,-6.484,0.929,0.314,angry
5.29,1422,1600,2170,1037,1461,0,3151,3795,1927,392,3309,3607,0,0,0,0,1.753,6.381,10.19,0.357,0.403,-0.296,1.769,-0.409,19.027,-8.731,0.239,1.126,angry
5.3,1739,2042,2817,2039,2127,0,3282,3828,951,0,0,1482,0,1,0,0,0.424,4.52,9.155,0.167,0.102,-0.097,-2.282,-6.721,19.613,-8.731,-1.229,3.833,angry
5.31,2128,2388,3152,2494,2559,16,3377,3847,0,2,5,0,0,0,0,0,0.881,3.886,9.424,0.165,0.06,-0.059,12.91,-6.649,19.613,-4.583,-0.176,4.254,angry
5.32,2419,2593,3356,2767,2736,179,3415,3822,0,0,0,0,0,0,0,0,0.148,3.558,8.964,0.095,0.112,-0.041,-6.06,-19.613,19.613,-0.081,0.961,4.103,angry
5.33,2639,2729,3491,2951,2825,0,3364,3724,0,0,0,0,0,57,0,0,0.419,3.551,9.203,0.148,0.022,-0.031,8.708,0.285,10.915,1.154,-0.014,2.721,angry
5.34,2793,2736,3573,3087,2915,0,3191,3573,0,0,0,0,0,0,0,0,0.539,3.881,9.218,0.079,0.115,-0.053,7.209,2.212,7.673,1.903,-0.043,1.499,angry
5.35,2858,2836,3625,3181,2909,0,3058,3468,0,0,0,0,0,0,0,0,0.338,3.953,9.333,0.084,0.11,-0.029,7.582,1.963,8.073,2.307,-0.504,0.629,angry
5.36,2930,2890,3666,3237,2849,0,2879,3345,0,0,0,0,0,0,0,0,0.283,3.874,9.323,0.086,0.104,-0.011,7.618,1.741,7.535,2.709,-0.753,-0.261,angry
5.37,2985,2939,3691,3282,2736,0,2589,3152,0,0,0,0,0,0,0,0,0.323,3.862,9.304,0.086,0.089,-0.013,6.515,1.745,7.199,3.094,-0.806,-1.019,angry
5.38,3021,2958,3719,3324,2593,0,2292,2909,0,0,0,37,0,0,0,0,0.242,3.843,9.254,0.082,0.08,-0.022,4.302,1.077,8.174,3.457,-0.962,-1.574,angry
5.39,3066,2992,3756,3375,2327,0,1797,2362,0,0,20,4,19,0,0,0,0.292,3.845,9.278,0.079,0.079,-0.015,2.296,-0.014,9.21,3.874,-1.17,-1.907,angry
5.4,3143,3035,3777,3419,2105,0,1522,1808,31,0,0,0,0,0,0,0,0.225,3.845,9.187,0.057,0.094,-0.009,-0.397,-1.171,9.146,4.627,-1.127,-1.9,angry
5.41,3212,3056,3810,3462,2000,0,1191,1118,0,2,0,0,0,0,0,0,0.273,3.826,9.275,0.059,0.103,-0.011,-3.041,-2.842,11.382,4.964,-1.509,-1.294,angry
5.42,3248,3067,3835,3514,2005,0,727,6,0,0,0,0,0,0,1,0,0.187,3.857,9.167,0.042,0.115,-0.009,-2.619,-3.68,12.874,5.13,-1.92,-1.013,angry
5.43,3264,3054,3855,3538,2067,0,558,0,0,0,0,13,1,0,3,0,0.108,3.907,9.376,0.05,0.131,0.007,-1.372,-4.618,14.356,5.307,-2.143,-0.846,angry
5.44,3298,3063,3859,3568,2117,0,266,0,0,0,0,0,0,0,0,0,0.144,3.771,9.266,0.054,0.158,0.018,-0.627,-5.21,15.845,5.451,-2.16,-0.823,angry
5.45,3353,3091,3889,3605,2235,0,283,0,0,0,0,0,52,0,0,0,0.134,3.711,9.208,0.079,0.16,0.011,-0.661,-5.655,17.154,5.452,-2.143,-0.8,angry
5.46,3395,3067,3901,3644,2230,0,111,0,0,0,0,0,0,0,0,0,0.189,3.62,9.194,0.155,0.188,0.025,-0.936,-6.991,19.613,5.402,-2.296,-0.65,angry
5.47,3440,3138,3928,3670,2214,0,5,0,0,0,0,0,0,0,0,0,0.187,3.558,9.251,0.214,0.216,0.031,0.184,-11.753,19.613,5.428,-2.663,-0.47,angry
5.48,3481,3140,3947,3707,2183,0,0,0,0,0,0,0,0,0,0,0,0.156,3.768,9.306,0.281,0.236,0.038,3.579,-19.034,19.613,5.385,-2.824,-0.626,angry
5.49,3521,3200,3973,3731,2137,0,0,0,0,0,0,0,0,0,0,0,0.206,3.572,9.548,0.385,0.253,0.061,5.497,-19.613,18.196,4.917,-2.522,-1.173,angry
5.5,3566,3220,3984,3762,1915,0,0,0,0,0,0,0,0,0,0,0,0.081,3.503,9.048,0.465,0.173,0.105,4.968,-19.613,9.292,4.07,-1.863,-1.575,angry
5.51,3618,3259,4006,3790,1556,0,0,0,0,0,0,0,0,0,0,9,-0.029,2.959,9.278,0.7,0.248,0.253,0.23,-19.613,3.498,2.917,-2.087,-2.458,angry
5.52,3690,3251,4019,3809,1488,0,0,0,0,0,0,0,0,0,0,0,0.247,3.603,9.369,0.733,0.195,0.291,-1.106,-19.613,-3.977,1.443,-1.91,-3.604,angry
5.53,3758,3268,4030,3837,1157,0,0,0,0,0,0,0,0,0,0,0,-0.328,3.527,8.902,0.93,0.061,0.434,-9.73,-19.613,-8.112,0.161,-0.833,-3.491,angry
5.54,3826,3248,4034,3850,1071,0,0,0,0,0,0,38,0,0,0,0,0.441,3.417,8.576,1.074,0.197,0.487,-16.281,-19.613,-7.338,-1.08,-0.507,-2.558,angry
5.55,3888,3174,4040,3867,808,0,0,0,0,0,0,0,0,0,0,0,-0.627,3.62,8.243,1.346,0.126,0.567,-6.603,-19.613,-11.461,-4.558,0.239,-2.093,angry
5.56,3913,3088,4047,3869,752,0,0,0,0,0,0,0,0,0,0,635,0.869,3.527,9.84,1.789,0.236,0.692,10.824,-2.763,19.613,-0.559,4.319,0.086,angry
5.57,3947,2967,4043,3847,437,0,0,0,0,0,0,0,0,0,22,2870,0.824,2.94,9.196,2.477,0.386,0.838,-19.613,7.887,14.978,-5.106,-1.39,-1.195,angry
5.58,3968,2796,4019,3791,203,0,0,0,0,0,0,0,0,0,0,3436,2.286,3.833,10.19,3.21,0.706,0.911,-11.487,5.112,7.597,-6.569,-0.03,1.507,angry
5.59,3981,2649,3957,3701,17,0,0,0,0,0,0,0,0,0,471,3785,1.245,3.572,8.174,3.873,1.13,0.896,-1.329,-18.036,16.819,-4.82,-0.292,1.917,angry
5.6,3943,2509,3763,3475,0,0,0,0,0,0,0,0,0,0,1494,3935,1.595,3.606,8.538,4.419,1.569,0.486,5.533,-8.519,19.613,-4.337,-0.441,0.896,angry
5.61,3818,2393,3583,3088,0,0,0,0,0,0,0,0,0,0,2584,3993,0.639,6.993,10.752,5.659,0.724,-0.092,19.613,-11.428,19.613,-4.55,1.04,0.93,angry
5.62,2431,880,2748,1647,0,0,0,0,0,0,0,0,107,0,3005,4040,-0.472,9.218,19.613,8.117,-3.008,-2.555,-2.255,-0.338,12.024,-0.195,2.523,1.038,angry
5.63,511,0,368,0,0,0,0,0,0,119,0,0,69,0,3240,4062,0.225,19.613,19.613,8.731,-2.657,-4.15,2.076,-3.29,10.297,0.084,1.1,0.292,angry
5.64,0,0,0,0,0,0,0,0,0,698,0,0,101,0,3347,4063,13.642,9.618,19.613,4.179,-0.338,-4.037,0.508,-2.94,11.485,-0.07,0.652,0.234,angry
5.65,0,0,0,0,0,0,0,0,3,982,0,473,404,0,3388,4089,2.753,14.202,19.613,1.297,0.848,-2.315,1.099,-2.497,10.108,-0.011,0.354,0.211,angry
5.66,0,0,0,0,0,0,0,0,0,1099,0,956,567,0,3463,4095,7.056,-1.647,19.613,0.274,0.128,-1.461,1.52,-2.801,9.845,-0.071,0.236,0.167,angry
5.67,0,0,0,0,0,0,0,0,1,1212,1379,1447,743,1,3537,4091,8.806,2.229,10.604,-0.938,0.516,-1.113,0.383,-3.026,9.632,0.021,0.029,0.132,angry
5.68,0,0,0,0,0,0,0,0,1,1308,1481,1671,970,1,3593,4086,4.887,-1.283,9.967,-1.301,0.384,-0.765,0.97,-2.593,9.79,0.032,0.087,0.026,angry
5.69,0,0,0,0,0,0,0,0,0,1429,1607,1758,1142,2,3609,4073,4.19,-0.634,8.724,-1.936,0.064,-0.43,1.128,-2.648,10.005,0.043,0.078,-0.014,angry
5.7,0,0,0,0,0,0,0,0,0,1507,1858,1813,1337,1,3589,4037,3.4,-1.269,6.577,-2.204,-0.276,-0.168,1.262,-2.413,9.74,0.029,0.08,-0.012,angry
5.71,0,0,0,0,0,0,0,0,1,1542,1696,1803,1417,2,3576,4005,2.579,0.069,8.657,-2.611,-0.586,0.015,1.348,-2.507,9.759,0.001,0.099,0.03,angry
5.72,0,0,0,0,0,0,0,0,1,1614,2126,1837,1469,4,3509,3978,2.433,0.771,8.135,-3.301,-0.685,0.156,1.12,-2.55,9.776,-0.005,0.089,0.054,angry
5.73,0,0,0,0,0,0,0,0,2,1639,2067,1931,1401,3,3493,3945,1.609,0.486,5.93,-3.754,-0.666,0.167,1.01,-2.394,9.668,-0.017,0.09,0.065,angry
5.74,0,0,0,0,0,0,0,0,0,1639,2055,2065,1451,2,3453,3911,0.304,0.378,4.915,-3.85,-0.782,0.116,0.876,-2.514,9.828,-0.016,0.079,0.07,angry
5.75,0,0,0,0,0,0,0,0,37,1669,2229,2107,1579,2,3401,3866,-0.577,2.248,7.195,-3.895,-1.309,0.131,1.003,-2.255,9.773,-0.069,0.055,0.089,angry
5.76,0,0,0,0,0,0,0,0,3,1631,2147,2231,1709,2,3359,3823,0.266,3.649,8.65,-4.141,-1.734,0.259,1.113,-2.488,9.759,-0.075,0.082,0.112,angry
5.77,0,0,0,0,0,0,0,0,9,1753,2431,2358,1779,7,3323,3773,0.96,4.116,7.908,-4.42,-1.748,0.49,1.118,-2.38,9.519,-0.1,0.103,0.147,angry
5.78,0,0,0,0,0,0,0,0,27,1821,2510,2485,1875,8,3192,3733,0.596,4.161,7.566,-4.473,-1.587,0.734,1.12,-2.571,9.637,-0.118,0.112,0.162,angry
5.79,0,0,0,0,0,0,0,0,71,1955,2592,2662,2027,16,3214,3655,0.201,5.174,9.629,-4.413,-1.693,1.005,0.97,-2.562,9.749,-0.118,0.115,0.164,angry
5.8,0,0,0,0,0,0,0,0,83,2063,2700,2837,2125,13,3133,3543,1.29,6.689,11.564,-4.558,-1.789,1.338,0.922,-2.614,9.84,-0.121,0.138,0.152,angry
5.81,0,0,0,0,0,0,0,0,87,2199,2689,2991,2217,3,3091,3363,0.687,6.467,11.418,-4.755,-1.428,1.729,0.917,-2.741,9.869,-0.118,0.143,0.152,angry
5.82,0,0,0,0,0,0,0,0,199,2314,2684,3083,2332,39,3083,3159,-0.132,6.56,11.662,-4.627,-1.351,1.775,0.927,-2.631,10.01,-0.13,0.148,0.143,angry
5.83,0,0,0,0,0,0,0,0,345,2419,2792,3301,2495,47,3023,3005,-0.503,9.835,19.197,-4.236,-2.133,1.826,0.745,-2.787,9.922,-0.148,0.117,0.112,angry
5.84,0,0,0,0,0,0,0,0,459,2678,2997,3451,2569,53,2713,2727,5.447,14.068,19.613,-4.596,-1.674,2.132,0.903,-2.844,9.632,-0.123,0.154,0.082,angry
5.85,0,0,0,0,0,0,0,0,666,2684,3068,3529,2740,51,2695,2631,2.689,19.415,13.446,-3.499,-0.893,2.695,0.848,-2.89,9.823,-0.133,0.146,0.069,angry
5.86,0,0,0,0,0,0,0,0,1059,2779,3145,3704,2829,48,2507,2219,-0.63,19.613,7.034,-2.836,-0.663,2.868,0.929,-2.768,9.586,-0.148,0.172,0.043,angry
5.87,0,0,0,0,0,0,0,0,1448,2922,3247,3804,2713,62,2156,1101,-15.435,19.613,-12.85,-0.734,-1.195,2.065,0.426,-2.49,10.427,-0.148,0.161,0.02,angry
5.88,0,0,0,0,0,0,0,0,1525,2972,3212,3878,2510,38,1661,169,-11.006,19.613,-12.634,2.595,-0.004,1.085,0.678,-2.689,9.333,-0.075,0.152,0.02,angry
5.89,0,0,0,0,0,0,239,2975,1877,3078,3252,3963,2023,3,368,0,0.397,-7.714,19.613,1.608,3.155,-1.248,1.118,-2.914,9.687,-0.121,0.139,0.016,angry
5.9,0,0,0,0,0,0,699,3743,2254,3017,3309,4025,412,0,0,0,-5.38,4.149,-2.289,6.409,-0.055,-1.249,2.952,-3.452,9.625,-0.874,0.282,-0.337,angry
5.91,254,0,0,0,0,0,2107,3887,2445,2679,3309,4037,18,0,1,1,2.066,13.728,18.045,2.953,0.75,-1.106,2.349,-1.097,9.914,-1.533,-0.112,-0.54,angry
5.92,306,0,0,0,754,0,3082,3859,2685,1561,3314,3981,0,0,0,0,-13.199,16.968,19.613,2.134,2.738,-2.865,-0.259,-0.883,10.285,-4.003,-0.158,-0.454,angry
5.93,1314,428,0,0,1441,0,3259,3798,2229,430,3342,3723,0,0,0,0,-5.612,4.592,17.873,0.763,1.966,-0.964,1.125,0.879,14.102,-6.638,0.777,0.572,angry
5.94,1713,1708,844,0,2077,0,3362,3851,1763,57,2270,3419,0,0,0,0,1.903,7.635,13.901,0.26,0.6,-0.221,4.322,-4.81,19.613,-7.989,-0.222,2.051,angry
5.95,1744,2096,2297,690,2416,0,3450,3888,805,0,0,563,29,0,0,0,0.881,4.101,9.783,0.138,0.328,-0.117,-1.887,-7.815,19.613,-8.427,-0.942,4.047,angry
5.96,1809,2352,2701,1360,2597,0,3501,3902,0,0,0,0,0,0,0,17,0.864,3.924,9.661,0.065,0.249,-0.088,1.755,-8.818,12.06,-2.514,0.126,4.999,angry
5.97,1914,2535,2951,1872,2666,0,3521,3876,0,0,0,0,0,0,0,0,0.366,3.742,9.62,0.111,0.17,-0.064,2.976,0.261,19.613,-0.421,-1.275,3.354,angry
5.98,1973,2651,3105,2141,2639,0,3504,3826,0,0,0,0,0,0,0,0,0.402,3.915,9.553,0.1,0.106,-0.048,9.251,0.658,9.606,1.54,-0.316,2.785,angry
5.99,1987,2688,3153,2240,2679,0,3471,3793,0,0,0,0,0,0,0,0,0.587,3.819,9.227,0.09,0.087,-0.056,9.455,1.245,6.127,1.868,-0.45,1.615,angry
6,2014,2719,3193,2320,2717,0,3425,3758,0,0,0,0,0,0,0,0,0.606,3.685,9.242,0.098,0.086,-0.073,8.42,1.413,4.563,2.166,-0.564,0.476,angry
6.01,2064,2768,3234,2389,2711,0,3383,3715,0,0,0,0,0,0,0,0,0.362,3.761,9.39,0.08,0.092,-0.07,6.309,1.614,4.171,2.299,-0.738,-0.459,angry
6.02,2115,2788,3271,2446,2710,0,3350,3680,0,0,0,0,0,0,0,0,0.383,3.704,9.17,0.074,0.084,-0.052,4.221,1.286,5.126,2.51,-0.968,-1.069,angry
6.03,2103,2807,3297,2493,2734,0,3333,3659,0,4,0,0,0,0,0,0,0.225,3.768,9.213,0.059,0.061,-0.04,2.303,0.591,6.608,2.826,-1.205,-1.39,angry
6.04,2127,2810,3330,2519,2768,0,3327,3647,0,0,0,0,0,0,0,0,0.34,3.797,9.323,0.058,0.057,-0.03,1.092,-0.098,7.719,3.22,-1.297,-1.502,angry
6.05,2170,2797,3376,2615,2770,0,3302,3631,0,0,0,0,0,0,0,0,0.467,3.725,9.254,0.066,0.053,-0.042,-1.154,-1.348,8.157,3.789,-1.458,-1.358,angry
6.06,2219,2799,3413,2643,2779,0,3253,3611,0,0,0,0,0,0,0,0,0.309,3.606,9.151,0.078,0.06,-0.047,-1.918,-1.99,8.827,3.971,-1.661,-1.196,angry
6.07,2277,2779,3458,2723,2846,0,3235,3583,0,0,0,0,0,0,6,0,0.311,3.807,9.347,0.082,0.064,-0.05,-4.175,-2.83,10.815,4.221,-1.75,-0.585,angry
6.08,2378,2737,3509,2857,2906,0,3208,3571,5,0,0,0,0,0,52,0,0.381,3.852,9.294,0.082,0.072,-0.048,-9.907,-6.129,17.028,4.337,-2.711,1.03,angry
6.09,2512,2721,3534,2959,2884,0,3144,3539,0,0,0,0,0,0,0,0,0.429,3.713,9.184,0.064,0.086,-0.038,-8.782,-9.39,14.423,4.172,-3.294,1.872,angry
6.1,2645,2726,3574,3043,2865,0,3008,3493,0,0,0,0,0,0,0,0,0.316,3.728,9.127,0.072,0.086,-0.042,-7.503,-17.808,12.663,3.544,-3.17,3.206,angry
6.11,2745,2800,3633,3141,2955,0,2938,3408,0,0,0,0,0,0,0,0,0.311,3.639,9.033,0.096,0.053,-0.01,-9.543,-19.613,8.875,2.471,-3.363,3.463,angry
6.12,2839,2855,3690,3225,3050,0,2831,3268,0,0,0,0,20,0,0,0,0.376,3.68,9.251,0.068,0.1,0.004,-12.984,-18.83,4.228,1.744,-3.148,3.393,angry
6.13,2960,2974,3742,3329,3050,0,2528,2933,55,0,0,0,0,0,0,0,0.369,3.639,9.242,0.122,0.124,0.019,-13.685,-19.613,8.698,0.019,1.043,2.284,angry
6.14,3065,3091,3811,3425,2925,0,1904,1754,0,0,0,0,0,0,0,1159,0.294,3.613,9.44,0.173,0.129,0.063,-2.66,5.301,10.151,-0.378,2.402,0.35,angry
6.15,3169,3205,3859,3511,2118,0,449,0,0,0,0,0,0,0,694,2984,0.328,2.739,9.737,0.473,0.102,0.189,-3.742,3.886,9.187,-1.268,0.885,0.23,angry
6.16,3247,3248,3888,3549,1323,0,0,0,0,1,0,0,0,0,1356,3356,0.172,2.806,10.436,0.953,0.155,0.454,-9.448,1.659,6.474,-2.876,-0.108,0.795,angry
6.17,3344,3143,3897,3531,637,0,0,0,0,0,0,0,3,0,2341,3621,0.682,3.256,10.077,1.675,0.276,0.579,-2.025,6.778,0.101,-0.193,1.662,0.069,angry
6.18,3390,2727,3870,3440,505,0,0,0,0,0,7,0,7,0,2492,3644,1.3,2.488,9.886,2.666,0.331,0.715,3.065,-4.427,10.106,-0.629,0.439,0.189,angry
6.19,3413,2462,3773,3137,81,0,0,0,0,102,12,1385,27,7,2587,3695,2.059,2.796,10.92,3.263,0.415,0.581,0.479,-3.745,12.074,-0.327,0.442,0.48,angry
6.2,3169,1535,3147,1799,0,0,0,0,0,869,2495,2572,54,25,2752,3688,-2.354,0.948,13.132,4.849,-0.145,-0.097,0.29,-2.497,10.017,-0.38,0.373,0.332,angry
6.21,2176,128,837,0,0,0,0,0,0,1139,2659,2953,38,0,2856,3695,-1.544,8.48,17.53,5.901,-0.636,-0.488,0.491,-2.919,9.685,-0.203,0.232,0.217,angry
6.22,0,0,0,0,0,0,0,0,1,1775,2794,3246,185,3,2989,3693,7.207,-0.376,18.206,2.35,2.457,-0.096,1.039,-3.079,9.826,-0.048,0.078,0.062,angry
6.23,0,0,0,0,0,0,0,0,141,1933,2861,3371,174,29,3019,3718,4.197,9.735,15.342,0.633,2.391,1.273,1.013,-2.835,10.068,-0.01,0.099,0.044,angry
6.24,0,0,0,0,0,0,0,0,159,1980,2940,3397,302,39,3135,3721,2.954,-3.804,11.983,0.034,2.017,1.648,0.766,-2.732,9.807,0.002,0.093,0.039,angry
6.25,0,0,0,0,0,0,0,0,140,2123,2963,3450,395,45,3197,3719,3.419,-3.306,8.825,-0.477,1.988,1.787,0.788,-2.701,9.744,0.005,0.07,0.037,angry
6.26,0,0,0,0,0,0,0,0,217,2203,2815,3555,683,43,3240,3686,1.851,-2.124,9.804,-0.959,1.939,1.905,0.843,-2.744,9.84,0.005,0.048,0.039,angry
6.27,0,0,0,0,0,0,0,0,329,2297,2971,3513,831,47,3263,3669,1.453,-2.737,8.516,-1.511,1.869,1.904,0.831,-2.653,9.847,-0.011,0.048,0.043,angry
6.28,0,0,0,0,0,0,0,0,373,2363,2986,3533,997,49,3259,3625,1.86,-2.128,7.611,-1.808,1.837,1.873,0.8,-2.772,9.807,-0.015,0.042,0.046,angry
6.29,0,0,0,0,0,0,0,0,435,2461,2997,3559,1052,47,3207,3564,2.243,-1.211,8.444,-2.155,1.873,1.868,0.79,-2.665,9.783,-0.026,0.029,0.038,angry
6.3,0,0,0,0,0,0,0,0,493,2538,2984,3591,1196,47,3133,3451,3.761,0.905,9.055,-2.869,1.962,2.032,0.824,-2.684,9.756,-0.021,0.031,0.038,angry
6.31,0,0,0,0,0,0,0,0,662,2551,3094,3548,1223,47,3079,3398,4.745,2.071,9.191,-3.169,1.994,2.239,0.874,-2.696,9.728,-0.031,0.049,0.045,angry
6.32,0,0,0,0,0,0,0,0,775,2519,2986,3593,1241,55,3032,3340,5.765,3.464,9.756,-3.45,2.047,2.491,0.864,-2.751,9.768,-0.028,0.059,0.044,angry
6.33,0,0,0,0,0,0,0,0,761,2547,3017,3464,1267,47,2983,3315,7.357,4.219,9.878,-3.608,2.119,2.751,0.752,-2.648,9.778,-0.038,0.044,0.046,angry
6.34,0,0,0,0,0,0,0,0,967,2551,2981,3593,1288,47,2983,3295,10.276,5.89,10.53,-3.726,2.292,3.104,0.792,-2.746,9.768,-0.035,0.043,0.047,angry
6.35,0,0,0,0,0,0,0,0,844,2579,2892,3573,1355,46,2991,3301,19.233,10.736,8.55,-3.968,2.667,4.58,0.725,-2.756,9.629,-0.024,0.048,0.053,angry
6.36,0,0,0,0,0,0,0,0,991,2605,2976,3599,1301,49,3125,3353,19.613,18.864,4.173,-3.088,2.603,8.657,0.828,-2.796,9.713,-0.01,0.056,0.049,angry
6.37,0,0,0,0,0,0,0,0,888,2601,2971,3599,1335,52,3099,3303,19.613,19.613,0.792,-1.673,2.946,8.731,0.819,-2.768,9.658,0.008,0.03,0.042,angry
6.38,0,0,0,0,0,0,0,0,921,2600,2966,3580,1203,47,3140,3415,13.908,19.613,-1.877,0.197,2.737,8.731,0.742,-2.847,9.816,0.033,0.045,0.041,angry
6.39,0,0,0,0,77,0,0,0,971,2539,2884,3529,995,51,3195,3550,-16.328,19.067,0.271,1.472,0.847,8.731,0.555,-2.775,9.646,0.049,0.029,0.041,angry
6.4,0,0,0,0,507,0,0,0,671,2314,2807,3244,758,47,3220,3638,3.304,19.613,-1.717,5.688,3.043,3.348,0.464,-2.727,9.922,0.082,0.043,0.047,angry
6.41,0,1167,208,0,1471,0,1764,1200,425,2219,2741,2995,459,46,3149,3667,15.567,12.184,9.962,-0.155,0.078,-0.083,0.443,-2.861,9.953,0.087,0.056,0.068,angry
6.42,0,1847,1823,0,2055,0,2582,3049,90,1655,2157,2361,87,15,2425,3692,0.639,6.105,8.914,0.692,0.222,-0.686,0.316,-2.701,9.826,0.126,0.047,0.002,angry
6.43,699,1923,2533,483,2377,0,2982,3444,0,121,0,573,36,0,1685,3592,-0.86,2.32,8.509,0.215,0.324,-0.261,-7.575,-0.907,13.23,0.177,-0.42,0.702,angry
6.44,893,1965,2543,711,2397,0,3181,3615,0,0,0,0,0,0,1310,3451,0.05,3.764,8.734,-0.022,-0.034,0.006,-19.613,0.182,13.295,0.359,-0.916,2.331,angry
6.45,989,2004,2559,643,2684,0,3361,3728,0,73,43,0,0,0,423,3097,0.462,2.535,9.488,-0.082,-0.092,0.118,-19.613,-10.831,17.669,1.852,-2.145,7.615,angry
6.46,880,2131,2618,530,2902,0,3504,3806,0,0,0,0,0,0,0,2313,0.833,3.01,9.093,-0.046,-0.012,0.078,-8.033,-16.257,8.607,2.863,-2.256,8.731,angry
6.47,769,2251,2694,583,2995,0,3558,3856,0,0,0,0,0,0,0,1501,0.515,3.352,9.481,-0.027,0.03,0.037,-7.41,-14.466,6.541,2.895,-1.834,8.731,angry
6.48,717,2306,2742,592,3117,0,3573,3875,0,0,0,24,0,0,0,407,0.687,3.536,9.797,0.021,0.025,-0.01,-2.078,-16.441,5.646,2.401,-2.19,8.731,angry
6.49,711,2319,2778,627,3088,0,3583,3885,0,0,0,0,4,0,0,71,0.457,3.311,9.316,0.067,0.017,-0.01,11.305,-11.679,7.427,1.477,-1.155,7.992,angry
6.5,671,2312,2817,761,3131,0,3578,3888,0,0,10,0,0,0,0,0,0.328,3.433,9.476,0.083,0.044,-0.026,6.263,-9.246,11.009,1.412,0.111,6.332,angry
6.51,721,2309,2864,830,3147,0,3575,3891,0,0,0,0,12,0,0,0,0.508,3.158,9.278,0.102,0.028,-0.032,2.394,-6.965,8.411,1.165,0.208,5.283,angry
6.52,754,2334,2915,1083,3141,45,3573,3883,0,0,0,0,0,38,0,0,0.464,3.357,9.206,0.152,0.018,-0.042,2.035,-5.629,7.678,0.875,-0.058,4.883,angry
6.53,859,2382,3025,1467,3162,44,3575,3879,0,0,0,0,0,0,0,0,0.275,3.553,9.527,0.165,0.064,-0.075,4.559,-4.049,8.981,0.635,0.229,3.936,angry
6.54,966,2394,3085,1611,3173,80,3581,3871,0,0,0,0,0,0,0,0,0.259,3.522,9.517,0.116,0.049,-0.046,4.808,-2.911,7.961,0.491,0.288,3.204,angry
6.55,1017,2429,3139,1682,3171,29,3610,3859,0,0,0,0,0,0,0,0,0.302,3.46,9.325,0.113,0.048,-0.035,4.233,-2.095,8.147,0.307,0.236,2.52,angry
6.56,1011,2501,3177,1776,3200,110,3583,3856,0,0,0,0,0,0,0,0,0.364,3.278,9.218,0.145,0.059,-0.054,3.335,-2.215,9.22,0.268,0.191,2.013,angry
6.57,1156,2559,3279,2061,3257,112,3607,3831,0,0,0,0,0,0,0,0,0.572,3.306,9.239,0.222,0.086,-0.105,3,-1.645,8.2,0.356,0.382,1.505,angry
6.58,1323,2657,3375,2409,3280,272,3600,3825,0,0,0,0,0,0,0,0,0.098,3.757,9.538,0.168,0.091,-0.076,3.244,-1.25,8.444,0.339,0.381,1.297,angry
6.59,1488,2743,3449,2536,3287,93,3583,3799,0,0,0,0,0,0,0,0,0.304,3.493,9.261,0.161,0.077,-0.05,2.638,-0.816,8.703,0.494,0.169,0.945,angry
6.6,1621,2807,3491,2626,3283,97,3558,3703,0,0,0,0,0,0,0,0,0.292,3.649,9.507,0.173,0.066,-0.048,1.865,-1.389,8.969,0.574,0.063,0.886,angry
6.61,1770,2832,3536,2723,3313,0,3518,3655,0,0,0,53,0,0,0,0,0.412,3.598,9.335,0.175,0.065,-0.058,1.08,-1.925,8.966,0.714,0.044,0.942,angry
6.62,1923,2878,3579,2807,3341,0,3474,3583,0,0,0,0,0,0,0,0,0.232,3.579,9.199,0.176,0.074,-0.053,0.18,-2.116,8.222,0.794,0.056,1.12,angry
6.63,2017,2907,3610,2896,3331,0,3438,3504,0,0,0,0,0,0,0,0,0.199,3.634,9.251,0.156,0.065,-0.026,-0.694,-2.344,8.195,0.778,-0.03,1.406,angry
6.64,2234,2988,3678,3014,3328,0,3346,3185,0,0,0,0,0,0,0,0,0.177,3.663,9.376,0.18,0.05,-0.011,-0.055,-3.627,8.305,0.843,-0.341,2.062,angry
6.65,2454,3071,3733,3126,3334,0,3236,2582,0,0,0,0,0,0,0,0,0.304,3.63,9.373,0.179,0.073,-0.017,0.996,-4.609,7.547,0.795,-0.344,2.265,angry
6.66,2579,3136,3775,3205,3326,0,3137,2286,0,0,0,0,0,0,0,0,0.445,4.389,8.976,0.194,0.046,0.012,2.804,-5.883,6.476,0.625,-0.383,2.255,angry
6.67,2697,3169,3803,3252,3331,0,2995,1525,0,0,0,0,0,0,0,0,0.484,4.379,9.701,0.096,0.142,0.051,4.678,-6.862,5.423,0.336,-0.351,1.973,angry
6.68,2800,3210,3840,3316,3345,0,2787,527,0,0,0,0,0,0,0,0,0.151,3.503,9.16,0.215,0.112,0.083,5.447,-8.035,6.215,0.074,-0.294,1.508,angry
6.69,2896,3222,3867,3388,3348,0,2544,0,0,0,0,0,0,0,0,0,-0.029,3.57,9.244,0.256,0.104,0.114,6.141,-8.559,6.122,-0.102,-0.122,0.916,angry
6.7,2971,3260,3888,3395,3329,0,2142,0,0,0,0,0,0,0,0,0,0.457,4.065,9.012,0.284,0.106,0.153,5.569,-8.159,5.059,-0.387,0.189,0.342,angry
6.71,3041,3247,3918,3403,3225,0,1535,0,0,0,0,0,0,0,0,0,0.266,3.888,9.634,0.349,0.118,0.169,-0.034,2.279,2.16,-1.421,0.22,-0.136,angry
6.72,3091,3264,3930,3409,3014,0,805,0,0,0,0,0,0,0,0,125,0.357,3.369,9.598,0.468,0.144,0.224,9.321,16.223,15.239,-0.418,0.194,0.153,angry
6.73,3149,3247,3947,3359,2593,0,547,0,0,0,0,0,16,0,0,2711,0.764,2.842,9.704,0.763,0.16,0.26,0.077,13.197,15.737,-1.61,-0.729,0.108,angry
6.74,3184,3307,3950,3239,2055,0,309,0,0,0,0,0,0,0,0,3611,0.994,3.448,9.95,1.353,0.325,0.261,-0.065,-8.938,15.735,-3.084,-0.374,0.735,angry
6.75,3286,3062,3914,3221,1296,0,61,0,0,0,0,0,0,0,1581,3803,1.19,3.223,10.036,2.079,0.636,0.433,1.3,-4.061,15.747,-1.581,-0.765,0.11,angry
6.76,3282,2751,3729,3259,578,0,0,0,0,0,0,0,0,0,1983,3869,2.559,4.65,9.354,3.27,1.224,0.705,1.537,-5.499,14.02,-1.122,-0.81,0.002,angry
6.77,3303,2496,3583,3265,0,0,0,0,0,0,0,0,1,0,2262,3917,1.065,3.508,9.567,3.507,1.763,0.323,1.403,-2.394,9.819,-0.822,-0.878,-0.11,angry
6.78,3267,1793,3409,3158,0,0,0,0,0,0,0,0,0,0,2509,3947,6.208,7.276,13.144,3.505,2.531,-0.38,1.52,-4.053,11.835,-0.268,0.056,0.025,angry
6.79,3117,842,2784,2835,0,0,0,0,0,0,0,0,0,0,2760,3980,6.352,5.205,15.208,3.863,3.419,-1.21,1.317,-1.961,9.857,0.094,0.478,0.238,angry
6.8,2782,48,2000,1819,0,0,0,0,0,0,0,0,0,0,3012,4015,3.632,6.371,17.475,4.671,3.675,-3.338,2.018,-2.543,9.342,0.019,0.504,0.236,angry
6.81,1808,0,706,413,0,0,0,0,0,0,0,0,0,0,3129,4041,7.733,7.807,16.221,3.293,4.61,-5.377,1.733,-2.911,10.137,-0.038,0.587,0.286,angry
6.82,0,0,145,0,0,0,0,0,0,0,0,0,83,0,3235,4073,8.854,6.268,14.456,1.58,5.723,-4.491,0.417,-2.514,11.021,-0.053,0.547,0.261,angry
6.83,0,0,0,0,0,0,0,0,0,0,0,0,143,0,3263,4089,11.475,19.441,14.451,1.212,3.772,0.997,0.984,-2.854,10.41,-0.006,0.421,0.186,angry
6.84,0,0,0,0,0,0,0,0,0,0,0,0,150,0,3367,4095,14.983,4.527,13.161,-0.67,3.906,1.926,1.073,-2.66,10.491,0.01,0.252,0.091,angry
6.85,0,0,0,0,0,0,0,0,0,0,0,0,100,0,3421,4095,10.824,6.172,6.503,-0.718,4.248,2.672,1.216,-2.282,9.835,0.001,0.157,0.051,angry
6.86,0,0,0,0,0,0,0,0,0,0,0,0,137,0,3455,4095,3.108,5.315,7.992,-0.964,4.226,2.821,1.01,-2.409,10.056,0.006,0.092,0.034,angry
6.87,0,0,0,0,0,0,0,0,0,0,0,0,181,0,3495,4095,-0.077,2.389,7.666,-1.03,3.049,2.82,1.006,-2.342,10.084,0.017,0.016,0.014,angry
6.88,0,0,0,0,0,0,0,0,0,0,0,0,163,0,3517,4095,0.077,1.422,6.675,-0.93,2.053,2.537,0.881,-2.617,10.235,0.034,-0.044,-0.008,angry
6.89,0,0,0,0,0,0,0,0,0,0,0,0,120,0,3535,4095,0.089,1.894,7.616,-0.979,1.433,2.091,0.943,-2.231,9.845,0.048,-0.07,-0.015,angry
6.9,0,0,0,0,0,0,0,0,0,0,0,0,91,0,3546,4031,0.448,2.09,8.94,-1.155,0.844,1.733,1.015,-2.045,9.711,0.02,-0.058,0.011,angry
6.91,0,0,0,0,0,0,0,0,0,0,0,0,75,0,3528,4095,1.927,2.55,9.357,-1.561,0.426,1.543,1.14,-2.138,9.632,0.009,-0.016,0.05,angry
6.92,0,0,0,0,0,0,0,0,0,0,0,0,111,0,3551,4095,3.026,2.691,8.203,-2.004,0.331,1.448,1.087,-2.133,9.507,-0.015,0.044,0.089,angry
6.93,0,0,0,0,0,0,0,0,0,0,0,16,213,3,3519,4090,2.837,2.703,7.314,-2.317,0.381,1.386,1.159,-1.832,9.9,-0.075,0.21,0.095,angry
6.94,0,0,0,0,0,0,0,0,0,0,0,0,247,0,3551,4091,1.81,3.488,7.87,-2.566,0.137,1.316,1.393,-2.049,9.069,-0.103,0.202,0.152,angry
6.95,0,0,0,0,0,0,0,0,0,45,0,0,347,0,3545,4069,1.915,4.798,8.926,-2.84,-0.277,1.266,1.537,-2.26,9.469,-0.089,0.27,0.155,angry
6.96,0,0,0,0,0,0,0,0,0,5,0,0,424,0,3539,4087,3,5.605,8.552,-3.162,-0.502,1.279,1.216,-2.145,9.601,-0.1,0.327,0.167,angry
6.97,0,0,0,0,0,0,0,0,0,106,0,19,675,0,3546,4039,3.735,5.861,7.489,-3.36,-0.558,1.401,1.152,-2.191,9.649,-0.103,0.357,0.172,angry
6.98,0,0,0,0,0,0,0,0,0,48,0,0,813,17,3543,4007,3.814,6.263,7.479,-3.4,-0.684,1.661,0.97,-2.025,9.62,-0.147,0.331,0.184,angry
6.99,0,0,0,0,0,0,0,0,0,419,2,0,999,0,3533,3967,4.243,6.96,7.958,-3.406,-0.853,2.015,0.922,-2.452,9.919,-0.185,0.315,0.183,angry
7,0,0,0,0,0,0,0,0,0,811,1497,0,1131,0,3508,3893,5.126,7.424,8.14,-3.425,-0.861,2.454,0.845,-2.354,9.907,-0.2,0.283,0.205,angry
7.01,0,0,0,0,0,0,0,0,0,949,1878,0,1272,0,3448,3733,4.736,7.796,8.918,-3.388,-0.844,2.938,0.828,-2.354,9.728,-0.212,0.288,0.25,angry
7.02,0,0,0,0,0,0,0,0,0,1126,2282,351,1594,1,3334,3491,3.445,8.212,10.183,-3.392,-0.922,3.336,0.819,-2.188,9.658,-0.226,0.316,0.269,angry
7.03,0,0,0,0,0,0,0,0,3,1271,2561,1239,1854,1,3196,3428,1.961,8.471,11.358,-3.43,-1.049,3.535,0.692,-2.349,9.629,-0.281,0.248,0.288,angry
7.04,0,0,0,0,0,0,0,0,47,1318,2725,1819,2077,4,3159,3411,0.378,8.832,12.802,-3.557,-1.149,3.512,0.618,-2.708,10.015,-0.262,0.209,0.209,angry
7.05,0,0,0,0,0,0,0,0,103,1703,2874,2684,2393,27,3023,3275,-1.302,9.266,14.152,-3.789,-1.416,3.064,0.649,-3.165,9.905,-0.219,0.136,0.107,angry
7.06,0,0,0,0,0,0,0,0,312,2004,2828,3048,2677,47,2895,3065,-0.383,11.985,12.34,-3.698,-1.482,2.659,0.5,-2.564,9.744,-0.152,0.11,0.082,angry
7.07,0,0,0,0,0,0,0,0,502,2155,2976,3212,2806,45,2811,2943,-3.546,18.962,11.437,-2.849,-1.522,2.316,0.95,-1.018,10.211,-0.015,0.086,0.123,angry
7.08,0,0,0,0,0,0,0,0,837,2365,3173,3387,2957,49,2725,2483,-3.622,19.613,7.887,-2.734,-1.446,1.955,0.599,-2.344,9.969,-0.08,0.102,0.092,angry
7.09,0,0,0,0,0,0,0,0,1294,2603,3247,3603,2991,50,2345,1303,-7.944,19.613,-3.946,-1.527,-0.371,1.296,0.97,-3.024,9.321,0.012,0.015,0.092,angry
7.1,0,0,0,0,0,0,0,0,1659,2661,3263,3655,2851,30,1943,91,-10.484,10.987,-7.149,2.109,-0.881,1.266,0.668,-2.923,9.771,-0.137,0,0.094,angry
7.11,0,0,0,0,0,0,0,1978,1980,2875,3173,3827,2553,3,549,0,-1.535,-0.848,3.795,1.912,3.309,0.391,0.055,-1.662,9.438,-0.128,-0.119,0.148,angry
7.12,0,0,0,0,0,0,511,3567,2526,3038,3337,3883,1759,3,482,0,-19.613,-10.748,-1.25,5.363,-0.231,0.015,0.929,-2.978,9.055,-0.76,0.097,-0.22,angry
7.13,0,0,0,0,0,0,1382,3743,2763,2952,3212,3957,805,3,439,0,7.882,19.613,19.613,4.044,-0.158,-0.64,0.84,-1.188,10.379,-1.063,0.055,-0.313,angry
7.14,43,0,0,0,272,0,2674,3799,3029,2891,3345,3879,481,0,249,0,-19.613,19.613,19.613,3.019,1.177,-1.763,0.955,-1.195,9.562,-2.407,-0.76,-0.421,angry
7.15,1157,448,0,0,1178,0,3063,3748,2823,2024,3514,3799,619,0,0,0,-0.551,6.191,16.798,0.907,0.929,-0.573,1.616,1.458,12.531,-5.321,0.181,-0.284,angry
7.16,1502,1098,1049,128,1303,0,3151,3792,2350,1065,3329,3307,451,0,0,0,0.955,6.342,10.8,0.18,0.362,-0.22,-0.208,3.682,12.27,-7.167,-0.219,0.021,angry
7.17,1701,1454,2013,1257,1624,0,3204,3840,1511,215,0,1105,0,0,0,0,-0.041,4.07,9.493,0.134,0.275,-0.18,-1.554,-14.485,19.613,-8.731,-2.246,1.095,angry
7.18,1844,1690,2445,1825,1860,0,3291,3879,0,0,120,0,5,0,0,0,0.455,3.553,9.388,-0.035,0.2,-0.058,-0.381,-11.746,19.613,-8.138,-3.381,1.845,angry
7.19,1914,1806,2706,2093,2230,0,3361,3884,0,0,0,19,0,0,0,0,0.048,3.692,9.388,0.025,0.026,0.032,11.167,-6.687,19.613,-3.486,-1.069,3.591,angry
7.2,1971,2026,2880,2243,2448,0,3428,3873,0,0,0,31,0,0,0,0,0.388,3.646,9.392,-0.012,0.071,0.007,5.753,4.001,19.613,0.85,-0.802,2.732,angry
7.21,2021,2231,3025,2348,2597,0,3442,3838,0,0,0,0,47,0,0,0,0.781,3.591,9.431,0.033,0.1,-0.04,4.518,2.294,8.21,2.164,-0.069,2.778,angry
7.22,2091,2320,3102,2427,2683,0,3411,3815,0,10,2,0,0,0,0,0,0.666,3.778,9.306,0.057,0.108,-0.046,6.167,1.492,6.318,2.324,-0.083,2.251,angry
7.23,2134,2359,3184,2489,2718,0,3373,3776,0,0,0,0,0,0,0,0,0.201,3.692,9.27,0.06,0.1,-0.035,7.058,1.82,5.329,2.439,-0.298,1.611,angry
7.24,2163,2442,3246,2559,2737,0,3345,3731,0,0,0,0,0,0,16,0,0.105,3.745,9.301,0.074,0.07,-0.022,8.219,0.828,6.675,2.777,-0.223,0.865,angry
7.25,2211,2455,3314,2645,2769,0,3310,3690,0,0,0,0,0,0,0,0,0.208,3.565,9.309,0.075,0.054,-0.022,8.064,-0.481,7.918,3.211,-0.328,0.038,angry
7.26,2250,2544,3381,2703,2800,0,3235,3622,0,0,0,0,9,0,0,0,0.338,3.721,9.29,0.086,0.052,-0.02,6.874,-0.843,7.582,3.628,-0.492,-0.731,angry
7.27,2352,2607,3457,2827,2829,0,3115,3506,0,0,0,0,61,0,0,0,0.326,3.759,9.342,0.071,0.055,-0.023,4.853,-1.003,6.491,3.886,-0.638,-1.279,angry
7.28,2471,2703,3519,2902,2827,0,3005,3440,0,0,294,0,0,0,0,0,0.333,3.642,9.213,0.067,0.055,-0.025,1.858,-2.806,9.486,4.186,-0.946,-1.698,angry
7.29,2580,2794,3579,2995,2874,0,2882,3347,0,0,0,0,31,0,57,0,0.115,3.694,9.258,0.068,0.058,-0.033,0.503,-3.871,10.381,4.62,-1.229,-1.73,angry
7.3,2651,2817,3635,3095,2960,0,2764,3248,0,0,0,0,0,0,0,0,0.141,3.699,9.28,0.077,0.06,-0.031,-0.122,-4.35,10.728,4.662,-1.289,-1.654,angry
7.31,2768,2803,3687,3173,2989,0,2623,3071,0,0,0,0,0,0,0,0,0.189,3.663,9.175,0.077,0.056,-0.036,-1.056,-5.361,15.311,4.784,-1.576,-1.358,angry
7.32,2832,2879,3733,3253,3007,0,2496,2778,0,0,0,0,0,0,12,0,0.139,4.116,9.716,0.046,0.066,-0.046,-0.01,-8.26,19.613,5.208,-2,-1.102,angry
7.33,2947,2939,3795,3338,2963,0,2291,2077,0,0,0,0,0,0,0,0,0.096,3.584,9.364,0.083,0.104,-0.05,1.791,-12.433,19.613,5.389,-1.981,-1.1,angry
7.34,3035,2977,3845,3421,2943,0,2023,1071,0,0,153,0,35,22,0,0,0.244,3.579,9.278,0.12,0.137,-0.051,2.547,-18.057,19.613,5.274,-1.84,-1.369,angry
7.35,3153,3099,3907,3502,2935,0,1535,0,0,0,0,0,0,0,46,0,0.316,3.632,9.448,0.199,0.214,-0.015,-0.134,-19.613,0.84,3.166,-1.094,-2.168,angry
7.36,3293,3248,3943,3599,2800,0,507,0,0,0,0,0,0,0,0,0,0.165,3.536,9.555,0.441,0.231,0.08,-1.853,-19.613,-3.852,1.714,-1.074,-2.846,angry
7.37,3385,3340,3975,3643,2631,0,80,0,0,0,0,0,0,0,0,0,0.275,3.735,9.74,0.543,0.372,0.107,-4.101,-19.613,-4.721,0.216,-0.168,-3.096,angry
7.38,3472,3401,4009,3695,2373,0,0,0,0,22,0,0,0,0,0,0,0.105,2.99,9.39,0.733,0.35,0.203,-14.047,-19.613,-3.328,-0.446,0.455,-2.203,angry
7.39,3568,3410,4018,3727,1943,0,0,0,0,0,0,6,0,0,0,0,0.512,3.869,9.215,0.985,0.232,0.339,-12.067,-19.613,-9.606,-3.582,0.078,-1.337,angry
7.4,3664,3401,4032,3758,1487,0,0,0,7,57,0,0,0,7,0,729,0.96,3.263,9.266,1.415,0.089,0.549,11.435,-9.158,19.613,-0.864,3.604,0.45,angry
7.41,3743,3219,4040,3761,1093,0,0,0,0,0,0,40,0,0,0,2803,0.615,2.866,9.603,1.842,0.022,0.739,-16.288,13.415,18.129,-4.365,-0.68,-0.492,angry
7.42,3851,2951,4030,3748,675,0,0,0,0,0,0,0,0,0,159,3628,0.294,2.962,8.423,2.929,0.339,0.942,-4.511,-12.787,11.926,-5.777,-1.174,1.653,angry
7.43,3860,2640,3953,3538,318,0,0,0,0,0,0,0,0,0,2159,3675,0.247,3.522,7.748,4.136,0.914,0.713,-15.5,-9.687,19.613,0.377,6.594,4.456,angry
7.44,3791,2598,3849,3151,0,0,0,0,0,0,0,0,0,0,2159,3675,1.53,3.548,10.836,4.96,0.836,0.203,-15.5,-9.687,19.613,0.377,6.594,4.456,angry
7.45,3600,2384,3615,2538,0,0,0,0,0,40,0,0,87,0,2736,3940,-0.273,6.211,19.613,6.239,-0.66,-0.022,-0.476,-5.978,19.613,-0.4,1.588,0.56,angry
7.46,2127,523,2431,1009,0,0,0,0,0,285,0,0,106,0,2851,3947,-2.413,9.357,19.613,8.731,-2.133,-2.521,3.723,-3.019,8.109,0.083,1.199,0.31,angry
7.47,69,0,117,0,0,0,0,0,0,1091,0,189,106,0,3081,3981,-0.9,19.613,19.613,8.727,-2.467,-2.645,1.808,-3.428,10.029,-0.111,0.326,0.208,angry
7.48,0,0,0,0,0,0,0,0,0,1271,0,967,442,0,3245,3997,10.041,5.6,19.613,2.363,-0.916,-3.769,0.912,-2.243,9.495,-0.081,0.223,0.233,angry
7.49,0,0,0,0,0,0,0,0,0,1403,1246,1463,623,2,3327,4007,4.53,5.581,19.613,0.773,-0.278,-2.281,1.341,-2.959,10.02,-0.157,0.187,0.222,angry
7.5,0,0,0,0,0,0,0,0,1,1375,1988,1990,895,3,3369,4006,5.734,0.733,13.52,0.138,-0.278,-2.531,0.759,-2.842,9.21,-0.079,0.068,0.175,angry
7.51,0,0,0,0,0,0,0,0,3,1499,2014,2196,1242,1,3439,3911,5.509,-0.306,11.911,-0.836,-0.287,-2.269,0.637,-2.629,10.013,-0.033,0.128,0.072,angry
7.52,0,0,0,0,0,0,0,0,39,1779,2188,2567,1439,3,3501,3981,6.067,0.587,9.234,-1.749,-0.957,-1.545,0.95,-2.519,9.455,-0.031,0.103,0.045,angry
7.53,0,0,0,0,0,0,0,0,5,1835,2439,2662,1515,3,3492,3941,6.788,-0.797,7.269,-2.132,-1.08,-0.997,0.984,-2.622,9.819,-0.024,0.118,0.039,angry
7.54,0,0,0,0,0,0,0,0,23,1911,2226,2771,1659,9,3495,3925,6.979,-0.402,6.663,-2.488,-0.911,-0.407,0.836,-2.552,9.515,-0.018,0.087,0.055,angry
7.55,0,0,0,0,0,0,0,0,43,1961,2313,2827,1557,12,3486,3897,4.865,1.247,7.879,-3.09,-0.961,0.509,0.694,-2.531,9.768,-0.034,0.099,0.061,angry
7.56,0,0,0,0,0,0,0,0,38,1943,2492,2901,1623,18,3449,3863,3.505,1.741,7.719,-3.527,-1.119,0.905,0.651,-2.638,9.867,-0.035,0.086,0.062,angry
7.57,0,0,0,0,0,0,0,0,70,1961,2659,2991,1655,19,3448,3820,2.138,1.978,6.613,-3.767,-1.258,1.125,0.709,-2.734,9.938,-0.006,0.059,0.048,angry
7.58,0,0,0,0,0,0,0,0,69,2012,2651,3067,1706,22,3426,3767,0.414,2.749,7.207,-3.844,-1.484,1.196,0.769,-2.586,9.637,-0.014,0.064,0.043,angry
7.59,0,0,0,0,0,0,0,0,79,1961,2695,3079,1827,18,3316,3679,-0.802,4.609,9.711,-3.991,-1.885,1.212,0.725,-2.569,9.898,-0.022,0.068,0.051,angry
7.6,0,0,0,0,0,0,0,0,86,2125,2822,3173,1992,23,3231,3399,-0.613,5.586,9.22,-4.428,-1.993,1.173,0.699,-2.559,9.79,-0.041,0.047,0.058,angry
7.61,0,0,0,0,0,0,0,0,79,2122,2833,3241,2227,31,2955,3066,-0.496,5.863,10.563,-4.372,-1.869,1.286,0.785,-2.629,9.764,-0.072,0.063,0.062,angry
7.62,0,0,0,0,0,0,0,0,125,2231,2838,3286,2295,30,2835,3016,0.704,8.088,13.812,-4.579,-1.94,1.617,0.735,-2.619,9.744,-0.06,0.064,0.064,angry
7.63,0,0,0,0,0,0,0,0,167,2404,2863,3399,2504,37,2796,2955,0.089,7.946,13.077,-4.636,-1.433,1.647,0.675,-2.559,9.701,-0.085,0.069,0.067,angry
7.64,0,0,0,0,0,0,0,0,375,2467,3027,3497,2696,52,2860,2799,1.381,11.497,17.882,-4.283,-1.69,1.596,0.737,-2.734,9.754,-0.094,0.104,0.073,angry
7.65,0,0,0,0,0,0,0,0,583,2531,3107,3533,2794,48,2743,2745,3.711,17.578,16.97,-4.312,-1.42,2.081,0.658,-2.538,9.649,-0.103,0.123,0.07,angry
7.66,0,0,0,0,0,0,0,0,889,2614,3186,3577,2979,116,2692,2303,-0.505,19.613,8.65,-3.584,-0.6,2.379,1.834,-3.292,10.092,0.121,0.058,0.112,angry
7.67,0,0,0,0,0,0,0,0,1210,2733,3227,3755,2951,47,2236,981,-4.743,19.613,-2.037,-1.597,0.001,2.357,0.56,-2.593,10.082,-0.098,0.082,0.045,angry
7.68,0,0,0,0,0,0,0,0,1523,2811,3222,3813,2789,7,2035,1,-12.354,19.613,-10.197,0.284,-0.481,1.372,1.118,-3.215,9.052,-0.021,0.04,0.081,angry
7.69,0,0,0,0,0,0,0,1711,1853,2973,3304,3919,2541,0,404,0,-2.136,19.613,-10.324,2.177,1.533,0.744,0.139,-2.749,9.481,-0.146,-0.013,0.102,angry
7.7,0,0,0,0,0,0,807,3525,2237,3053,3322,3989,1515,1,115,0,-12.668,-12.323,19.613,4.265,-0.8,0.493,1.638,-3.376,9.187,-0.706,0.148,-0.212,angry
7.71,0,0,0,0,0,0,935,3846,2547,3091,3329,3999,506,0,151,0,-1.659,15.744,17.904,2.701,0.389,-1.071,1.36,-1.216,9.754,-1.104,0.026,-0.384,angry
7.72,69,0,0,0,0,0,1886,3978,2607,2610,3488,3963,91,0,1,0,-1.166,1.456,8.353,2.587,-0.133,-0.464,0.117,-0.189,9.213,-2.874,-0.984,-0.581,angry
7.73,179,0,0,0,0,0,2619,3985,2058,886,3370,3785,0,0,0,0,3.021,5.499,10.671,2.085,-0.277,-0.598,0.584,0.85,11.715,-6.262,0.606,0.256,angry
7.74,235,0,0,0,0,0,3007,3999,1650,311,3027,3415,0,0,1,0,5.523,7.41,11.296,1.684,-0.099,-0.504,1.226,3.946,19.613,-8.119,-0.344,1.115,angry
7.75,303,0,0,0,909,0,3216,4016,1209,53,2103,2029,0,0,0,0,6.167,8.021,11.028,0.549,1.449,-0.655,1.255,-7.204,19.613,-8.731,-1.466,1.894,angry
7.76,719,0,0,0,1112,0,3342,4039,0,12,0,0,0,0,0,0,0.151,3.771,10.223,0.304,1.485,-0.677,2.88,-17.521,15.689,-8.173,-1.647,2.89,angry
7.77,843,0,0,0,1188,0,3367,4039,0,0,145,0,0,0,0,2,1.176,3.407,8.837,0.251,1.581,-0.624,9.005,-2.239,19.613,-4.183,0.005,3.739,angry
7.78,890,134,0,0,1555,0,3381,4033,0,9,0,0,0,0,0,0,-2.607,3.675,12.938,0.448,1.204,-0.494,-3.622,-19.613,19.613,-0.757,0.551,3.757,angry
7.79,989,398,0,0,1766,0,3422,4043,0,0,0,0,0,0,0,5,0.254,3.5,9.383,0.211,0.786,-0.236,6.491,3.44,19.613,-0.014,-0.599,2.566,angry
7.8,1049,627,157,0,1920,0,3440,4026,0,0,0,0,0,0,0,0,-0.136,3.747,10.195,0.2,0.545,-0.16,7.087,-0.022,11.621,1.082,0.461,2.562,angry
7.81,1005,1042,771,0,2064,0,3472,4011,0,0,0,0,0,0,0,11,0.864,4.219,10.681,0.2,0.42,-0.098,6.273,2.5,8.552,1.64,0.323,2.153,angry
7.82,976,1370,1326,0,2207,0,3474,3988,0,11,0,0,0,0,0,0,0.342,2.911,9.811,0.199,0.348,-0.145,6.397,2.167,5.42,1.759,0.291,1.53,angry
7.83,1072,1616,1808,289,2319,0,3467,3959,0,9,0,0,0,0,0,0,0.871,3.704,9.586,0.2,0.311,-0.155,7.59,1.439,5.121,1.96,0.105,0.864,angry
7.84,1083,1771,2233,611,2401,0,3458,3936,0,0,0,0,0,0,0,0,0.194,3.821,9.677,0.194,0.265,-0.143,7.688,1.176,5.543,2.138,-0.071,0.098,angry
7.85,1121,1897,2449,995,2433,0,3434,3921,0,0,0,0,1,0,0,12,0.259,3.704,9.483,0.154,0.205,-0.096,7.271,0.429,6.725,2.449,-0.221,-0.614,angry
7.86,1138,2017,2653,1301,2496,0,3419,3885,0,0,0,0,0,0,0,0,0.28,3.51,9.467,0.149,0.168,-0.089,6.349,-0.711,7.961,2.848,-0.409,-1.253,angry
7.87,1347,2261,2894,1712,2661,0,3398,3837,0,0,0,0,0,0,29,18,0.51,3.57,9.268,0.209,0.09,-0.092,3.261,-2.368,8.418,3.64,-0.678,-1.951,angry
7.88,1495,2448,3105,2002,2786,0,3361,3782,0,0,0,0,0,0,0,0,0.254,3.613,9.45,0.179,0.094,-0.095,1.875,-3.069,8.341,3.878,-0.803,-2.003,angry
7.89,1698,2602,3262,2279,2905,0,3297,3721,0,0,0,0,0,0,0,0,0.057,3.543,9.249,0.171,0.024,-0.057,0.498,-4.135,9.064,4.061,-0.989,-1.844,angry
7.9,1882,2759,3382,2441,3036,0,3241,3654,0,0,0,0,0,0,0,0,0.338,3.505,9.297,0.141,0.022,-0.027,-0.318,-5.595,13.63,4.501,-1.163,-1.542,angry
7.91,2084,2832,3478,2603,3142,0,3115,3566,0,0,0,0,0,0,0,0,0.273,3.78,9.452,0.147,0.005,-0.031,-0.776,-5.543,14.138,4.714,-1.328,-1.382,angry
7.92,2283,2922,3563,2767,3237,0,2991,3468,0,0,0,0,0,0,0,0,0.244,3.8,9.146,0.163,0.002,-0.042,-1.283,-5.497,14.65,4.883,-1.541,-0.776,angry
7.93,2499,2916,3634,2903,3319,0,2918,3296,0,0,0,0,0,0,0,45,0.347,3.646,9.333,0.141,0.04,-0.047,-0.242,-8.157,19.613,4.923,-1.847,-0.242,angry
7.94,2754,2981,3714,3056,3398,0,2833,2992,0,0,0,0,0,0,0,0,0.567,3.438,9.232,0.18,0.078,-0.056,2.461,-11.569,19.613,5.065,-2.023,-0.227,angry
7.95,2942,3066,3791,3209,3399,0,2608,1979,0,0,0,0,0,0,5,0,0.35,3.634,9.287,0.169,0.081,-0.049,4.389,-19.613,14.686,4.436,-1.659,-1.103,angry
7.96,3063,3219,3851,3344,3353,0,2160,443,0,0,0,0,0,0,0,0,0.443,3.457,9.345,0.212,0.17,-0.009,-0.18,-19.613,3.187,2.58,-1.588,-2.193,angry
7.97,3210,3395,3919,3454,3082,0,1394,0,0,0,0,0,0,36,0,0,0.278,4.307,9.459,0.201,0.253,0.021,-1.48,-19.613,-1.827,1.321,-0.962,-2.829,angry
7.98,3378,3505,3963,3558,2725,0,73,0,0,0,0,0,0,0,0,0,0.235,3.625,9.519,0.549,0.35,0.139,-15.589,-19.613,-12,-1.812,-0.201,-2.16,angry
7.99,3507,3557,4008,3631,2172,0,0,0,0,0,0,0,0,11,0,1829,0.16,3.929,9.653,0.913,0.331,0.396,5.116,4.788,19.613,-1.204,3.389,0.49,angry
8,3612,3553,4016,3659,1578,0,0,0,11,0,0,0,0,0,0,3224,1.008,2.808,9.658,1.552,0.181,0.57,-8.351,11.868,9.045,-5.57,-1.701,-0.656,angry
8.01,3681,3392,4029,3677,1153,0,0,0,0,0,0,1,0,0,0,3448,1.154,2.392,10.944,2.083,0.207,0.78,-6.091,-5.581,5.624,-5.505,0.52,1.676,angry
8.02,3742,3044,4019,3659,839,0,0,0,0,0,0,0,0,0,334,3817,1.786,2.325,10.472,3.044,0.13,0.967,2.456,-11.693,17.535,-4.369,-0.258,1.236,angry
8.03,3781,2768,3968,3472,392,0,0,0,0,0,0,0,0,0,1490,3876,3.136,5.672,10.724,4.144,0.901,0.794,0.472,-3.33,14.358,-3.996,-0.378,0.44,angry
8.04,3641,2445,3755,2764,0,0,0,0,0,0,0,0,0,0,2516,3959,1.128,1.068,13.501,5.706,1.184,0.611,7.721,-19.613,17.887,-0.3,1.891,0.314,angry
8.05,3071,1979,3297,2037,0,0,0,0,0,0,0,0,39,0,2843,3991,2.246,7.549,19.613,6.959,-0.233,-0.063,-5.227,-0.376,7.75,0.044,2.692,1.015,angry
8.06,2160,772,2526,1043,0,0,0,0,0,75,0,0,53,0,2935,4006,-3.883,7.257,19.613,8.731,-1.73,-1.671,-0.352,-3.57,12.04,0.191,1.25,0.193,angry
8.07,285,0,217,0,0,0,0,0,0,404,0,18,109,0,3159,4045,-1.281,19.352,19.19,8.731,-2.17,-2.774,2.093,-2.447,9.68,-0.055,0.462,0.237,angry
8.08,0,0,0,0,0,0,0,0,0,633,355,685,137,6,3229,4061,8.519,6.498,19.613,4.567,-0.723,-3.454,0.922,-2.725,9.895,-0.033,0.28,0.146,angry
8.09,0,0,0,0,0,0,0,0,11,957,401,1049,201,2,3336,4041,-1.616,16.812,19.613,1.342,0.265,-2.318,1.08,-2.689,10.216,-0.026,0.135,0.088,angry
8.1,0,0,0,0,0,0,0,0,0,1047,396,1421,170,2,3403,4075,4.638,-3.168,19.613,0.266,-0.165,-1.733,0.622,-2.749,9.512,0.044,-0.026,0.069,angry
8.11,0,0,0,0,0,0,0,0,0,1039,156,1469,317,0,3447,4073,5.483,0.048,8.571,-0.703,0.354,-1.771,0.998,-2.509,10.154,0.09,0.091,-0.025,angry
8.12,0,0,0,0,0,0,0,0,0,1188,76,1509,413,0,3501,4057,3.235,-2.404,9.538,-1.027,-0.03,-1.584,1.037,-2.351,9.833,0.079,0.087,-0.021,angry
8.13,0,0,0,0,0,0,0,0,0,1279,785,1495,553,0,3515,4041,4.511,-0.086,9.103,-1.525,-0.565,-1.175,1.276,-2.054,9.479,0.024,0.125,0.022,angry
8.14,0,0,0,0,0,0,0,0,2,1321,1655,1635,648,3,3503,3999,5.171,-0.575,8.191,-2.023,-0.849,-0.734,1.283,-1.98,9.45,-0.066,0.167,0.106,angry
8.15,0,0,0,0,0,0,0,0,2,1382,2178,1979,698,2,3477,3915,5.914,0.168,7.535,-2.503,-0.737,-0.273,0.941,-2.437,9.857,-0.081,0.163,0.157,angry
8.16,0,0,0,0,0,0,0,0,2,1407,2272,2235,683,0,3427,3927,5.327,1.097,7.149,-3.015,-0.515,0.126,0.747,-2.512,9.9,-0.072,0.147,0.157,angry
8.17,0,0,0,0,0,0,0,0,31,1507,2339,2427,860,8,3419,3875,3.759,1.961,7.592,-3.5,-0.497,0.467,0.836,-2.375,9.641,-0.106,0.124,0.162,angry
8.18,0,0,0,0,0,0,0,0,17,1563,2597,2583,1107,5,3375,3787,2.456,2.504,6.651,-3.869,-0.652,0.703,0.826,-2.622,9.934,-0.134,0.07,0.124,angry
8.19,0,0,0,0,0,0,0,0,28,1629,2556,2718,1240,9,3303,3655,1.482,3.122,6.342,-4.057,-0.856,0.812,0.905,-2.454,9.826,-0.14,0.092,0.122,angry
8.2,0,0,0,0,0,0,0,0,25,1711,2682,2891,1445,22,3227,3359,0.74,4.137,7.022,-4.147,-1.138,0.874,0.895,-2.37,9.728,-0.138,0.099,0.132,angry
8.21,0,0,0,0,0,0,0,0,103,1964,2674,2995,1565,27,3221,3176,0.263,5.655,8.274,-4.267,-1.374,0.901,0.773,-2.512,9.859,-0.186,0.114,0.159,angry
8.22,0,0,0,0,0,0,0,0,159,1965,2679,3097,1757,37,3002,3119,0.594,7.568,8.581,-4.456,-1.641,0.96,0.658,-3.007,9.792,-0.168,0.096,0.125,angry
8.23,0,0,0,0,0,0,0,0,365,2254,2848,3323,2065,47,2833,3049,2.172,8.262,10.044,-4.452,-1.551,1.257,0.649,-2.713,9.778,-0.102,0.112,0.074,angry
8.24,0,0,0,0,0,0,0,0,439,2475,3014,3474,2275,41,2731,2787,1.367,7.855,10.958,-4.435,-1.406,1.624,0.74,-2.629,9.706,-0.085,0.107,0.068,angry
8.25,0,0,0,0,0,0,0,0,645,2508,3050,3531,2339,43,2629,2683,-0.254,8.411,13.798,-4.166,-1.658,1.613,0.8,-2.801,9.776,-0.08,0.131,0.066,angry
8.26,0,0,0,0,0,0,0,0,850,2585,3158,3629,2553,58,2427,2389,1.47,13.752,19.613,-4.506,-1.86,1.478,0.642,-2.466,9.886,-0.115,0.139,0.044,angry
8.27,0,0,0,0,0,0,0,0,1225,2701,3191,3736,2633,45,2223,1837,1.329,16.137,15.467,-4.731,-1.27,1.661,0.819,-2.761,9.428,-0.084,0.122,0.037,angry
8.28,0,0,0,0,0,0,0,0,1227,2719,3002,3768,2588,19,2024,1444,-1.47,19.592,13.101,-3.699,-1.145,2.04,0.69,-2.703,9.78,-0.152,0.128,0.027,angry
8.29,0,0,0,0,0,0,0,0,1483,2803,3252,3849,2471,7,1514,11,-8.516,19.613,0.977,-2.523,0.196,1.96,0.5,-2.682,9.9,-0.083,0.046,0.042,angry
8.3,0,0,0,0,0,0,0,0,1570,2863,3273,3902,2397,3,1180,0,-14.667,19.613,-10.894,-1.251,-0.404,1.086,0.816,-2.607,9.862,-0.08,0.049,0.05,angry
8.31,0,0,0,0,0,0,0,524,1967,2923,3314,3999,2108,29,152,0,-6.855,19.613,-14.992,2.369,-0.153,0.507,0.484,-1.935,9.522,-0.204,0.008,0.027,angry
8.32,0,0,0,0,0,0,553,3117,2077,2972,3324,4027,1499,0,35,0,0.438,-4.745,19.613,2.104,2.076,-1.408,0.206,-2.04,10.063,-0.597,0.157,-0.169,angry
8.33,0,0,0,0,0,0,959,3746,2507,3017,3355,4069,233,0,0,0,-0.912,8.772,-1.551,4.881,0.846,-1.32,1.29,-2.679,9.134,-0.761,0.024,-0.324,angry
8.34,0,0,0,0,0,0,1904,3888,2847,2713,3304,4041,85,0,0,0,-0.132,6.9,18.364,3.104,0.96,-0.83,1.958,-1.901,10.228,-1.834,-0.577,-0.548,angry
8.35,192,0,0,0,0,0,2688,3902,2877,2089,3365,4007,61,0,0,0,-1.894,4.223,8.25,3.131,-0.266,-0.659,2.105,-0.491,13.199,-3.184,-0.274,-0.578,angry
8.36,1189,559,0,0,1398,0,3152,3839,2275,853,3437,3830,0,0,0,0,-4.448,-4.228,8.248,0.832,2.722,-1.335,1.288,-1.549,12.505,-6.058,0.623,0.087,angry
8.37,1570,1593,1414,98,1723,0,3216,3869,1167,47,2305,2251,0,0,0,0,-0.077,6.699,12.929,0.239,0.679,-0.3,3.069,-5.511,19.613,-8.731,-1.451,1.696,angry
8.38,1654,1897,2288,1191,2125,0,3262,3910,1045,0,0,932,0,0,0,0,-0.206,3.747,9.845,0.041,0.349,-0.177,-3.189,-3.486,19.613,-8.731,-1.84,2.937,angry
8.39,1766,2076,2614,1718,2334,0,3350,3934,0,0,0,0,0,0,0,0,0.321,3.78,9.713,0.01,0.211,-0.048,8.581,-2.332,19.613,-3.751,-0.415,3.365,angry
8.4,1808,2260,2820,1942,2534,0,3414,3926,0,0,0,0,0,0,0,0,0.364,3.697,9.218,0.083,0.084,-0.009,3.084,2.492,19.613,-0.118,-0.859,2.769,angry
8.41,1824,2472,3015,2119,2695,0,3446,3901,0,0,0,0,0,0,0,0,0.338,3.524,9.503,0.079,0.049,-0.009,6.639,-1.058,10.968,1.042,0.16,3.143,angry
8.42,1869,2559,3082,2211,2774,0,3450,3865,0,0,0,0,0,0,0,0,0.646,3.677,9.297,0.099,0.046,-0.047,5.27,2.112,8.77,1.517,0.116,2.781,angry
8.43,1918,2640,3159,2286,2865,0,3418,3831,0,0,0,0,0,0,0,0,0.721,3.687,9.297,0.077,0.088,-0.068,7.044,1.269,6.668,1.689,0.059,2.052,angry
8.44,1960,2720,3229,2384,2913,0,3374,3796,0,0,0,0,0,0,0,0,0.34,3.62,9.335,0.082,0.094,-0.068,7.887,1.262,6.62,1.943,0.019,1.181,angry
8.45,2003,2781,3281,2460,2949,0,3326,3777,0,0,0,0,0,0,0,0,0.158,3.543,9.268,0.107,0.056,-0.043,7.791,0.785,6.809,2.277,-0.114,0.273,angry
8.46,2077,2807,3337,2530,2986,0,3283,3709,0,0,0,0,0,0,0,0,0.18,3.579,9.244,0.106,0.03,-0.029,6.929,0.385,6.847,2.643,-0.274,-0.604,angry
8.47,2147,2864,3398,2606,3037,0,3236,3652,0,0,0,0,0,0,0,0,0.321,3.689,9.34,0.127,0.012,-0.032,5.6,-0.089,6.366,2.937,-0.379,-1.258,angry
8.48,2331,2929,3486,2738,3117,0,3137,3543,0,0,0,0,0,0,0,0,0.481,3.783,9.337,0.126,0.028,-0.041,2.598,-2.047,8.703,3.541,-0.478,-1.784,angry
8.49,2477,3025,3539,2841,3161,0,3007,3471,0,0,79,0,0,0,0,0,0.383,3.855,9.424,0.127,0.031,-0.037,-0.153,-3.436,9.002,4.144,-0.715,-1.697,angry
8.5,2620,3041,3601,2930,3213,0,2915,3367,0,0,0,0,0,0,0,0,0.388,3.689,9.227,0.113,0.061,-0.05,-1.104,-3.809,8.691,4.222,-0.883,-1.452,angry
8.51,2746,3086,3654,3067,3225,0,2797,3259,0,0,0,0,0,0,0,0,0.283,3.795,9.285,0.103,0.068,-0.043,-0.634,-4.511,11.183,4.365,-1.289,-1.013,angry
8.52,2855,3088,3703,3162,3232,0,2677,3053,0,0,0,0,0,0,37,0,0.254,3.725,9.266,0.086,0.079,-0.038,-0.522,-5.042,13.879,4.537,-1.485,-0.806,angry
8.53,2931,3133,3749,3248,3209,0,2463,2717,0,0,46,0,0,0,0,0,0.299,3.78,9.38,0.087,0.082,-0.041,-0.745,-5.49,15.038,4.57,-1.676,-0.648,angry
8.54,2992,3180,3798,3319,3083,0,2199,1975,0,0,0,0,0,0,0,0,0.235,3.874,9.263,0.099,0.106,-0.021,-0.189,-8.66,19.613,4.879,-2.195,-0.261,angry
8.55,3107,3227,3835,3397,2975,0,1824,845,51,0,0,0,0,0,0,0,0.285,3.539,9.448,0.123,0.143,-0.004,3.421,-15.972,17.157,4.463,-2.251,-0.509,angry
